Participant,Session,Block,Trial,OnsetDelay,ProbeLocation,WhatIsReported,Condition,TriggerTime,ProbeSOA,PrimeDirection,Response,RT
HKS1998WRNO,2019-10-02-09-58-10,1,1,0.6723480381966095,right,probe,ambiguous-switch,-1,-5,right,right,0.361
HKS1998WRNO,2019-10-02-09-58-10,1,2,0.583083595932157,right,both,ambiguous-switch,99,-5,right,right,0.381
HKS1998WRNO,2019-10-02-09-58-10,1,3,0.5935478997409913,right,probe,biased-switch,-1,5,right,right,0.325
HKS1998WRNO,2019-10-02-09-58-10,1,4,0.5232401761834364,right,both,biased-switch,102,5,right,left,0.213
HKS1998WRNO,2019-10-02-09-58-10,1,5,0.6626345007060885,right,probe,ambiguous-switch,-1,-10,left,left,0.179
HKS1998WRNO,2019-10-02-09-58-10,1,6,0.6896564671469074,right,both,ambiguous-switch,103,-10,left,left,0.244
HKS1998WRNO,2019-10-02-09-58-10,1,7,0.5724726346841994,right,probe,biased-switch,-1,-5,left,left,0.291
HKS1998WRNO,2019-10-02-09-58-10,1,8,0.6047719597962999,right,both,biased-switch,91,-5,left,left,0.246
HKS1998WRNO,2019-10-02-09-58-10,1,9,0.602001971098544,right,probe,biased-switch,-1,20,left,left,0.346
HKS1998WRNO,2019-10-02-09-58-10,1,10,0.676390284854866,right,both,biased-switch,93,20,left,left,0.255
HKS1998WRNO,2019-10-02-09-58-10,1,11,0.6847695923053186,right,probe,ambiguous-switch,-1,10,left,left,0.268
HKS1998WRNO,2019-10-02-09-58-10,1,12,0.6345728870217104,right,both,ambiguous-switch,92,10,left,right,0.328
HKS1998WRNO,2019-10-02-09-58-10,1,13,0.5164540485475142,right,probe,ambiguous-switch,-1,0,right,right,0.432
HKS1998WRNO,2019-10-02-09-58-10,1,14,0.5851469663929489,right,both,ambiguous-switch,91,0,right,right,0.278
HKS1998WRNO,2019-10-02-09-58-10,1,15,0.6649282200187058,left,probe,ambiguous-switch,-1,40,right,right,0.387
HKS1998WRNO,2019-10-02-09-58-10,1,16,0.5504990257427175,left,both,ambiguous-switch,92,40,right,left,0.225
HKS1998WRNO,2019-10-02-09-58-10,1,17,0.6232290226528873,right,probe,ambiguous-switch,-1,-30,left,left,0.307
HKS1998WRNO,2019-10-02-09-58-10,1,18,0.5692684118191071,right,both,ambiguous-switch,92,-30,left,left,0.302
HKS1998WRNO,2019-10-02-09-58-10,1,19,0.5992963265272439,left,probe,biased-switch,-1,10,left,left,0.305
HKS1998WRNO,2019-10-02-09-58-10,1,20,0.5870862112021565,left,both,biased-switch,108,10,left,right,0.244
HKS1998WRNO,2019-10-02-09-58-10,1,21,0.5152649407743845,left,probe,ambiguous-switch,-1,30,left,left,0.296
HKS1998WRNO,2019-10-02-09-58-10,1,22,0.5311986454173926,left,both,ambiguous-switch,104,30,left,right,0.299
HKS1998WRNO,2019-10-02-09-58-10,1,23,0.6669236496841194,left,probe,ambiguous-switch,-1,-20,left,left,0.267
HKS1998WRNO,2019-10-02-09-58-10,1,24,0.5594318310509139,left,both,ambiguous-switch,102,-20,left,left,0.241
HKS1998WRNO,2019-10-02-09-58-10,1,25,0.5720348170444118,left,probe,biased-switch,-1,0,left,left,0.259
HKS1998WRNO,2019-10-02-09-58-10,1,26,0.6333458897510637,left,both,biased-switch,104,0,left,right,0.228
HKS1998WRNO,2019-10-02-09-58-10,1,27,0.6464864549361774,right,probe,biased-switch,-1,30,left,left,0.245
HKS1998WRNO,2019-10-02-09-58-10,1,28,0.6473903671694985,right,both,biased-switch,97,30,left,left,0.183
HKS1998WRNO,2019-10-02-09-58-10,1,29,0.6712361410030585,left,probe,ambiguous-switch,-1,20,left,left,0.22
HKS1998WRNO,2019-10-02-09-58-10,1,30,0.5444510657506388,left,both,ambiguous-switch,104,20,left,right,0.203
HKS1998WRNO,2019-10-02-09-58-10,1,31,0.553128399664298,left,probe,biased-switch,-1,-30,right,right,0.237
HKS1998WRNO,2019-10-02-09-58-10,1,32,0.6232478820809001,left,both,biased-switch,107,-30,right,right,0.214
HKS1998WRNO,2019-10-02-09-58-10,1,33,0.5844530210312946,left,probe,biased-switch,-1,-10,left,left,0.211
HKS1998WRNO,2019-10-02-09-58-10,1,34,0.6757636812705667,left,both,biased-switch,91,-10,left,right,0.269
HKS1998WRNO,2019-10-02-09-58-10,1,35,0.5640050979139403,left,probe,biased-switch,-1,40,right,right,0.254
HKS1998WRNO,2019-10-02-09-58-10,1,36,0.5694870953630047,left,both,biased-switch,110,40,right,left,0.235
HKS1998WRNO,2019-10-02-09-58-10,1,37,0.6655834151390819,right,probe,ambiguous-switch,-1,5,left,left,0.354
HKS1998WRNO,2019-10-02-09-58-10,1,38,0.6096268584912968,right,both,ambiguous-switch,109,5,left,right,0.188
HKS1998WRNO,2019-10-02-09-58-10,1,39,0.6944766075698883,right,probe,biased-switch,-1,-20,left,left,0.321
HKS1998WRNO,2019-10-02-09-58-10,1,40,0.5296640581510543,right,both,biased-switch,101,-20,left,left,0.35
HKS1998WRNO,2019-10-02-09-58-10,1,41,0.5924242822420575,left,probe,ambiguous-switch,-1,-5,left,left,0.228
HKS1998WRNO,2019-10-02-09-58-10,1,42,0.5479538868450864,left,both,ambiguous-switch,106,-5,left,right,0.336
HKS1998WRNO,2019-10-02-09-58-10,1,43,0.6865891767322653,right,probe,biased-switch,-1,5,left,left,0.232
HKS1998WRNO,2019-10-02-09-58-10,1,44,0.6184176621485961,right,both,biased-switch,102,5,left,right,0.289
HKS1998WRNO,2019-10-02-09-58-10,1,45,0.6687805765694004,left,probe,ambiguous-switch,-1,-10,left,left,0.222
HKS1998WRNO,2019-10-02-09-58-10,1,46,0.5059133141922817,left,both,ambiguous-switch,110,-10,left,right,0.345
HKS1998WRNO,2019-10-02-09-58-10,1,47,0.5869288231481741,left,probe,biased-switch,-1,-5,left,left,0.244
HKS1998WRNO,2019-10-02-09-58-10,1,48,0.6843663795278891,left,both,biased-switch,100,-5,left,right,0.225
HKS1998WRNO,2019-10-02-09-58-10,1,49,0.5379848478543194,right,probe,biased-switch,-1,20,left,left,0.188
HKS1998WRNO,2019-10-02-09-58-10,1,50,0.6828693455981828,right,both,biased-switch,101,20,left,right,0.177
HKS1998WRNO,2019-10-02-09-58-10,1,51,0.6034367551938948,right,probe,ambiguous-switch,-1,10,left,left,0.212
HKS1998WRNO,2019-10-02-09-58-10,1,52,0.5480996052855038,right,both,ambiguous-switch,97,10,left,right,0.225
HKS1998WRNO,2019-10-02-09-58-10,1,53,0.5749910559352259,left,probe,ambiguous-switch,-1,0,right,right,0.246
HKS1998WRNO,2019-10-02-09-58-10,1,54,0.670811297732435,left,both,ambiguous-switch,98,0,right,left,0.219
HKS1998WRNO,2019-10-02-09-58-10,1,55,0.6872368407001357,left,probe,ambiguous-switch,-1,40,left,left,0.27
HKS1998WRNO,2019-10-02-09-58-10,1,56,0.6063532860367655,left,both,ambiguous-switch,104,40,left,right,0.227
HKS1998WRNO,2019-10-02-09-58-10,1,57,0.5518389365693471,left,probe,ambiguous-switch,-1,-30,right,right,0.335
HKS1998WRNO,2019-10-02-09-58-10,1,58,0.6994737712155707,left,both,ambiguous-switch,95,-30,right,right,0.271
HKS1998WRNO,2019-10-02-09-58-10,1,59,0.6473429025970985,left,probe,biased-switch,-1,10,right,right,0.349
HKS1998WRNO,2019-10-02-09-58-10,1,60,0.6979195409470688,left,both,biased-switch,105,10,right,left,0.235
HKS1998WRNO,2019-10-02-09-58-10,1,61,0.6013718324566992,right,probe,ambiguous-switch,-1,30,left,left,0.27
HKS1998WRNO,2019-10-02-09-58-10,1,62,0.6337659287655387,right,both,ambiguous-switch,90,30,left,right,0.2
HKS1998WRNO,2019-10-02-09-58-10,1,63,0.509470643831003,left,probe,ambiguous-switch,-1,-20,right,right,0.267
HKS1998WRNO,2019-10-02-09-58-10,1,64,0.6067726405009936,left,both,ambiguous-switch,94,-20,right,right,0.25
HKS1998WRNO,2019-10-02-09-58-10,1,65,0.6713223851678368,left,probe,biased-switch,-1,0,right,right,0.403
HKS1998WRNO,2019-10-02-09-58-10,1,66,0.6678507748842719,left,both,biased-switch,101,0,right,left,0.227
HKS1998WRNO,2019-10-02-09-58-10,1,67,0.5107449908048014,left,probe,biased-switch,-1,30,right,right,0.25
HKS1998WRNO,2019-10-02-09-58-10,1,68,0.5370558288557588,left,both,biased-switch,91,30,right,right,0.278
HKS1998WRNO,2019-10-02-09-58-10,1,69,0.5370843391889548,left,probe,ambiguous-switch,-1,20,right,right,0.367
HKS1998WRNO,2019-10-02-09-58-10,1,70,0.6375240806584691,left,both,ambiguous-switch,96,20,right,left,0.238
HKS1998WRNO,2019-10-02-09-58-10,1,71,0.5803247013254088,left,probe,biased-switch,-1,-30,right,right,0.231
HKS1998WRNO,2019-10-02-09-58-10,1,72,0.54053865531597,left,both,biased-switch,103,-30,right,right,0.228
HKS1998WRNO,2019-10-02-09-58-10,1,73,0.6788762710353197,left,probe,biased-switch,-1,-10,right,right,0.248
HKS1998WRNO,2019-10-02-09-58-10,1,74,0.6550427240021088,left,both,biased-switch,102,-10,right,right,0.267
HKS1998WRNO,2019-10-02-09-58-10,1,75,0.6039875825647254,left,probe,biased-switch,-1,40,right,right,0.34
HKS1998WRNO,2019-10-02-09-58-10,1,76,0.5915801536950855,left,both,biased-switch,108,40,right,right,0.248
HKS1998WRNO,2019-10-02-09-58-10,1,77,0.6266236262270783,left,probe,ambiguous-switch,-1,5,right,right,0.367
HKS1998WRNO,2019-10-02-09-58-10,1,78,0.6883771905466519,left,both,ambiguous-switch,106,5,right,left,0.22
HKS1998WRNO,2019-10-02-09-58-10,1,79,0.527698613710491,left,probe,biased-switch,-1,-20,right,right,0.293
HKS1998WRNO,2019-10-02-09-58-10,1,80,0.6938933572623842,left,both,biased-switch,105,-20,right,right,0.32
HKS1998WRNO,2019-10-02-09-58-10,2,1,0.5097937712434382,right,probe,ambiguous-switch,-1,-30,right,right,0.213
HKS1998WRNO,2019-10-02-09-58-10,2,2,0.6878980275009343,right,both,ambiguous-switch,96,-30,right,right,0.291
HKS1998WRNO,2019-10-02-09-58-10,2,3,0.5293876184955729,left,probe,biased-switch,-1,-5,right,right,0.354
HKS1998WRNO,2019-10-02-09-58-10,2,4,0.5382421950859098,left,both,biased-switch,103,-5,right,right,0.324
HKS1998WRNO,2019-10-02-09-58-10,2,5,0.5300688924552458,left,probe,ambiguous-switch,-1,20,right,right,0.349
HKS1998WRNO,2019-10-02-09-58-10,2,6,0.5513296063906477,left,both,ambiguous-switch,104,20,right,left,0.222
HKS1998WRNO,2019-10-02-09-58-10,2,7,0.5088024158473221,right,probe,biased-switch,-1,-20,right,right,0.267
HKS1998WRNO,2019-10-02-09-58-10,2,8,0.6983428227619469,right,both,biased-switch,93,-20,right,right,0.2
HKS1998WRNO,2019-10-02-09-58-10,2,9,0.5139021197568951,left,probe,biased-switch,-1,-10,right,right,0.55
HKS1998WRNO,2019-10-02-09-58-10,2,10,0.5354484723336806,left,both,biased-switch,105,-10,right,left,0.252
HKS1998WRNO,2019-10-02-09-58-10,2,11,0.5409980174619444,right,probe,ambiguous-switch,-1,40,right,right,0.257
HKS1998WRNO,2019-10-02-09-58-10,2,12,0.630277041521742,right,both,ambiguous-switch,98,40,right,right,0.278
HKS1998WRNO,2019-10-02-09-58-10,2,13,0.5905077724160367,right,probe,ambiguous-switch,-1,10,right,right,0.241
HKS1998WRNO,2019-10-02-09-58-10,2,14,0.5777237183448326,right,both,ambiguous-switch,106,10,right,left,0.259
HKS1998WRNO,2019-10-02-09-58-10,2,15,0.6436873858639288,right,probe,ambiguous-switch,-1,0,right,right,0.281
HKS1998WRNO,2019-10-02-09-58-10,2,16,0.5176315917834362,right,both,ambiguous-switch,104,0,right,left,0.283
HKS1998WRNO,2019-10-02-09-58-10,2,17,0.5704050832171654,left,probe,biased-switch,-1,-30,right,right,0.236
HKS1998WRNO,2019-10-02-09-58-10,2,18,0.5354440950477242,left,both,biased-switch,109,-30,right,right,0.266
HKS1998WRNO,2019-10-02-09-58-10,2,19,0.53367735750151,right,probe,biased-switch,-1,30,right,right,0.333
HKS1998WRNO,2019-10-02-09-58-10,2,20,0.6260661462488745,right,both,biased-switch,95,30,right,left,0.238
HKS1998WRNO,2019-10-02-09-58-10,2,21,0.5522959295216484,left,probe,biased-switch,-1,20,left,left,1.963
HKS1998WRNO,2019-10-02-09-58-10,2,22,0.5586633363727571,left,both,biased-switch,95,20,left,right,0.221
HKS1998WRNO,2019-10-02-09-58-10,2,23,0.5731846673219083,right,probe,ambiguous-switch,-1,-5,left,left,0.236
HKS1998WRNO,2019-10-02-09-58-10,2,24,0.64806243163573,right,both,ambiguous-switch,102,-5,left,left,0.333
HKS1998WRNO,2019-10-02-09-58-10,2,25,0.5322209290328329,left,probe,ambiguous-switch,-1,-10,left,left,0.314
HKS1998WRNO,2019-10-02-09-58-10,2,26,0.6845968434706277,left,both,ambiguous-switch,105,-10,left,right,0.238
HKS1998WRNO,2019-10-02-09-58-10,2,27,0.6336180327969765,left,probe,biased-switch,-1,10,right,right,0.332
HKS1998WRNO,2019-10-02-09-58-10,2,28,0.6140797173495712,left,both,biased-switch,108,10,right,left,0.364
HKS1998WRNO,2019-10-02-09-58-10,2,29,0.6794487942117374,left,probe,biased-switch,-1,40,left,left,0.242
HKS1998WRNO,2019-10-02-09-58-10,2,30,0.621819868737869,left,both,biased-switch,101,40,left,right,0.257
HKS1998WRNO,2019-10-02-09-58-10,2,31,0.5299298256903701,right,probe,biased-switch,-1,5,right,right,0.402
HKS1998WRNO,2019-10-02-09-58-10,2,32,0.6179670962954592,right,both,biased-switch,90,5,right,left,0.228
HKS1998WRNO,2019-10-02-09-58-10,2,33,0.6224808978067423,left,probe,biased-switch,-1,0,right,right,0.354
HKS1998WRNO,2019-10-02-09-58-10,2,34,0.522669213591247,left,both,biased-switch,95,0,right,left,0.231
HKS1998WRNO,2019-10-02-09-58-10,2,35,0.6378318016716804,right,probe,ambiguous-switch,-1,30,right,right,0.237
HKS1998WRNO,2019-10-02-09-58-10,2,36,0.6321281205799552,right,both,ambiguous-switch,108,30,right,left,0.288
HKS1998WRNO,2019-10-02-09-58-10,2,37,0.629719935554283,right,probe,ambiguous-switch,-1,5,left,left,0.257
HKS1998WRNO,2019-10-02-09-58-10,2,38,0.610020186127074,right,both,ambiguous-switch,95,5,left,right,0.216
HKS1998WRNO,2019-10-02-09-58-10,2,39,0.6182829836810427,right,probe,ambiguous-switch,-1,-20,left,left,0.259
HKS1998WRNO,2019-10-02-09-58-10,2,40,0.6615913083747715,right,both,ambiguous-switch,105,-20,left,left,0.233
HKS1998WRNO,2019-10-02-09-58-10,2,41,0.5758083659171357,left,probe,ambiguous-switch,-1,-30,left,left,0.292
HKS1998WRNO,2019-10-02-09-58-10,2,42,0.6109999270892699,left,both,ambiguous-switch,99,-30,left,right,0.456
HKS1998WRNO,2019-10-02-09-58-10,2,43,0.6247841993228072,right,probe,biased-switch,-1,-5,left,left,0.286
HKS1998WRNO,2019-10-02-09-58-10,2,44,0.6260485084333752,right,both,biased-switch,105,-5,left,left,0.276
HKS1998WRNO,2019-10-02-09-58-10,2,45,0.6936710107102436,right,probe,ambiguous-switch,-1,20,left,left,0.251
HKS1998WRNO,2019-10-02-09-58-10,2,46,0.5286494483888294,right,both,ambiguous-switch,94,20,left,left,0.398
HKS1998WRNO,2019-10-02-09-58-10,2,47,0.5694739103546822,right,probe,biased-switch,-1,-20,left,left,0.464
HKS1998WRNO,2019-10-02-09-58-10,2,48,0.588644644851878,right,both,biased-switch,105,-20,left,left,0.319
HKS1998WRNO,2019-10-02-09-58-10,2,49,0.6511796912721057,right,probe,biased-switch,-1,-10,left,left,0.272
HKS1998WRNO,2019-10-02-09-58-10,2,50,0.5710912170732985,right,both,biased-switch,103,-10,left,left,0.373
HKS1998WRNO,2019-10-02-09-58-10,2,51,0.6840780046295352,left,probe,ambiguous-switch,-1,40,left,left,0.459
HKS1998WRNO,2019-10-02-09-58-10,2,52,0.5847478151132248,left,both,ambiguous-switch,98,40,left,left,0.249
HKS1998WRNO,2019-10-02-09-58-10,2,53,0.6847631219810948,right,probe,ambiguous-switch,-1,10,left,left,0.355
HKS1998WRNO,2019-10-02-09-58-10,2,54,0.5281400899432233,right,both,ambiguous-switch,108,10,left,left,0.359
HKS1998WRNO,2019-10-02-09-58-10,2,55,0.5233619012134596,left,probe,ambiguous-switch,-1,0,left,left,0.244
HKS1998WRNO,2019-10-02-09-58-10,2,56,0.6062987643853615,left,both,ambiguous-switch,92,0,left,left,0.367
HKS1998WRNO,2019-10-02-09-58-10,2,57,0.6355063138991819,left,probe,biased-switch,-1,-30,left,left,0.27
HKS1998WRNO,2019-10-02-09-58-10,2,58,0.5353917546399651,left,both,biased-switch,90,-30,left,left,0.255
HKS1998WRNO,2019-10-02-09-58-10,2,59,0.5122182693675347,right,probe,biased-switch,-1,30,left,left,0.322
HKS1998WRNO,2019-10-02-09-58-10,2,60,0.6825465502346788,right,both,biased-switch,97,30,left,left,0.358
HKS1998WRNO,2019-10-02-09-58-10,2,61,0.5192317798898681,left,probe,biased-switch,-1,20,left,left,0.473
HKS1998WRNO,2019-10-02-09-58-10,2,62,0.5657717882080695,left,both,biased-switch,92,20,left,right,0.286
HKS1998WRNO,2019-10-02-09-58-10,2,63,0.6906858319345264,right,probe,ambiguous-switch,-1,-5,left,left,0.33
HKS1998WRNO,2019-10-02-09-58-10,2,64,0.5445121421083907,right,both,ambiguous-switch,99,-5,left,left,0.273
HKS1998WRNO,2019-10-02-09-58-10,2,65,0.6097653645788673,right,probe,ambiguous-switch,-1,-10,left,left,0.368
HKS1998WRNO,2019-10-02-09-58-10,2,66,0.6803367476054447,right,both,ambiguous-switch,109,-10,left,left,0.29
HKS1998WRNO,2019-10-02-09-58-10,2,67,0.5499797161070956,right,probe,biased-switch,-1,10,left,left,0.308
HKS1998WRNO,2019-10-02-09-58-10,2,68,0.5080070286825327,right,both,biased-switch,108,10,left,right,0.251
HKS1998WRNO,2019-10-02-09-58-10,2,69,0.6583405653415557,left,probe,biased-switch,-1,40,right,right,0.304
HKS1998WRNO,2019-10-02-09-58-10,2,70,0.6388829966905702,left,both,biased-switch,104,40,right,left,0.257
HKS1998WRNO,2019-10-02-09-58-10,2,71,0.6347894383247649,right,probe,biased-switch,-1,5,left,left,0.323
HKS1998WRNO,2019-10-02-09-58-10,2,72,0.6994828442780383,right,both,biased-switch,109,5,left,right,0.235
HKS1998WRNO,2019-10-02-09-58-10,2,73,0.6582213132114831,left,probe,biased-switch,-1,0,left,left,0.265
HKS1998WRNO,2019-10-02-09-58-10,2,74,0.5735776941735595,left,both,biased-switch,109,0,left,right,0.282
HKS1998WRNO,2019-10-02-09-58-10,2,75,0.5196932456426044,right,probe,ambiguous-switch,-1,30,left,left,0.316
HKS1998WRNO,2019-10-02-09-58-10,2,76,0.6166246238391923,right,both,ambiguous-switch,110,30,left,left,0.315
HKS1998WRNO,2019-10-02-09-58-10,2,77,0.5501826319695262,right,probe,ambiguous-switch,-1,5,left,left,0.369
HKS1998WRNO,2019-10-02-09-58-10,2,78,0.6764659055304529,right,both,ambiguous-switch,93,5,left,right,0.316
HKS1998WRNO,2019-10-02-09-58-10,2,79,0.6212238112386911,left,probe,ambiguous-switch,-1,-20,left,left,0.317
HKS1998WRNO,2019-10-02-09-58-10,2,80,0.5616672871803401,left,both,ambiguous-switch,91,-20,left,left,0.256
HKS1998WRNO,2019-10-02-09-58-10,3,1,0.5876931459348442,left,probe,ambiguous-switch,-1,0,left,left,1.169
HKS1998WRNO,2019-10-02-09-58-10,3,2,0.5899438777279155,left,both,ambiguous-switch,103,0,left,left,0.483
HKS1998WRNO,2019-10-02-09-58-10,3,3,0.6552188995104158,left,probe,biased-switch,-1,20,left,left,0.476
HKS1998WRNO,2019-10-02-09-58-10,3,4,0.5410200055642082,left,both,biased-switch,100,20,left,left,0.396
HKS1998WRNO,2019-10-02-09-58-10,3,5,0.510123670775658,right,probe,biased-switch,-1,-30,left,left,0.357
HKS1998WRNO,2019-10-02-09-58-10,3,6,0.6772759887936081,right,both,biased-switch,110,-30,left,left,0.416
HKS1998WRNO,2019-10-02-09-58-10,3,7,0.6286045589296311,right,probe,biased-switch,-1,40,left,left,0.421
HKS1998WRNO,2019-10-02-09-58-10,3,8,0.6234809297614949,right,both,biased-switch,100,40,left,left,0.31
HKS1998WRNO,2019-10-02-09-58-10,3,9,0.5474205565943079,left,probe,ambiguous-switch,-1,-20,left,left,0.368
HKS1998WRNO,2019-10-02-09-58-10,3,10,0.6845231000617176,left,both,ambiguous-switch,106,-20,left,left,0.356
HKS1998WRNO,2019-10-02-09-58-10,3,11,0.6844371777722935,right,probe,biased-switch,-1,30,left,left,0.418
HKS1998WRNO,2019-10-02-09-58-10,3,12,0.6366843814930647,right,both,biased-switch,101,30,left,left,0.241
HKS1998WRNO,2019-10-02-09-58-10,3,13,0.6781642349246493,left,probe,biased-switch,-1,0,left,left,0.377
HKS1998WRNO,2019-10-02-09-58-10,3,14,0.6145242883297564,left,both,biased-switch,95,0,left,right,0.253
HKS1998WRNO,2019-10-02-09-58-10,3,15,0.6911284449427264,right,probe,ambiguous-switch,-1,5,left,left,0.321
HKS1998WRNO,2019-10-02-09-58-10,3,16,0.5856185760141667,right,both,ambiguous-switch,109,5,left,right,0.337
HKS1998WRNO,2019-10-02-09-58-10,3,17,0.6208557360554025,left,probe,biased-switch,-1,-5,left,left,0.382
HKS1998WRNO,2019-10-02-09-58-10,3,18,0.5594530462232834,left,both,biased-switch,90,-5,left,left,0.315
HKS1998WRNO,2019-10-02-09-58-10,3,19,0.631337012750239,left,probe,ambiguous-switch,-1,-5,left,left,0.531
HKS1998WRNO,2019-10-02-09-58-10,3,20,0.5498203628614784,left,both,ambiguous-switch,95,-5,left,right,0.332
HKS1998WRNO,2019-10-02-09-58-10,3,21,0.6767229415108071,left,probe,ambiguous-switch,-1,-10,left,left,0.353
HKS1998WRNO,2019-10-02-09-58-10,3,22,0.6407879385019167,left,both,ambiguous-switch,90,-10,left,left,0.527
HKS1998WRNO,2019-10-02-09-58-10,3,23,0.598684063973785,left,probe,ambiguous-switch,-1,-30,left,left,0.398
HKS1998WRNO,2019-10-02-09-58-10,3,24,0.6468684595803712,left,both,ambiguous-switch,102,-30,left,left,0.463
HKS1998WRNO,2019-10-02-09-58-10,3,25,0.5953800861184169,right,probe,biased-switch,-1,-20,left,left,0.396
HKS1998WRNO,2019-10-02-09-58-10,3,26,0.5989985658118631,right,both,biased-switch,96,-20,left,right,0.417
HKS1998WRNO,2019-10-02-09-58-10,3,27,0.663892420804743,left,probe,ambiguous-switch,-1,40,left,left,0.345
HKS1998WRNO,2019-10-02-09-58-10,3,28,0.6498308716554976,left,both,ambiguous-switch,110,40,left,left,0.281
HKS1998WRNO,2019-10-02-09-58-10,3,29,0.6242694736174601,right,probe,ambiguous-switch,-1,20,left,left,0.696
HKS1998WRNO,2019-10-02-09-58-10,3,30,0.6927345855135987,right,both,ambiguous-switch,105,20,left,right,0.329
HKS1998WRNO,2019-10-02-09-58-10,3,31,0.6953101853871865,left,probe,ambiguous-switch,-1,10,left,left,0.38
HKS1998WRNO,2019-10-02-09-58-10,3,32,0.6927341236360947,left,both,ambiguous-switch,100,10,left,right,0.346
HKS1998WRNO,2019-10-02-09-58-10,3,33,0.5733702141853592,right,probe,biased-switch,-1,-10,left,left,0.426
HKS1998WRNO,2019-10-02-09-58-10,3,34,0.640916248743127,right,both,biased-switch,101,-10,left,right,0.298
HKS1998WRNO,2019-10-02-09-58-10,3,35,0.5387362979463591,right,probe,biased-switch,-1,10,left,left,0.277
HKS1998WRNO,2019-10-02-09-58-10,3,36,0.6092934586724275,right,both,biased-switch,105,10,left,right,0.246
HKS1998WRNO,2019-10-02-09-58-10,3,37,0.5746803191074882,right,probe,ambiguous-switch,-1,30,left,left,0.277
HKS1998WRNO,2019-10-02-09-58-10,3,38,0.5056387344227883,right,both,ambiguous-switch,97,30,left,right,0.207
HKS1998WRNO,2019-10-02-09-58-10,3,39,0.6063422732987809,left,probe,biased-switch,-1,5,left,left,0.285
HKS1998WRNO,2019-10-02-09-58-10,3,40,0.6035525774203062,left,both,biased-switch,94,5,left,right,0.315
HKS1998WRNO,2019-10-02-09-58-10,3,41,0.6611115420965827,left,probe,ambiguous-switch,-1,0,left,left,0.352
HKS1998WRNO,2019-10-02-09-58-10,3,42,0.5500420008355057,left,both,ambiguous-switch,109,0,left,right,0.321
HKS1998WRNO,2019-10-02-09-58-10,3,43,0.5313976345600387,left,probe,biased-switch,-1,20,left,left,0.259
HKS1998WRNO,2019-10-02-09-58-10,3,44,0.62502951404005,left,both,biased-switch,94,20,left,right,0.236
HKS1998WRNO,2019-10-02-09-58-10,3,45,0.6614312866984172,right,probe,biased-switch,-1,-30,left,left,0.28
HKS1998WRNO,2019-10-02-09-58-10,3,46,0.5333531267411519,right,both,biased-switch,102,-30,left,left,0.406
HKS1998WRNO,2019-10-02-09-58-10,3,47,0.5723006321461768,left,probe,biased-switch,-1,40,right,right,0.328
HKS1998WRNO,2019-10-02-09-58-10,3,48,0.5407927604689609,left,both,biased-switch,96,40,right,left,0.21
HKS1998WRNO,2019-10-02-09-58-10,3,49,0.5589581192953357,right,probe,ambiguous-switch,-1,-20,left,left,0.262
HKS1998WRNO,2019-10-02-09-58-10,3,50,0.581919904816914,right,both,ambiguous-switch,99,-20,left,left,0.357
HKS1998WRNO,2019-10-02-09-58-10,3,51,0.5658843900972599,right,probe,biased-switch,-1,30,left,left,0.311
HKS1998WRNO,2019-10-02-09-58-10,3,52,0.6700542949907244,right,both,biased-switch,90,30,left,right,0.24
HKS1998WRNO,2019-10-02-09-58-10,3,53,0.5522195540583755,right,probe,biased-switch,-1,0,left,left,0.314
HKS1998WRNO,2019-10-02-09-58-10,3,54,0.5561943125797981,right,both,biased-switch,102,0,left,right,0.285
HKS1998WRNO,2019-10-02-09-58-10,3,55,0.6676058867700998,left,probe,ambiguous-switch,-1,5,right,right,0.327
HKS1998WRNO,2019-10-02-09-58-10,3,56,0.5151116208765323,left,both,ambiguous-switch,91,5,right,right,0.22
HKS1998WRNO,2019-10-02-09-58-10,3,57,0.5644459056625892,left,probe,biased-switch,-1,-5,right,right,0.332
HKS1998WRNO,2019-10-02-09-58-10,3,58,0.6359562676920631,left,both,biased-switch,93,-5,right,right,0.383
HKS1998WRNO,2019-10-02-09-58-10,3,59,0.5906865439992192,right,probe,ambiguous-switch,-1,-5,right,right,0.35
HKS1998WRNO,2019-10-02-09-58-10,3,60,0.5646615395548509,right,both,ambiguous-switch,108,-5,right,right,0.281
HKS1998WRNO,2019-10-02-09-58-10,3,61,0.598488574869752,right,probe,ambiguous-switch,-1,-10,right,right,0.448
HKS1998WRNO,2019-10-02-09-58-10,3,62,0.683752065447972,right,both,ambiguous-switch,109,-10,right,right,0.444
HKS1998WRNO,2019-10-02-09-58-10,3,63,0.6113731665736849,left,probe,ambiguous-switch,-1,-30,right,right,0.643
HKS1998WRNO,2019-10-02-09-58-10,3,64,0.6279728242163104,left,both,ambiguous-switch,95,-30,right,right,0.32
HKS1998WRNO,2019-10-02-09-58-10,3,65,0.5124101735343113,left,probe,biased-switch,-1,-20,right,right,0.464
HKS1998WRNO,2019-10-02-09-58-10,3,66,0.5074622830710783,left,both,biased-switch,91,-20,right,right,0.258
HKS1998WRNO,2019-10-02-09-58-10,3,67,0.5921727371757168,right,probe,ambiguous-switch,-1,40,right,right,0.279
HKS1998WRNO,2019-10-02-09-58-10,3,68,0.556018632902012,right,both,ambiguous-switch,91,40,right,right,0.198
HKS1998WRNO,2019-10-02-09-58-10,3,69,0.664229222072379,left,probe,ambiguous-switch,-1,20,right,right,0.349
HKS1998WRNO,2019-10-02-09-58-10,3,70,0.6873904145385985,left,both,ambiguous-switch,93,20,right,right,0.342
HKS1998WRNO,2019-10-02-09-58-10,3,71,0.5552654536909226,left,probe,ambiguous-switch,-1,10,right,right,0.306
HKS1998WRNO,2019-10-02-09-58-10,3,72,0.5588563033101618,left,both,ambiguous-switch,95,10,right,right,0.467
HKS1998WRNO,2019-10-02-09-58-10,3,73,0.5062519759417621,right,probe,biased-switch,-1,-10,right,right,0.303
HKS1998WRNO,2019-10-02-09-58-10,3,74,0.6891305844999023,right,both,biased-switch,106,-10,right,right,0.586
HKS1998WRNO,2019-10-02-09-58-10,3,75,0.6865725290210993,left,probe,biased-switch,-1,10,right,right,0.283
HKS1998WRNO,2019-10-02-09-58-10,3,76,0.5599007687260531,left,both,biased-switch,98,10,right,left,0.263
HKS1998WRNO,2019-10-02-09-58-10,3,77,0.5219358412883265,left,probe,ambiguous-switch,-1,30,right,right,0.234
HKS1998WRNO,2019-10-02-09-58-10,3,78,0.5898264399298269,left,both,ambiguous-switch,109,30,right,left,0.289
HKS1998WRNO,2019-10-02-09-58-10,3,79,0.6616053877260166,left,probe,biased-switch,-1,5,right,right,0.196
HKS1998WRNO,2019-10-02-09-58-10,3,80,0.619762962576283,left,both,biased-switch,103,5,right,left,0.322
HKS1998WRNO,2019-10-02-09-58-10,4,1,0.5285485193510375,left,probe,biased-switch,-1,-10,right,right,0.221
HKS1998WRNO,2019-10-02-09-58-10,4,2,0.5806634588481179,left,both,biased-switch,110,-10,right,right,0.258
HKS1998WRNO,2019-10-02-09-58-10,4,3,0.5656068669785886,left,probe,ambiguous-switch,-1,-10,right,right,0.234
HKS1998WRNO,2019-10-02-09-58-10,4,4,0.6735353174708495,left,both,ambiguous-switch,105,-10,right,left,0.272
HKS1998WRNO,2019-10-02-09-58-10,4,5,0.6881287947040713,right,probe,ambiguous-switch,-1,30,right,right,0.193
HKS1998WRNO,2019-10-02-09-58-10,4,6,0.6209208275490383,right,both,ambiguous-switch,94,30,right,right,0.236
HKS1998WRNO,2019-10-02-09-58-10,4,7,0.6690960352652802,left,probe,biased-switch,-1,40,left,left,0.271
HKS1998WRNO,2019-10-02-09-58-10,4,8,0.6949407312234929,left,both,biased-switch,109,40,left,right,0.26
HKS1998WRNO,2019-10-02-09-58-10,4,9,0.5233348071869068,left,probe,biased-switch,-1,-5,right,right,0.282
HKS1998WRNO,2019-10-02-09-58-10,4,10,0.6120908739533503,left,both,biased-switch,102,-5,right,left,0.285
HKS1998WRNO,2019-10-02-09-58-10,4,11,0.6307224204040642,right,probe,biased-switch,-1,20,right,right,0.345
HKS1998WRNO,2019-10-02-09-58-10,4,12,0.5230218979237696,right,both,biased-switch,95,20,right,left,0.406
HKS1998WRNO,2019-10-02-09-58-10,4,13,0.5907933515037935,right,probe,biased-switch,-1,-20,right,right,0.242
HKS1998WRNO,2019-10-02-09-58-10,4,14,0.5654341912946059,right,both,biased-switch,90,-20,right,right,0.334
HKS1998WRNO,2019-10-02-09-58-10,4,15,0.5648982714157018,right,probe,ambiguous-switch,-1,-5,right,right,0.271
HKS1998WRNO,2019-10-02-09-58-10,4,16,0.675575920169109,right,both,ambiguous-switch,99,-5,right,right,0.248
HKS1998WRNO,2019-10-02-09-58-10,4,17,0.6713289519215093,right,probe,biased-switch,-1,30,right,right,0.315
HKS1998WRNO,2019-10-02-09-58-10,4,18,0.5432191128476173,right,both,biased-switch,104,30,right,right,0.214
HKS1998WRNO,2019-10-02-09-58-10,4,19,0.6381393120584472,right,probe,ambiguous-switch,-1,10,right,right,0.271
HKS1998WRNO,2019-10-02-09-58-10,4,20,0.5595256312353388,right,both,ambiguous-switch,93,10,right,right,0.242
HKS1998WRNO,2019-10-02-09-58-10,4,21,0.5631630491555346,right,probe,biased-switch,-1,10,right,right,0.277
HKS1998WRNO,2019-10-02-09-58-10,4,22,0.6332317658265808,right,both,biased-switch,108,10,right,left,0.316
HKS1998WRNO,2019-10-02-09-58-10,4,23,0.6778884039108877,right,probe,ambiguous-switch,-1,-20,right,right,0.174
HKS1998WRNO,2019-10-02-09-58-10,4,24,0.5293573924533451,right,both,ambiguous-switch,102,-20,right,right,0.294
HKS1998WRNO,2019-10-02-09-58-10,4,25,0.6986367427410365,right,probe,ambiguous-switch,-1,20,right,right,0.316
HKS1998WRNO,2019-10-02-09-58-10,4,26,0.6807488820783272,right,both,ambiguous-switch,103,20,right,left,0.2
HKS1998WRNO,2019-10-02-09-58-10,4,27,0.5787288872225252,left,probe,biased-switch,-1,-30,right,right,0.23
HKS1998WRNO,2019-10-02-09-58-10,4,28,0.5146184639920065,left,both,biased-switch,97,-30,right,right,0.283
HKS1998WRNO,2019-10-02-09-58-10,4,29,0.5776949498599292,left,probe,ambiguous-switch,-1,0,right,right,0.292
HKS1998WRNO,2019-10-02-09-58-10,4,30,0.5034233708149125,left,both,ambiguous-switch,94,0,right,left,0.203
HKS1998WRNO,2019-10-02-09-58-10,4,31,0.5144792524668154,right,probe,biased-switch,-1,5,right,right,0.237
HKS1998WRNO,2019-10-02-09-58-10,4,32,0.5205177648775987,right,both,biased-switch,105,5,right,left,0.22
HKS1998WRNO,2019-10-02-09-58-10,4,33,0.5735062722227351,left,probe,ambiguous-switch,-1,5,right,right,0.215
HKS1998WRNO,2019-10-02-09-58-10,4,34,0.6553966302397556,left,both,ambiguous-switch,98,5,right,left,0.195
HKS1998WRNO,2019-10-02-09-58-10,4,35,0.6950021026099362,left,probe,ambiguous-switch,-1,-30,right,right,0.513
HKS1998WRNO,2019-10-02-09-58-10,4,36,0.6247382616326588,left,both,ambiguous-switch,96,-30,right,right,0.266
HKS1998WRNO,2019-10-02-09-58-10,4,37,0.6615184990334584,right,probe,ambiguous-switch,-1,40,right,right,0.252
HKS1998WRNO,2019-10-02-09-58-10,4,38,0.6112433755861976,right,both,ambiguous-switch,103,40,right,right,0.213
HKS1998WRNO,2019-10-02-09-58-10,4,39,0.6411732545434088,right,probe,biased-switch,-1,0,right,right,0.279
HKS1998WRNO,2019-10-02-09-58-10,4,40,0.668232199609033,right,both,biased-switch,103,0,right,left,0.194
HKS1998WRNO,2019-10-02-09-58-10,4,41,0.5241003316579651,right,probe,biased-switch,-1,-10,right,right,0.235
HKS1998WRNO,2019-10-02-09-58-10,4,42,0.6857596536061022,right,both,biased-switch,94,-10,right,right,0.38
HKS1998WRNO,2019-10-02-09-58-10,4,43,0.5423495656232384,left,probe,ambiguous-switch,-1,-10,right,right,0.904
HKS1998WRNO,2019-10-02-09-58-10,4,44,0.6214302498800878,left,both,ambiguous-switch,96,-10,right,left,0.351
HKS1998WRNO,2019-10-02-09-58-10,4,45,0.5777192458996725,left,probe,ambiguous-switch,-1,30,left,left,0.249
HKS1998WRNO,2019-10-02-09-58-10,4,46,0.6787177522922582,left,both,ambiguous-switch,96,30,left,right,0.246
HKS1998WRNO,2019-10-02-09-58-10,4,47,0.5418774519718172,right,probe,biased-switch,-1,40,right,right,0.356
HKS1998WRNO,2019-10-02-09-58-10,4,48,0.5397261234169446,right,both,biased-switch,103,40,right,right,0.246
HKS1998WRNO,2019-10-02-09-58-10,4,49,0.6139359686550301,left,probe,biased-switch,-1,-5,right,right,0.41
HKS1998WRNO,2019-10-02-09-58-10,4,50,0.5043648463933966,left,both,biased-switch,102,-5,right,left,0.31
HKS1998WRNO,2019-10-02-09-58-10,4,51,0.5510855171221273,right,probe,biased-switch,-1,20,right,right,0.327
HKS1998WRNO,2019-10-02-09-58-10,4,52,0.6675439966719525,right,both,biased-switch,99,20,right,left,0.266
HKS1998WRNO,2019-10-02-09-58-10,4,53,0.585715615602931,right,probe,biased-switch,-1,-20,right,right,0.201
HKS1998WRNO,2019-10-02-09-58-10,4,54,0.6358687262616884,right,both,biased-switch,95,-20,right,right,0.228
HKS1998WRNO,2019-10-02-09-58-10,4,55,0.6134028543277764,left,probe,ambiguous-switch,-1,-5,right,right,0.234
HKS1998WRNO,2019-10-02-09-58-10,4,56,0.6613044987699819,left,both,ambiguous-switch,93,-5,right,left,0.228
HKS1998WRNO,2019-10-02-09-58-10,4,57,0.6378032079221028,left,probe,biased-switch,-1,30,left,left,0.147
HKS1998WRNO,2019-10-02-09-58-10,4,58,0.6792113228721769,left,both,biased-switch,91,30,left,left,0.203
HKS1998WRNO,2019-10-02-09-58-10,4,59,0.6393106859073752,left,probe,ambiguous-switch,-1,10,right,right,0.243
HKS1998WRNO,2019-10-02-09-58-10,4,60,0.5265943297882144,left,both,ambiguous-switch,107,10,right,left,0.207
HKS1998WRNO,2019-10-02-09-58-10,4,61,0.6333528159079658,right,probe,biased-switch,-1,10,right,right,0.228
HKS1998WRNO,2019-10-02-09-58-10,4,62,0.6235047321292531,right,both,biased-switch,100,10,right,left,0.233
HKS1998WRNO,2019-10-02-09-58-10,4,63,0.5161838522083764,right,probe,ambiguous-switch,-1,-20,right,right,0.263
HKS1998WRNO,2019-10-02-09-58-10,4,64,0.5151821458159637,right,both,ambiguous-switch,109,-20,right,right,0.243
HKS1998WRNO,2019-10-02-09-58-10,4,65,0.5731992261831087,left,probe,ambiguous-switch,-1,20,left,left,0.256
HKS1998WRNO,2019-10-02-09-58-10,4,66,0.5692328171856802,left,both,ambiguous-switch,91,20,left,left,0.243
HKS1998WRNO,2019-10-02-09-58-10,4,67,0.6614235830019053,right,probe,biased-switch,-1,-30,left,left,0.301
HKS1998WRNO,2019-10-02-09-58-10,4,68,0.6635026928175982,right,both,biased-switch,97,-30,left,left,0.221
HKS1998WRNO,2019-10-02-09-58-10,4,69,0.6796436382229724,left,probe,ambiguous-switch,-1,0,left,left,0.198
HKS1998WRNO,2019-10-02-09-58-10,4,70,0.6362126021927372,left,both,ambiguous-switch,108,0,left,left,0.228
HKS1998WRNO,2019-10-02-09-58-10,4,71,0.6263133102356815,left,probe,biased-switch,-1,5,left,left,0.312
HKS1998WRNO,2019-10-02-09-58-10,4,72,0.5512707996641328,left,both,biased-switch,93,5,left,right,0.237
HKS1998WRNO,2019-10-02-09-58-10,4,73,0.6311353579040189,left,probe,ambiguous-switch,-1,5,left,left,0.241
HKS1998WRNO,2019-10-02-09-58-10,4,74,0.5455853777594631,left,both,ambiguous-switch,96,5,left,right,0.282
HKS1998WRNO,2019-10-02-09-58-10,4,75,0.5716568776281237,left,probe,ambiguous-switch,-1,-30,left,left,0.189
HKS1998WRNO,2019-10-02-09-58-10,4,76,0.5836199623774861,left,both,ambiguous-switch,109,-30,left,left,0.238
HKS1998WRNO,2019-10-02-09-58-10,4,77,0.53733997287586,right,probe,ambiguous-switch,-1,40,left,left,0.266
HKS1998WRNO,2019-10-02-09-58-10,4,78,0.5562202146863189,right,both,ambiguous-switch,91,40,left,left,0.234
HKS1998WRNO,2019-10-02-09-58-10,4,79,0.5376813284172661,left,probe,biased-switch,-1,0,left,left,0.294
HKS1998WRNO,2019-10-02-09-58-10,4,80,0.560101265426787,left,both,biased-switch,98,0,left,right,0.21
HKS1998WRNO,2019-10-02-09-58-10,5,1,0.5707501989294459,left,probe,ambiguous-switch,-1,20,right,right,0.217
HKS1998WRNO,2019-10-02-09-58-10,5,2,0.6886370600288327,left,both,ambiguous-switch,101,20,right,left,0.453
HKS1998WRNO,2019-10-02-09-58-10,5,3,0.675649077114803,left,probe,ambiguous-switch,-1,40,left,left,0.512
HKS1998WRNO,2019-10-02-09-58-10,5,4,0.5468324657936289,left,both,ambiguous-switch,101,40,left,left,0.261
HKS1998WRNO,2019-10-02-09-58-10,5,5,0.5498507778173952,left,probe,biased-switch,-1,20,left,left,0.308
HKS1998WRNO,2019-10-02-09-58-10,5,6,0.6137744413900241,left,both,biased-switch,98,20,left,right,0.206
HKS1998WRNO,2019-10-02-09-58-10,5,7,0.5333564519658092,left,probe,ambiguous-switch,-1,30,left,left,0.255
HKS1998WRNO,2019-10-02-09-58-10,5,8,0.6855837955156989,left,both,ambiguous-switch,100,30,left,right,0.201
HKS1998WRNO,2019-10-02-09-58-10,5,9,0.5317580341571461,left,probe,biased-switch,-1,-20,left,left,0.219
HKS1998WRNO,2019-10-02-09-58-10,5,10,0.5535602046840681,left,both,biased-switch,91,-20,left,left,0.208
HKS1998WRNO,2019-10-02-09-58-10,5,11,0.5917071369406386,left,probe,biased-switch,-1,10,left,left,0.217
HKS1998WRNO,2019-10-02-09-58-10,5,12,0.639916566238026,left,both,biased-switch,99,10,left,right,0.183
HKS1998WRNO,2019-10-02-09-58-10,5,13,0.6656752709570815,right,probe,biased-switch,-1,5,left,left,0.246
HKS1998WRNO,2019-10-02-09-58-10,5,14,0.6383995600330311,right,both,biased-switch,96,5,left,right,0.183
HKS1998WRNO,2019-10-02-09-58-10,5,15,0.5371625518051325,left,probe,ambiguous-switch,-1,-20,left,left,0.198
HKS1998WRNO,2019-10-02-09-58-10,5,16,0.5781676537970766,left,both,ambiguous-switch,98,-20,left,left,0.216
HKS1998WRNO,2019-10-02-09-58-10,5,17,0.6062411011465587,left,probe,ambiguous-switch,-1,5,left,left,0.193
HKS1998WRNO,2019-10-02-09-58-10,5,18,0.6805862616324754,left,both,ambiguous-switch,100,5,left,right,0.194
HKS1998WRNO,2019-10-02-09-58-10,5,19,0.5092613489714347,right,probe,biased-switch,-1,-10,left,left,0.202
HKS1998WRNO,2019-10-02-09-58-10,5,20,0.684552921160561,right,both,biased-switch,97,-10,left,right,0.249
HKS1998WRNO,2019-10-02-09-58-10,5,21,0.5758763780523042,left,probe,biased-switch,-1,0,left,left,0.213
HKS1998WRNO,2019-10-02-09-58-10,5,22,0.5019414417850828,left,both,biased-switch,99,0,left,right,0.249
HKS1998WRNO,2019-10-02-09-58-10,5,23,0.526192588556401,left,probe,ambiguous-switch,-1,10,left,left,0.197
HKS1998WRNO,2019-10-02-09-58-10,5,24,0.6163448971137194,left,both,ambiguous-switch,92,10,left,right,0.193
HKS1998WRNO,2019-10-02-09-58-10,5,25,0.6987251191935117,left,probe,ambiguous-switch,-1,-30,right,right,0.209
HKS1998WRNO,2019-10-02-09-58-10,5,26,0.6612985514132577,left,both,ambiguous-switch,102,-30,right,right,0.217
HKS1998WRNO,2019-10-02-09-58-10,5,27,0.6386963754495832,right,probe,ambiguous-switch,-1,-5,left,left,0.264
HKS1998WRNO,2019-10-02-09-58-10,5,28,0.518058576690289,right,both,ambiguous-switch,98,-5,left,right,0.235
HKS1998WRNO,2019-10-02-09-58-10,5,29,0.6410785058354624,left,probe,ambiguous-switch,-1,-10,left,left,0.22
HKS1998WRNO,2019-10-02-09-58-10,5,30,0.5748223424477392,left,both,ambiguous-switch,94,-10,left,right,0.22
HKS1998WRNO,2019-10-02-09-58-10,5,31,0.5510545758787675,right,probe,ambiguous-switch,-1,0,left,left,0.213
HKS1998WRNO,2019-10-02-09-58-10,5,32,0.609492137676685,right,both,ambiguous-switch,108,0,left,right,0.208
HKS1998WRNO,2019-10-02-09-58-10,5,33,0.6771514138996763,right,probe,biased-switch,-1,40,right,right,0.186
HKS1998WRNO,2019-10-02-09-58-10,5,34,0.5762220811392962,right,both,biased-switch,102,40,right,left,0.224
HKS1998WRNO,2019-10-02-09-58-10,5,35,0.5535278937443016,right,probe,biased-switch,-1,30,left,left,0.184
HKS1998WRNO,2019-10-02-09-58-10,5,36,0.6813313371582358,right,both,biased-switch,91,30,left,right,0.277
HKS1998WRNO,2019-10-02-09-58-10,5,37,0.5669707807196137,right,probe,biased-switch,-1,-5,right,right,0.259
HKS1998WRNO,2019-10-02-09-58-10,5,38,0.5428829433878426,right,both,biased-switch,91,-5,right,left,0.222
HKS1998WRNO,2019-10-02-09-58-10,5,39,0.5030493385898331,right,probe,biased-switch,-1,-30,left,left,0.215
HKS1998WRNO,2019-10-02-09-58-10,5,40,0.5229029016997887,right,both,biased-switch,92,-30,left,left,0.241
HKS1998WRNO,2019-10-02-09-58-10,5,41,0.6153563897409888,left,probe,ambiguous-switch,-1,20,right,right,0.232
HKS1998WRNO,2019-10-02-09-58-10,5,42,0.5383370819665259,left,both,ambiguous-switch,99,20,right,left,0.197
HKS1998WRNO,2019-10-02-09-58-10,5,43,0.5186749443396738,right,probe,ambiguous-switch,-1,40,right,right,0.332
HKS1998WRNO,2019-10-02-09-58-10,5,44,0.6222488714406562,right,both,ambiguous-switch,100,40,right,left,0.219
HKS1998WRNO,2019-10-02-09-58-10,5,45,0.5858291366508666,right,probe,biased-switch,-1,20,right,right,0.25
HKS1998WRNO,2019-10-02-09-58-10,5,46,0.6968003215770432,right,both,biased-switch,92,20,right,left,0.258
HKS1998WRNO,2019-10-02-09-58-10,5,47,0.5567012555777341,left,probe,ambiguous-switch,-1,30,right,right,0.219
HKS1998WRNO,2019-10-02-09-58-10,5,48,0.6873792995001933,left,both,ambiguous-switch,94,30,right,left,0.198
HKS1998WRNO,2019-10-02-09-58-10,5,49,0.5909277359280809,left,probe,biased-switch,-1,-20,right,right,0.192
HKS1998WRNO,2019-10-02-09-58-10,5,50,0.6843914758712818,left,both,biased-switch,99,-20,right,right,0.204
HKS1998WRNO,2019-10-02-09-58-10,5,51,0.5279629541115223,right,probe,biased-switch,-1,10,left,left,0.197
HKS1998WRNO,2019-10-02-09-58-10,5,52,0.5266712795109856,right,both,biased-switch,100,10,left,right,0.21
HKS1998WRNO,2019-10-02-09-58-10,5,53,0.6481830360843309,left,probe,biased-switch,-1,5,left,left,0.453
HKS1998WRNO,2019-10-02-09-58-10,5,54,0.6750794255045545,left,both,biased-switch,98,5,left,right,0.27
HKS1998WRNO,2019-10-02-09-58-10,5,55,0.6897537609054237,left,probe,ambiguous-switch,-1,-20,left,left,0.251
HKS1998WRNO,2019-10-02-09-58-10,5,56,0.5482706603782641,left,both,ambiguous-switch,100,-20,left,right,0.26
HKS1998WRNO,2019-10-02-09-58-10,5,57,0.6989010841623675,left,probe,ambiguous-switch,-1,5,right,right,0.309
HKS1998WRNO,2019-10-02-09-58-10,5,58,0.6197992365368163,left,both,ambiguous-switch,94,5,right,left,0.24
HKS1998WRNO,2019-10-02-09-58-10,5,59,0.6032031729410606,right,probe,biased-switch,-1,-10,right,right,0.4
HKS1998WRNO,2019-10-02-09-58-10,5,60,0.6668600302672547,right,both,biased-switch,107,-10,right,right,0.338
HKS1998WRNO,2019-10-02-09-58-10,5,61,0.6092364117267155,right,probe,biased-switch,-1,0,right,right,0.374
HKS1998WRNO,2019-10-02-09-58-10,5,62,0.6487376240880315,right,both,biased-switch,106,0,right,left,0.347
HKS1998WRNO,2019-10-02-09-58-10,5,63,0.6012818918968968,left,probe,ambiguous-switch,-1,10,right,right,0.246
HKS1998WRNO,2019-10-02-09-58-10,5,64,0.6162082189418715,left,both,ambiguous-switch,103,10,right,left,0.253
HKS1998WRNO,2019-10-02-09-58-10,5,65,0.6897766909260501,right,probe,ambiguous-switch,-1,-30,right,right,0.26
HKS1998WRNO,2019-10-02-09-58-10,5,66,0.5331682064433004,right,both,ambiguous-switch,108,-30,right,right,0.386
HKS1998WRNO,2019-10-02-09-58-10,5,67,0.6218204819198292,left,probe,ambiguous-switch,-1,-5,right,right,0.334
HKS1998WRNO,2019-10-02-09-58-10,5,68,0.6573332319498646,left,both,ambiguous-switch,110,-5,right,left,0.288
HKS1998WRNO,2019-10-02-09-58-10,5,69,0.5429087676866401,right,probe,ambiguous-switch,-1,-10,right,right,0.362
HKS1998WRNO,2019-10-02-09-58-10,5,70,0.6824033019574993,right,both,ambiguous-switch,94,-10,right,right,0.287
HKS1998WRNO,2019-10-02-09-58-10,5,71,0.5543499642527746,right,probe,ambiguous-switch,-1,0,right,right,0.225
HKS1998WRNO,2019-10-02-09-58-10,5,72,0.5405931180718269,right,both,ambiguous-switch,99,0,right,right,0.239
HKS1998WRNO,2019-10-02-09-58-10,5,73,0.5215765629245313,left,probe,biased-switch,-1,40,right,right,0.275
HKS1998WRNO,2019-10-02-09-58-10,5,74,0.624443274401141,left,both,biased-switch,105,40,right,right,0.244
HKS1998WRNO,2019-10-02-09-58-10,5,75,0.6167583530553882,left,probe,biased-switch,-1,30,right,right,0.282
HKS1998WRNO,2019-10-02-09-58-10,5,76,0.6451009002935147,left,both,biased-switch,107,30,right,left,0.225
HKS1998WRNO,2019-10-02-09-58-10,5,77,0.6638523632217022,right,probe,biased-switch,-1,-5,right,right,0.21
HKS1998WRNO,2019-10-02-09-58-10,5,78,0.5088526627987291,right,both,biased-switch,104,-5,right,right,0.26
HKS1998WRNO,2019-10-02-09-58-10,5,79,0.6178611554932821,left,probe,biased-switch,-1,-30,right,right,0.214
HKS1998WRNO,2019-10-02-09-58-10,5,80,0.575376168183964,left,both,biased-switch,101,-30,right,right,0.203
HKS1998WRNO,2019-10-02-09-58-10,6,1,0.5046937816423607,right,probe,ambiguous-switch,-1,-10,right,right,0.241
HKS1998WRNO,2019-10-02-09-58-10,6,2,0.66526769822534,right,both,ambiguous-switch,92,-10,right,right,0.262
HKS1998WRNO,2019-10-02-09-58-10,6,3,0.628720252949537,left,probe,biased-switch,-1,40,right,right,0.666
HKS1998WRNO,2019-10-02-09-58-10,6,4,0.6603903043839708,left,both,biased-switch,105,40,right,right,0.266
HKS1998WRNO,2019-10-02-09-58-10,6,5,0.6348974453727273,left,probe,biased-switch,-1,0,right,right,0.328
HKS1998WRNO,2019-10-02-09-58-10,6,6,0.5708737852315638,left,both,biased-switch,108,0,right,left,0.245
HKS1998WRNO,2019-10-02-09-58-10,6,7,0.6550196046776605,right,probe,ambiguous-switch,-1,30,right,right,0.252
HKS1998WRNO,2019-10-02-09-58-10,6,8,0.5469663430208951,right,both,ambiguous-switch,99,30,right,right,0.25
HKS1998WRNO,2019-10-02-09-58-10,6,9,0.6203571608547889,left,probe,biased-switch,-1,20,right,right,0.368
HKS1998WRNO,2019-10-02-09-58-10,6,10,0.6394556127596014,left,both,biased-switch,99,20,right,left,0.26
HKS1998WRNO,2019-10-02-09-58-10,6,11,0.6015014076214671,right,probe,biased-switch,-1,-5,right,right,0.308
HKS1998WRNO,2019-10-02-09-58-10,6,12,0.6323016750250648,right,both,biased-switch,90,-5,right,right,0.235
HKS1998WRNO,2019-10-02-09-58-10,6,13,0.5332951806530185,right,probe,biased-switch,-1,5,right,right,0.254
HKS1998WRNO,2019-10-02-09-58-10,6,14,0.6139555463162917,right,both,biased-switch,92,5,right,left,0.335
HKS1998WRNO,2019-10-02-09-58-10,6,15,0.5607153304657441,left,probe,ambiguous-switch,-1,-30,right,right,0.261
HKS1998WRNO,2019-10-02-09-58-10,6,16,0.5152272141442242,left,both,ambiguous-switch,95,-30,right,right,0.329
HKS1998WRNO,2019-10-02-09-58-10,6,17,0.6903778759134456,right,probe,biased-switch,-1,30,right,right,0.282
HKS1998WRNO,2019-10-02-09-58-10,6,18,0.598617271725086,right,both,biased-switch,98,30,right,left,0.253
HKS1998WRNO,2019-10-02-09-58-10,6,19,0.5650370114578771,right,probe,ambiguous-switch,-1,-20,right,right,0.262
HKS1998WRNO,2019-10-02-09-58-10,6,20,0.6456456503258283,right,both,ambiguous-switch,99,-20,right,right,0.298
HKS1998WRNO,2019-10-02-09-58-10,6,21,0.5061532518155584,left,probe,ambiguous-switch,-1,5,right,right,0.258
HKS1998WRNO,2019-10-02-09-58-10,6,22,0.5731438043078436,left,both,ambiguous-switch,100,5,right,left,0.242
HKS1998WRNO,2019-10-02-09-58-10,6,23,0.6348113210361865,right,probe,ambiguous-switch,-1,0,right,right,0.241
HKS1998WRNO,2019-10-02-09-58-10,6,24,0.558165562112223,right,both,ambiguous-switch,103,0,right,left,0.255
HKS1998WRNO,2019-10-02-09-58-10,6,25,0.6102402751240538,left,probe,biased-switch,-1,10,left,left,0.213
HKS1998WRNO,2019-10-02-09-58-10,6,26,0.5222023742033282,left,both,biased-switch,91,10,left,right,0.314
HKS1998WRNO,2019-10-02-09-58-10,6,27,0.6138882972715881,right,probe,ambiguous-switch,-1,-5,left,left,0.224
HKS1998WRNO,2019-10-02-09-58-10,6,28,0.5013673996943541,right,both,ambiguous-switch,95,-5,left,right,0.226
HKS1998WRNO,2019-10-02-09-58-10,6,29,0.6169049765349321,left,probe,biased-switch,-1,-10,left,left,0.227
HKS1998WRNO,2019-10-02-09-58-10,6,30,0.6437964728525327,left,both,biased-switch,107,-10,left,left,0.247
HKS1998WRNO,2019-10-02-09-58-10,6,31,0.6703080501268882,right,probe,biased-switch,-1,-20,right,right,0.289
HKS1998WRNO,2019-10-02-09-58-10,6,32,0.5113695296951133,right,both,biased-switch,102,-20,right,left,0.316
HKS1998WRNO,2019-10-02-09-58-10,6,33,0.5238317065221587,left,probe,ambiguous-switch,-1,40,right,right,0.233
HKS1998WRNO,2019-10-02-09-58-10,6,34,0.5301982834370633,left,both,ambiguous-switch,100,40,right,left,0.228
HKS1998WRNO,2019-10-02-09-58-10,6,35,0.503542272785063,right,probe,ambiguous-switch,-1,10,left,left,0.198
HKS1998WRNO,2019-10-02-09-58-10,6,36,0.5384678366215777,right,both,ambiguous-switch,104,10,left,right,0.261
HKS1998WRNO,2019-10-02-09-58-10,6,37,0.6097306534132083,right,probe,ambiguous-switch,-1,20,left,left,0.247
HKS1998WRNO,2019-10-02-09-58-10,6,38,0.5973361102623257,right,both,ambiguous-switch,96,20,left,left,0.227
HKS1998WRNO,2019-10-02-09-58-10,6,39,0.6508945117873873,right,probe,biased-switch,-1,-30,left,left,0.214
HKS1998WRNO,2019-10-02-09-58-10,6,40,0.5343350873853936,right,both,biased-switch,93,-30,left,left,0.244
HKS1998WRNO,2019-10-02-09-58-10,6,41,0.6247222196708568,right,probe,ambiguous-switch,-1,-10,left,left,0.263
HKS1998WRNO,2019-10-02-09-58-10,6,42,0.6512060963881615,right,both,ambiguous-switch,105,-10,left,left,0.201
HKS1998WRNO,2019-10-02-09-58-10,6,43,0.6205212478952752,right,probe,biased-switch,-1,40,left,left,0.259
HKS1998WRNO,2019-10-02-09-58-10,6,44,0.5822414356490488,right,both,biased-switch,98,40,left,left,0.262
HKS1998WRNO,2019-10-02-09-58-10,6,45,0.5277589855894004,left,probe,biased-switch,-1,0,left,left,0.261
HKS1998WRNO,2019-10-02-09-58-10,6,46,0.6924859769827961,left,both,biased-switch,91,0,left,right,0.301
HKS1998WRNO,2019-10-02-09-58-10,6,47,0.6615506434264071,right,probe,ambiguous-switch,-1,30,left,left,0.221
HKS1998WRNO,2019-10-02-09-58-10,6,48,0.59010071679483,right,both,ambiguous-switch,109,30,left,left,0.227
HKS1998WRNO,2019-10-02-09-58-10,6,49,0.528275845300521,left,probe,biased-switch,-1,20,left,left,0.274
HKS1998WRNO,2019-10-02-09-58-10,6,50,0.6958581068058066,left,both,biased-switch,91,20,left,right,0.248
HKS1998WRNO,2019-10-02-09-58-10,6,51,0.5045078927243666,left,probe,biased-switch,-1,-5,left,left,0.254
HKS1998WRNO,2019-10-02-09-58-10,6,52,0.572691384989155,left,both,biased-switch,105,-5,left,right,0.303
HKS1998WRNO,2019-10-02-09-58-10,6,53,0.641051169321236,left,probe,biased-switch,-1,5,left,left,0.188
HKS1998WRNO,2019-10-02-09-58-10,6,54,0.6921803949514567,left,both,biased-switch,93,5,left,right,0.296
HKS1998WRNO,2019-10-02-09-58-10,6,55,0.5860513287792412,left,probe,ambiguous-switch,-1,-30,right,right,0.221
HKS1998WRNO,2019-10-02-09-58-10,6,56,0.616450939178671,left,both,ambiguous-switch,104,-30,right,right,0.253
HKS1998WRNO,2019-10-02-09-58-10,6,57,0.61600307516458,left,probe,biased-switch,-1,30,right,right,0.246
HKS1998WRNO,2019-10-02-09-58-10,6,58,0.5067480675770362,left,both,biased-switch,108,30,right,left,0.224
HKS1998WRNO,2019-10-02-09-58-10,6,59,0.5533642879718448,right,probe,ambiguous-switch,-1,-20,left,left,0.211
HKS1998WRNO,2019-10-02-09-58-10,6,60,0.6882712847483428,right,both,ambiguous-switch,105,-20,left,left,0.365
HKS1998WRNO,2019-10-02-09-58-10,6,61,0.6410283497809797,right,probe,ambiguous-switch,-1,5,left,left,0.191
HKS1998WRNO,2019-10-02-09-58-10,6,62,0.5948625515693636,right,both,ambiguous-switch,102,5,left,right,0.26
HKS1998WRNO,2019-10-02-09-58-10,6,63,0.5667498267393527,right,probe,ambiguous-switch,-1,0,left,left,0.253
HKS1998WRNO,2019-10-02-09-58-10,6,64,0.6323147773509018,right,both,ambiguous-switch,107,0,left,left,0.26
HKS1998WRNO,2019-10-02-09-58-10,6,65,0.5261575178703363,right,probe,biased-switch,-1,10,left,left,0.228
HKS1998WRNO,2019-10-02-09-58-10,6,66,0.5876477782525991,right,both,biased-switch,96,10,left,right,0.274
HKS1998WRNO,2019-10-02-09-58-10,6,67,0.6668833625670656,left,probe,ambiguous-switch,-1,-5,left,left,0.265
HKS1998WRNO,2019-10-02-09-58-10,6,68,0.656731157091207,left,both,ambiguous-switch,94,-5,left,right,0.348
HKS1998WRNO,2019-10-02-09-58-10,6,69,0.5402020424380805,right,probe,biased-switch,-1,-10,left,left,0.22
HKS1998WRNO,2019-10-02-09-58-10,6,70,0.5959067168100931,right,both,biased-switch,102,-10,left,left,0.283
HKS1998WRNO,2019-10-02-09-58-10,6,71,0.6669701164117116,right,probe,biased-switch,-1,-20,left,left,0.248
HKS1998WRNO,2019-10-02-09-58-10,6,72,0.5632893507294372,right,both,biased-switch,90,-20,left,right,0.38
HKS1998WRNO,2019-10-02-09-58-10,6,73,0.6633019056501104,right,probe,ambiguous-switch,-1,40,left,left,0.233
HKS1998WRNO,2019-10-02-09-58-10,6,74,0.6174873069446469,right,both,ambiguous-switch,109,40,left,right,0.244
HKS1998WRNO,2019-10-02-09-58-10,6,75,0.6043237944383416,left,probe,ambiguous-switch,-1,10,left,left,0.206
HKS1998WRNO,2019-10-02-09-58-10,6,76,0.6809974581681704,left,both,ambiguous-switch,96,10,left,right,0.328
HKS1998WRNO,2019-10-02-09-58-10,6,77,0.6280763418788976,left,probe,ambiguous-switch,-1,20,right,right,0.232
HKS1998WRNO,2019-10-02-09-58-10,6,78,0.5196265533847703,left,both,ambiguous-switch,107,20,right,left,0.223
HKS1998WRNO,2019-10-02-09-58-10,6,79,0.6654065384783134,left,probe,biased-switch,-1,-30,left,left,0.267
HKS1998WRNO,2019-10-02-09-58-10,6,80,0.5507315275763205,left,both,biased-switch,102,-30,left,left,0.349
HKS1998WRNO,2019-10-02-09-58-10,7,1,0.5641070452639128,right,probe,ambiguous-switch,-1,-20,right,right,0.212
HKS1998WRNO,2019-10-02-09-58-10,7,2,0.5587020515484468,right,both,ambiguous-switch,95,-20,right,right,0.238
HKS1998WRNO,2019-10-02-09-58-10,7,3,0.5433039673802111,left,probe,biased-switch,-1,40,right,right,0.206
HKS1998WRNO,2019-10-02-09-58-10,7,4,0.6806742819775821,left,both,biased-switch,99,40,right,left,0.261
HKS1998WRNO,2019-10-02-09-58-10,7,5,0.5612078960561632,left,probe,ambiguous-switch,-1,5,left,left,0.253
HKS1998WRNO,2019-10-02-09-58-10,7,6,0.5621090948034814,left,both,ambiguous-switch,105,5,left,right,0.215
HKS1998WRNO,2019-10-02-09-58-10,7,7,0.6573045110233768,right,probe,biased-switch,-1,20,right,right,0.21
HKS1998WRNO,2019-10-02-09-58-10,7,8,0.5186216926339394,right,both,biased-switch,102,20,right,right,0.266
HKS1998WRNO,2019-10-02-09-58-10,7,9,0.6535785816202193,left,probe,ambiguous-switch,-1,-10,right,right,0.301
HKS1998WRNO,2019-10-02-09-58-10,7,10,0.6508568989861789,left,both,ambiguous-switch,106,-10,right,left,0.23
HKS1998WRNO,2019-10-02-09-58-10,7,11,0.5776693054724424,right,probe,ambiguous-switch,-1,30,right,right,0.171
HKS1998WRNO,2019-10-02-09-58-10,7,12,0.5163378583080483,right,both,ambiguous-switch,108,30,right,left,0.213
HKS1998WRNO,2019-10-02-09-58-10,7,13,0.5912225609895622,left,probe,ambiguous-switch,-1,40,right,right,0.279
HKS1998WRNO,2019-10-02-09-58-10,7,14,0.5052787032254806,left,both,ambiguous-switch,93,40,right,left,0.239
HKS1998WRNO,2019-10-02-09-58-10,7,15,0.6120254729246676,left,probe,ambiguous-switch,-1,20,right,right,0.199
HKS1998WRNO,2019-10-02-09-58-10,7,16,0.574327670837423,left,both,ambiguous-switch,96,20,right,left,0.271
HKS1998WRNO,2019-10-02-09-58-10,7,17,0.6661247606684658,left,probe,biased-switch,-1,-5,right,right,0.276
HKS1998WRNO,2019-10-02-09-58-10,7,18,0.5894255536460768,left,both,biased-switch,100,-5,right,left,0.232
HKS1998WRNO,2019-10-02-09-58-10,7,19,0.5492571253466739,right,probe,biased-switch,-1,30,right,right,0.209
HKS1998WRNO,2019-10-02-09-58-10,7,20,0.5781473052838008,right,both,biased-switch,106,30,right,left,0.239
HKS1998WRNO,2019-10-02-09-58-10,7,21,0.6524287892608093,right,probe,biased-switch,-1,-30,left,left,0.214
HKS1998WRNO,2019-10-02-09-58-10,7,22,0.5051122374900809,right,both,biased-switch,98,-30,left,left,0.286
HKS1998WRNO,2019-10-02-09-58-10,7,23,0.6816666570705292,left,probe,biased-switch,-1,-20,left,left,0.283
HKS1998WRNO,2019-10-02-09-58-10,7,24,0.6216143204464547,left,both,biased-switch,106,-20,left,left,0.292
HKS1998WRNO,2019-10-02-09-58-10,7,25,0.5877827372366602,left,probe,biased-switch,-1,5,left,left,0.314
HKS1998WRNO,2019-10-02-09-58-10,7,26,0.6583112837738884,left,both,biased-switch,101,5,left,right,0.273
HKS1998WRNO,2019-10-02-09-58-10,7,27,0.5242105636768786,left,probe,biased-switch,-1,10,right,right,0.244
HKS1998WRNO,2019-10-02-09-58-10,7,28,0.6377376837411334,left,both,biased-switch,106,10,right,left,0.237
HKS1998WRNO,2019-10-02-09-58-10,7,29,0.6048426914539224,right,probe,ambiguous-switch,-1,-30,left,left,0.27
HKS1998WRNO,2019-10-02-09-58-10,7,30,0.6659572317284603,right,both,ambiguous-switch,97,-30,left,left,0.238
HKS1998WRNO,2019-10-02-09-58-10,7,31,0.5239941005572898,right,probe,ambiguous-switch,-1,10,left,left,0.233
HKS1998WRNO,2019-10-02-09-58-10,7,32,0.6347833927272858,right,both,ambiguous-switch,109,10,left,right,0.259
HKS1998WRNO,2019-10-02-09-58-10,7,33,0.6536745243710439,left,probe,ambiguous-switch,-1,0,left,left,0.228
HKS1998WRNO,2019-10-02-09-58-10,7,34,0.6831208176282427,left,both,ambiguous-switch,100,0,left,right,0.246
HKS1998WRNO,2019-10-02-09-58-10,7,35,0.6002418108876098,left,probe,biased-switch,-1,-10,right,right,0.225
HKS1998WRNO,2019-10-02-09-58-10,7,36,0.612153589248087,left,both,biased-switch,93,-10,right,left,0.296
HKS1998WRNO,2019-10-02-09-58-10,7,37,0.6833855315472741,right,probe,ambiguous-switch,-1,-5,left,left,0.26
HKS1998WRNO,2019-10-02-09-58-10,7,38,0.5735032809577976,right,both,ambiguous-switch,110,-5,left,right,0.203
HKS1998WRNO,2019-10-02-09-58-10,7,39,0.6544717529912085,left,probe,biased-switch,-1,0,left,left,0.281
HKS1998WRNO,2019-10-02-09-58-10,7,40,0.6569908418789169,left,both,biased-switch,95,0,left,right,0.179
HKS1998WRNO,2019-10-02-09-58-10,7,41,0.5096792526210565,left,probe,ambiguous-switch,-1,-20,right,right,0.208
HKS1998WRNO,2019-10-02-09-58-10,7,42,0.680185081139501,left,both,ambiguous-switch,92,-20,right,right,0.19
HKS1998WRNO,2019-10-02-09-58-10,7,43,0.6175960292227275,right,probe,biased-switch,-1,40,left,left,0.206
HKS1998WRNO,2019-10-02-09-58-10,7,44,0.5361631048399566,right,both,biased-switch,101,40,left,right,0.214
HKS1998WRNO,2019-10-02-09-58-10,7,45,0.5395044476041608,left,probe,ambiguous-switch,-1,5,left,left,0.238
HKS1998WRNO,2019-10-02-09-58-10,7,46,0.5620874144868998,left,both,ambiguous-switch,105,5,left,right,0.203
HKS1998WRNO,2019-10-02-09-58-10,7,47,0.6936961617958295,left,probe,biased-switch,-1,20,left,left,0.215
HKS1998WRNO,2019-10-02-09-58-10,7,48,0.6042291285002,left,both,biased-switch,105,20,left,right,0.215
HKS1998WRNO,2019-10-02-09-58-10,7,49,0.6067814069700168,right,probe,ambiguous-switch,-1,-10,left,left,0.224
HKS1998WRNO,2019-10-02-09-58-10,7,50,0.5239190571631962,right,both,ambiguous-switch,105,-10,left,right,0.229
HKS1998WRNO,2019-10-02-09-58-10,7,51,0.5363259435056444,left,probe,ambiguous-switch,-1,30,right,right,0.251
HKS1998WRNO,2019-10-02-09-58-10,7,52,0.614641968768687,left,both,ambiguous-switch,104,30,right,left,0.248
HKS1998WRNO,2019-10-02-09-58-10,7,53,0.6255275852339166,left,probe,ambiguous-switch,-1,40,right,right,0.202
HKS1998WRNO,2019-10-02-09-58-10,7,54,0.5622733005541709,left,both,ambiguous-switch,109,40,right,left,0.207
HKS1998WRNO,2019-10-02-09-58-10,7,55,0.5651327953440013,right,probe,ambiguous-switch,-1,20,right,right,0.233
HKS1998WRNO,2019-10-02-09-58-10,7,56,0.6131570221631443,right,both,ambiguous-switch,92,20,right,left,0.234
HKS1998WRNO,2019-10-02-09-58-10,7,57,0.547697177498511,right,probe,biased-switch,-1,-5,left,left,0.212
HKS1998WRNO,2019-10-02-09-58-10,7,58,0.6732105372061388,right,both,biased-switch,99,-5,left,right,0.278
HKS1998WRNO,2019-10-02-09-58-10,7,59,0.6689309506829693,right,probe,biased-switch,-1,30,right,right,0.225
HKS1998WRNO,2019-10-02-09-58-10,7,60,0.5383157037076264,right,both,biased-switch,100,30,right,left,0.228
HKS1998WRNO,2019-10-02-09-58-10,7,61,0.6370556389730235,left,probe,biased-switch,-1,-30,right,right,0.211
HKS1998WRNO,2019-10-02-09-58-10,7,62,0.6388751012271728,left,both,biased-switch,98,-30,right,right,0.2
HKS1998WRNO,2019-10-02-09-58-10,7,63,0.582562937509708,left,probe,biased-switch,-1,-20,right,right,0.224
HKS1998WRNO,2019-10-02-09-58-10,7,64,0.5531822538028773,left,both,biased-switch,95,-20,right,right,0.208
HKS1998WRNO,2019-10-02-09-58-10,7,65,0.6887186687350072,left,probe,biased-switch,-1,5,right,right,0.207
HKS1998WRNO,2019-10-02-09-58-10,7,66,0.6373532762171442,left,both,biased-switch,94,5,right,left,0.26
HKS1998WRNO,2019-10-02-09-58-10,7,67,0.6575272840577134,left,probe,biased-switch,-1,10,right,right,0.223
HKS1998WRNO,2019-10-02-09-58-10,7,68,0.6940050069605597,left,both,biased-switch,90,10,right,left,0.219
HKS1998WRNO,2019-10-02-09-58-10,7,69,0.6852384526798078,left,probe,ambiguous-switch,-1,-30,left,left,0.249
HKS1998WRNO,2019-10-02-09-58-10,7,70,0.65099214011923,left,both,ambiguous-switch,109,-30,left,left,0.248
HKS1998WRNO,2019-10-02-09-58-10,7,71,0.5896115323430038,right,probe,ambiguous-switch,-1,10,right,right,0.237
HKS1998WRNO,2019-10-02-09-58-10,7,72,0.5896359155581071,right,both,ambiguous-switch,92,10,right,left,0.256
HKS1998WRNO,2019-10-02-09-58-10,7,73,0.6900867929196417,right,probe,ambiguous-switch,-1,0,right,right,0.309
HKS1998WRNO,2019-10-02-09-58-10,7,74,0.6182350228674494,right,both,ambiguous-switch,102,0,right,left,0.288
HKS1998WRNO,2019-10-02-09-58-10,7,75,0.5814667305318262,right,probe,biased-switch,-1,-10,right,right,0.26
HKS1998WRNO,2019-10-02-09-58-10,7,76,0.5599438480547506,right,both,biased-switch,109,-10,right,right,0.377
HKS1998WRNO,2019-10-02-09-58-10,7,77,0.6038141364540311,left,probe,ambiguous-switch,-1,-5,right,right,0.463
HKS1998WRNO,2019-10-02-09-58-10,7,78,0.6308003782729938,left,both,ambiguous-switch,93,-5,right,right,0.266
HKS1998WRNO,2019-10-02-09-58-10,7,79,0.5508207852501407,right,probe,biased-switch,-1,0,right,right,0.272
HKS1998WRNO,2019-10-02-09-58-10,7,80,0.5571848042534893,right,both,biased-switch,105,0,right,left,0.352
HKS1998WRNO,2019-10-02-09-58-10,8,1,0.6135284854117644,right,probe,biased-switch,-1,40,right,right,0.366
HKS1998WRNO,2019-10-02-09-58-10,8,2,0.5561945716491419,right,both,biased-switch,106,40,right,left,0.233
HKS1998WRNO,2019-10-02-09-58-10,8,3,0.5236461168618654,left,probe,ambiguous-switch,-1,0,right,right,0.248
HKS1998WRNO,2019-10-02-09-58-10,8,4,0.6786665826527241,left,both,ambiguous-switch,90,0,right,left,0.274
HKS1998WRNO,2019-10-02-09-58-10,8,5,0.5903333601011208,right,probe,biased-switch,-1,30,right,right,0.268
HKS1998WRNO,2019-10-02-09-58-10,8,6,0.5872152883025903,right,both,biased-switch,110,30,right,left,0.3
HKS1998WRNO,2019-10-02-09-58-10,8,7,0.6774520113290885,left,probe,ambiguous-switch,-1,10,right,right,0.191
HKS1998WRNO,2019-10-02-09-58-10,8,8,0.6841463629433528,left,both,ambiguous-switch,90,10,right,left,0.227
HKS1998WRNO,2019-10-02-09-58-10,8,9,0.5428938032798278,right,probe,ambiguous-switch,-1,40,right,right,0.18
HKS1998WRNO,2019-10-02-09-58-10,8,10,0.6722253480434578,right,both,ambiguous-switch,99,40,right,left,0.231
HKS1998WRNO,2019-10-02-09-58-10,8,11,0.68616981771217,left,probe,biased-switch,-1,-5,right,right,0.248
HKS1998WRNO,2019-10-02-09-58-10,8,12,0.6915611804028416,left,both,biased-switch,91,-5,right,left,0.264
HKS1998WRNO,2019-10-02-09-58-10,8,13,0.5250936928182206,left,probe,ambiguous-switch,-1,-30,left,left,0.22
HKS1998WRNO,2019-10-02-09-58-10,8,14,0.5070285694655446,left,both,ambiguous-switch,107,-30,left,right,0.339
HKS1998WRNO,2019-10-02-09-58-10,8,15,0.5946611585771648,right,probe,biased-switch,-1,5,right,right,0.291
HKS1998WRNO,2019-10-02-09-58-10,8,16,0.557459746324851,right,both,biased-switch,109,5,right,left,0.248
HKS1998WRNO,2019-10-02-09-58-10,8,17,0.6820908299763866,left,probe,ambiguous-switch,-1,30,right,right,0.247
HKS1998WRNO,2019-10-02-09-58-10,8,18,0.5919087252811016,left,both,ambiguous-switch,94,30,right,right,0.262
HKS1998WRNO,2019-10-02-09-58-10,8,19,0.5101165664188922,left,probe,biased-switch,-1,10,right,right,0.21
HKS1998WRNO,2019-10-02-09-58-10,8,20,0.599428618706814,left,both,biased-switch,91,10,right,left,0.225
HKS1998WRNO,2019-10-02-09-58-10,8,21,0.5514627482421408,left,probe,biased-switch,-1,-20,right,right,0.207
HKS1998WRNO,2019-10-02-09-58-10,8,22,0.5922744354395088,left,both,biased-switch,101,-20,right,right,0.231
HKS1998WRNO,2019-10-02-09-58-10,8,23,0.5213420206673568,left,probe,ambiguous-switch,-1,20,right,right,0.32
HKS1998WRNO,2019-10-02-09-58-10,8,24,0.6446843671545942,left,both,ambiguous-switch,100,20,right,left,0.183
HKS1998WRNO,2019-10-02-09-58-10,8,25,0.5957933325609329,right,probe,ambiguous-switch,-1,-5,right,right,0.206
HKS1998WRNO,2019-10-02-09-58-10,8,26,0.5946537254309282,right,both,ambiguous-switch,97,-5,right,left,0.252
HKS1998WRNO,2019-10-02-09-58-10,8,27,0.6929891893458924,right,probe,ambiguous-switch,-1,-10,right,right,0.219
HKS1998WRNO,2019-10-02-09-58-10,8,28,0.6138374404087947,right,both,ambiguous-switch,100,-10,right,right,0.269
HKS1998WRNO,2019-10-02-09-58-10,8,29,0.6465958130918146,right,probe,biased-switch,-1,20,right,right,0.257
HKS1998WRNO,2019-10-02-09-58-10,8,30,0.5626950247057906,right,both,biased-switch,101,20,right,left,0.183
HKS1998WRNO,2019-10-02-09-58-10,8,31,0.6654320369045699,left,probe,ambiguous-switch,-1,5,right,right,0.234
HKS1998WRNO,2019-10-02-09-58-10,8,32,0.5490675264119951,left,both,ambiguous-switch,104,5,right,left,0.243
HKS1998WRNO,2019-10-02-09-58-10,8,33,0.597921041745185,right,probe,biased-switch,-1,-10,right,right,0.233
HKS1998WRNO,2019-10-02-09-58-10,8,34,0.5764104435197961,right,both,biased-switch,95,-10,right,left,0.35
HKS1998WRNO,2019-10-02-09-58-10,8,35,0.5965915770751331,right,probe,ambiguous-switch,-1,-20,right,right,0.222
HKS1998WRNO,2019-10-02-09-58-10,8,36,0.6778719817597126,right,both,ambiguous-switch,101,-20,right,left,0.261
HKS1998WRNO,2019-10-02-09-58-10,8,37,0.5587349878956785,left,probe,biased-switch,-1,-30,right,right,0.152
HKS1998WRNO,2019-10-02-09-58-10,8,38,0.5453216745709591,left,both,biased-switch,94,-30,right,right,0.239
HKS1998WRNO,2019-10-02-09-58-10,8,39,0.6180640006286361,right,probe,biased-switch,-1,0,left,left,0.23
HKS1998WRNO,2019-10-02-09-58-10,8,40,0.6382678158261803,right,both,biased-switch,100,0,left,right,0.265
HKS1998WRNO,2019-10-02-09-58-10,8,41,0.5753180946409135,right,probe,biased-switch,-1,40,left,left,0.207
HKS1998WRNO,2019-10-02-09-58-10,8,42,0.5192766757304997,right,both,biased-switch,92,40,left,right,0.278
HKS1998WRNO,2019-10-02-09-58-10,8,43,0.5804217304692068,left,probe,ambiguous-switch,-1,0,left,left,0.206
HKS1998WRNO,2019-10-02-09-58-10,8,44,0.5275625983118125,left,both,ambiguous-switch,108,0,left,left,0.212
HKS1998WRNO,2019-10-02-09-58-10,8,45,0.5611300494029573,left,probe,biased-switch,-1,30,right,right,0.307
HKS1998WRNO,2019-10-02-09-58-10,8,46,0.5490478949843264,left,both,biased-switch,94,30,right,left,0.388
HKS1998WRNO,2019-10-02-09-58-10,8,47,0.5710178770539289,right,probe,ambiguous-switch,-1,10,left,left,0.256
HKS1998WRNO,2019-10-02-09-58-10,8,48,0.6508208416701785,right,both,ambiguous-switch,97,10,left,right,0.302
HKS1998WRNO,2019-10-02-09-58-10,8,49,0.5306764884845759,right,probe,ambiguous-switch,-1,40,left,left,0.257
HKS1998WRNO,2019-10-02-09-58-10,8,50,0.6282860401179782,right,both,ambiguous-switch,108,40,left,right,0.231
HKS1998WRNO,2019-10-02-09-58-10,8,51,0.5314417062333386,right,probe,biased-switch,-1,-5,right,right,0.282
HKS1998WRNO,2019-10-02-09-58-10,8,52,0.6861622215914199,right,both,biased-switch,95,-5,right,left,0.33
HKS1998WRNO,2019-10-02-09-58-10,8,53,0.6001530705704716,right,probe,ambiguous-switch,-1,-30,left,left,0.308
HKS1998WRNO,2019-10-02-09-58-10,8,54,0.5543417468305911,right,both,ambiguous-switch,94,-30,left,left,0.348
HKS1998WRNO,2019-10-02-09-58-10,8,55,0.5996623313418479,right,probe,biased-switch,-1,5,left,left,0.269
HKS1998WRNO,2019-10-02-09-58-10,8,56,0.65671309754381,right,both,biased-switch,98,5,left,right,0.248
HKS1998WRNO,2019-10-02-09-58-10,8,57,0.6995286104120838,right,probe,ambiguous-switch,-1,30,left,left,0.275
HKS1998WRNO,2019-10-02-09-58-10,8,58,0.519439954744527,right,both,ambiguous-switch,107,30,left,left,0.567
HKS1998WRNO,2019-10-02-09-58-10,8,59,0.6178957848669119,left,probe,biased-switch,-1,10,left,left,0.296
HKS1998WRNO,2019-10-02-09-58-10,8,60,0.5461429631062826,left,both,biased-switch,106,10,left,right,0.302
HKS1998WRNO,2019-10-02-09-58-10,8,61,0.5270367048584957,right,probe,biased-switch,-1,-20,left,left,0.229
HKS1998WRNO,2019-10-02-09-58-10,8,62,0.6202012561470781,right,both,biased-switch,104,-20,left,left,0.27
HKS1998WRNO,2019-10-02-09-58-10,8,63,0.5480582871434666,right,probe,ambiguous-switch,-1,20,left,left,0.241
HKS1998WRNO,2019-10-02-09-58-10,8,64,0.6971704236814789,right,both,ambiguous-switch,95,20,left,right,0.251
HKS1998WRNO,2019-10-02-09-58-10,8,65,0.6063892296289978,left,probe,ambiguous-switch,-1,-5,left,left,0.208
HKS1998WRNO,2019-10-02-09-58-10,8,66,0.6654175670561544,left,both,ambiguous-switch,109,-5,left,left,0.291
HKS1998WRNO,2019-10-02-09-58-10,8,67,0.6248579454291995,left,probe,ambiguous-switch,-1,-10,left,left,0.209
HKS1998WRNO,2019-10-02-09-58-10,8,68,0.6065063622626926,left,both,ambiguous-switch,102,-10,left,right,0.246
HKS1998WRNO,2019-10-02-09-58-10,8,69,0.5138904203178252,right,probe,biased-switch,-1,20,left,left,0.289
HKS1998WRNO,2019-10-02-09-58-10,8,70,0.6402933031181854,right,both,biased-switch,110,20,left,right,0.261
HKS1998WRNO,2019-10-02-09-58-10,8,71,0.6702891701262674,left,probe,ambiguous-switch,-1,5,left,left,0.345
HKS1998WRNO,2019-10-02-09-58-10,8,72,0.5765329673252424,left,both,ambiguous-switch,99,5,left,right,0.312
HKS1998WRNO,2019-10-02-09-58-10,8,73,0.5684450363595949,left,probe,biased-switch,-1,-10,right,right,0.302
HKS1998WRNO,2019-10-02-09-58-10,8,74,0.538837053162206,left,both,biased-switch,106,-10,right,left,0.343
HKS1998WRNO,2019-10-02-09-58-10,8,75,0.6548589139028855,left,probe,ambiguous-switch,-1,-20,left,left,0.203
HKS1998WRNO,2019-10-02-09-58-10,8,76,0.5508606913428191,left,both,ambiguous-switch,106,-20,left,right,0.391
HKS1998WRNO,2019-10-02-09-58-10,8,77,0.5683098071102044,left,probe,biased-switch,-1,-30,right,right,0.239
HKS1998WRNO,2019-10-02-09-58-10,8,78,0.64871174597058,left,both,biased-switch,103,-30,right,right,0.427
HKS1998WRNO,2019-10-02-09-58-10,8,79,0.5467998593964919,right,probe,biased-switch,-1,0,left,left,0.287
HKS1998WRNO,2019-10-02-09-58-10,8,80,0.5401138422275915,right,both,biased-switch,108,0,left,right,0.236
HKS1998WRNO,2019-10-02-09-58-10,9,1,0.6247089448306955,right,probe,biased-switch,-1,30,right,right,0.26
HKS1998WRNO,2019-10-02-09-58-10,9,2,0.692082800980802,right,both,biased-switch,107,30,right,right,0.239
HKS1998WRNO,2019-10-02-09-58-10,9,3,0.6816956818561641,right,probe,ambiguous-switch,-1,30,right,right,0.29
HKS1998WRNO,2019-10-02-09-58-10,9,4,0.511739201933588,right,both,ambiguous-switch,98,30,right,left,0.231
HKS1998WRNO,2019-10-02-09-58-10,9,5,0.5597510549719645,right,probe,biased-switch,-1,-30,right,right,0.255
HKS1998WRNO,2019-10-02-09-58-10,9,6,0.5740894880943928,right,both,biased-switch,95,-30,right,right,0.213
HKS1998WRNO,2019-10-02-09-58-10,9,7,0.5099550188945491,right,probe,ambiguous-switch,-1,5,right,right,0.205
HKS1998WRNO,2019-10-02-09-58-10,9,8,0.59837096311114,right,both,ambiguous-switch,106,5,right,left,0.259
HKS1998WRNO,2019-10-02-09-58-10,9,9,0.5247496885457705,left,probe,biased-switch,-1,0,right,right,0.163
HKS1998WRNO,2019-10-02-09-58-10,9,10,0.6163244632431862,left,both,biased-switch,99,0,right,left,0.314
HKS1998WRNO,2019-10-02-09-58-10,9,11,0.6556592786598305,left,probe,ambiguous-switch,-1,-20,right,right,0.178
HKS1998WRNO,2019-10-02-09-58-10,9,12,0.6435868961814789,left,both,ambiguous-switch,110,-20,right,right,0.206
HKS1998WRNO,2019-10-02-09-58-10,9,13,0.6494544532456153,right,probe,biased-switch,-1,20,right,right,0.233
HKS1998WRNO,2019-10-02-09-58-10,9,14,0.5325290409095934,right,both,biased-switch,101,20,right,left,0.224
HKS1998WRNO,2019-10-02-09-58-10,9,15,0.5645269965701643,left,probe,biased-switch,-1,-10,right,right,0.211
HKS1998WRNO,2019-10-02-09-58-10,9,16,0.5762712369111062,left,both,biased-switch,105,-10,right,right,0.227
HKS1998WRNO,2019-10-02-09-58-10,9,17,0.6459309280669275,left,probe,ambiguous-switch,-1,0,right,right,0.208
HKS1998WRNO,2019-10-02-09-58-10,9,18,0.6138721694206305,left,both,ambiguous-switch,105,0,right,left,0.291
HKS1998WRNO,2019-10-02-09-58-10,9,19,0.6879733374277941,right,probe,ambiguous-switch,-1,-10,right,right,0.214
HKS1998WRNO,2019-10-02-09-58-10,9,20,0.5980008676250048,right,both,ambiguous-switch,98,-10,right,right,0.299
HKS1998WRNO,2019-10-02-09-58-10,9,21,0.5307320074828913,left,probe,biased-switch,-1,40,right,right,0.36
HKS1998WRNO,2019-10-02-09-58-10,9,22,0.6447275198282973,left,both,biased-switch,95,40,right,left,0.22
HKS1998WRNO,2019-10-02-09-58-10,9,23,0.6654635269020484,right,probe,biased-switch,-1,-20,right,right,0.244
HKS1998WRNO,2019-10-02-09-58-10,9,24,0.6894476184220426,right,both,biased-switch,103,-20,right,right,0.221
HKS1998WRNO,2019-10-02-09-58-10,9,25,0.5334076881222607,right,probe,ambiguous-switch,-1,-5,right,right,0.527
HKS1998WRNO,2019-10-02-09-58-10,9,26,0.6896599223544662,right,both,ambiguous-switch,105,-5,right,right,0.221
HKS1998WRNO,2019-10-02-09-58-10,9,27,0.6655159724833886,right,probe,biased-switch,-1,5,right,right,0.209
HKS1998WRNO,2019-10-02-09-58-10,9,28,0.6729649290387503,right,both,biased-switch,97,5,right,left,0.307
HKS1998WRNO,2019-10-02-09-58-10,9,29,0.688502714944551,left,probe,ambiguous-switch,-1,40,right,right,0.282
HKS1998WRNO,2019-10-02-09-58-10,9,30,0.6508277921613934,left,both,ambiguous-switch,100,40,right,right,0.236
HKS1998WRNO,2019-10-02-09-58-10,9,31,0.5870068875163691,right,probe,biased-switch,-1,-5,right,right,0.298
HKS1998WRNO,2019-10-02-09-58-10,9,32,0.5744062783540522,right,both,biased-switch,94,-5,right,right,0.316
HKS1998WRNO,2019-10-02-09-58-10,9,33,0.673782842396777,right,probe,ambiguous-switch,-1,20,right,right,0.305
HKS1998WRNO,2019-10-02-09-58-10,9,34,0.5217262063731489,right,both,ambiguous-switch,106,20,right,left,0.247
HKS1998WRNO,2019-10-02-09-58-10,9,35,0.5638965906043539,left,probe,ambiguous-switch,-1,-30,right,right,0.28
HKS1998WRNO,2019-10-02-09-58-10,9,36,0.551580320648451,left,both,ambiguous-switch,108,-30,right,right,0.253
HKS1998WRNO,2019-10-02-09-58-10,9,37,0.5622201632645852,left,probe,ambiguous-switch,-1,10,right,right,0.235
HKS1998WRNO,2019-10-02-09-58-10,9,38,0.6999490687836518,left,both,ambiguous-switch,100,10,right,left,0.225
HKS1998WRNO,2019-10-02-09-58-10,9,39,0.6133952233060367,right,probe,biased-switch,-1,10,right,right,0.222
HKS1998WRNO,2019-10-02-09-58-10,9,40,0.5098848556993423,right,both,biased-switch,107,10,right,left,0.232
HKS1998WRNO,2019-10-02-09-58-10,9,41,0.6521156563247487,right,probe,biased-switch,-1,30,right,right,0.231
HKS1998WRNO,2019-10-02-09-58-10,9,42,0.619344822043622,right,both,biased-switch,103,30,right,left,0.31
HKS1998WRNO,2019-10-02-09-58-10,9,43,0.6325592891622139,left,probe,ambiguous-switch,-1,30,right,right,0.232
HKS1998WRNO,2019-10-02-09-58-10,9,44,0.6454657868465405,left,both,ambiguous-switch,95,30,right,left,0.23
HKS1998WRNO,2019-10-02-09-58-10,9,45,0.6295453740961857,right,probe,biased-switch,-1,-30,right,right,0.191
HKS1998WRNO,2019-10-02-09-58-10,9,46,0.6238904704991178,right,both,biased-switch,102,-30,right,right,0.238
HKS1998WRNO,2019-10-02-09-58-10,9,47,0.5388419284763317,left,probe,ambiguous-switch,-1,5,right,right,0.205
HKS1998WRNO,2019-10-02-09-58-10,9,48,0.6756911611163394,left,both,ambiguous-switch,109,5,right,left,0.279
HKS1998WRNO,2019-10-02-09-58-10,9,49,0.6858912979199027,left,probe,biased-switch,-1,0,left,left,0.17
HKS1998WRNO,2019-10-02-09-58-10,9,50,0.5601553082355123,left,both,biased-switch,98,0,left,right,0.308
HKS1998WRNO,2019-10-02-09-58-10,9,51,0.5480392138311784,left,probe,ambiguous-switch,-1,-20,right,right,0.252
HKS1998WRNO,2019-10-02-09-58-10,9,52,0.5752762862999189,left,both,ambiguous-switch,100,-20,right,right,0.273
HKS1998WRNO,2019-10-02-09-58-10,9,53,0.5999634116269478,right,probe,biased-switch,-1,20,right,right,0.234
HKS1998WRNO,2019-10-02-09-58-10,9,54,0.5859392171070911,right,both,biased-switch,99,20,right,left,0.234
HKS1998WRNO,2019-10-02-09-58-10,9,55,0.6641987819095234,left,probe,biased-switch,-1,-10,right,right,0.251
HKS1998WRNO,2019-10-02-09-58-10,9,56,0.6816576711662657,left,both,biased-switch,97,-10,right,right,0.24
HKS1998WRNO,2019-10-02-09-58-10,9,57,0.6821695991038232,left,probe,ambiguous-switch,-1,0,right,right,0.229
HKS1998WRNO,2019-10-02-09-58-10,9,58,0.5230250560812167,left,both,ambiguous-switch,100,0,right,left,0.277
HKS1998WRNO,2019-10-02-09-58-10,9,59,0.6901248654260446,left,probe,ambiguous-switch,-1,-10,right,right,0.427
HKS1998WRNO,2019-10-02-09-58-10,9,60,0.6554289550940149,left,both,ambiguous-switch,95,-10,right,right,0.365
HKS1998WRNO,2019-10-02-09-58-10,9,61,0.6157388661657536,right,probe,biased-switch,-1,40,right,right,0.281
HKS1998WRNO,2019-10-02-09-58-10,9,62,0.5652123296429292,right,both,biased-switch,110,40,right,right,0.252
HKS1998WRNO,2019-10-02-09-58-10,9,63,0.5354191883461975,left,probe,biased-switch,-1,-20,right,right,0.264
HKS1998WRNO,2019-10-02-09-58-10,9,64,0.6904772600156147,left,both,biased-switch,106,-20,right,right,0.198
HKS1998WRNO,2019-10-02-09-58-10,9,65,0.6823679463468647,left,probe,ambiguous-switch,-1,-5,right,right,0.242
HKS1998WRNO,2019-10-02-09-58-10,9,66,0.6212805676140749,left,both,ambiguous-switch,94,-5,right,right,0.233
HKS1998WRNO,2019-10-02-09-58-10,9,67,0.6086634758822943,right,probe,biased-switch,-1,5,right,right,0.303
HKS1998WRNO,2019-10-02-09-58-10,9,68,0.5456635710884868,right,both,biased-switch,91,5,right,left,0.31
HKS1998WRNO,2019-10-02-09-58-10,9,69,0.6058209833502919,right,probe,ambiguous-switch,-1,40,right,right,0.227
HKS1998WRNO,2019-10-02-09-58-10,9,70,0.6182273585526195,right,both,ambiguous-switch,98,40,right,left,0.247
HKS1998WRNO,2019-10-02-09-58-10,9,71,0.5287965220245014,right,probe,biased-switch,-1,-5,right,right,0.248
HKS1998WRNO,2019-10-02-09-58-10,9,72,0.5445627014410749,right,both,biased-switch,95,-5,right,left,0.248
HKS1998WRNO,2019-10-02-09-58-10,9,73,0.6455757798644602,right,probe,ambiguous-switch,-1,20,left,left,0.233
HKS1998WRNO,2019-10-02-09-58-10,9,74,0.5074825520618411,right,both,ambiguous-switch,102,20,left,right,0.245
HKS1998WRNO,2019-10-02-09-58-10,9,75,0.5333970462410687,left,probe,ambiguous-switch,-1,-30,right,right,0.229
HKS1998WRNO,2019-10-02-09-58-10,9,76,0.5990514010092042,left,both,ambiguous-switch,93,-30,right,right,0.241
HKS1998WRNO,2019-10-02-09-58-10,9,77,0.5578669139177775,left,probe,ambiguous-switch,-1,10,right,right,0.23
HKS1998WRNO,2019-10-02-09-58-10,9,78,0.549314807616027,left,both,ambiguous-switch,103,10,right,left,0.458
HKS1998WRNO,2019-10-02-09-58-10,9,79,0.5429234105738732,left,probe,biased-switch,-1,10,right,right,0.274
HKS1998WRNO,2019-10-02-09-58-10,9,80,0.6149631500620558,left,both,biased-switch,101,10,right,left,0.231
HKS1998WRNO,2019-10-02-09-58-10,10,1,0.6090123235876755,right,probe,ambiguous-switch,-1,30,left,left,0.386
HKS1998WRNO,2019-10-02-09-58-10,10,2,0.5471950005747136,right,both,ambiguous-switch,108,30,left,left,0.299
HKS1998WRNO,2019-10-02-09-58-10,10,3,0.5727622635433675,left,probe,biased-switch,-1,5,left,left,0.232
HKS1998WRNO,2019-10-02-09-58-10,10,4,0.6761986930673302,left,both,biased-switch,104,5,left,right,0.242
HKS1998WRNO,2019-10-02-09-58-10,10,5,0.6490211412354162,left,probe,ambiguous-switch,-1,10,left,left,0.254
HKS1998WRNO,2019-10-02-09-58-10,10,6,0.6171233755495656,left,both,ambiguous-switch,92,10,left,right,0.222
HKS1998WRNO,2019-10-02-09-58-10,10,7,0.6430998200289159,left,probe,biased-switch,-1,-10,left,left,0.234
HKS1998WRNO,2019-10-02-09-58-10,10,8,0.5385849754557981,left,both,biased-switch,106,-10,left,right,0.259
HKS1998WRNO,2019-10-02-09-58-10,10,9,0.577600715889822,left,probe,ambiguous-switch,-1,-5,left,left,0.233
HKS1998WRNO,2019-10-02-09-58-10,10,10,0.6004076116426164,left,both,ambiguous-switch,95,-5,left,right,0.265
HKS1998WRNO,2019-10-02-09-58-10,10,11,0.569621307695489,right,probe,biased-switch,-1,-30,left,left,0.223
HKS1998WRNO,2019-10-02-09-58-10,10,12,0.5180886516879238,right,both,biased-switch,98,-30,left,left,0.213
HKS1998WRNO,2019-10-02-09-58-10,10,13,0.6104161539530208,right,probe,ambiguous-switch,-1,-20,left,left,0.199
HKS1998WRNO,2019-10-02-09-58-10,10,14,0.6598713345653152,right,both,ambiguous-switch,103,-20,left,right,1.938
HKS1998WRNO,2019-10-02-09-58-10,10,15,0.5362646040545964,left,probe,biased-switch,-1,0,left,left,0.253
HKS1998WRNO,2019-10-02-09-58-10,10,16,0.6301302668871844,left,both,biased-switch,100,0,left,right,0.228
HKS1998WRNO,2019-10-02-09-58-10,10,17,0.5469812644967476,left,probe,biased-switch,-1,30,left,left,0.253
HKS1998WRNO,2019-10-02-09-58-10,10,18,0.5791637225912692,left,both,biased-switch,106,30,left,right,0.244
HKS1998WRNO,2019-10-02-09-58-10,10,19,0.6740359230304631,right,probe,ambiguous-switch,-1,-10,left,left,0.228
HKS1998WRNO,2019-10-02-09-58-10,10,20,0.518982541641667,right,both,ambiguous-switch,100,-10,left,left,0.258
HKS1998WRNO,2019-10-02-09-58-10,10,21,0.5822143083594629,right,probe,ambiguous-switch,-1,40,left,left,0.246
HKS1998WRNO,2019-10-02-09-58-10,10,22,0.6085531833774799,right,both,ambiguous-switch,96,40,left,left,0.24
HKS1998WRNO,2019-10-02-09-58-10,10,23,0.6884616603959502,left,probe,ambiguous-switch,-1,5,left,left,0.253
HKS1998WRNO,2019-10-02-09-58-10,10,24,0.6119814776796605,left,both,ambiguous-switch,103,5,left,right,0.265
HKS1998WRNO,2019-10-02-09-58-10,10,25,0.5517861078694561,left,probe,ambiguous-switch,-1,0,right,right,0.254
HKS1998WRNO,2019-10-02-09-58-10,10,26,0.6195316934743741,left,both,ambiguous-switch,107,0,right,left,0.303
HKS1998WRNO,2019-10-02-09-58-10,10,27,0.5418951683264279,left,probe,ambiguous-switch,-1,20,right,right,0.353
HKS1998WRNO,2019-10-02-09-58-10,10,28,0.6432091072137474,left,both,ambiguous-switch,95,20,right,left,0.294
HKS1998WRNO,2019-10-02-09-58-10,10,29,0.5330817111872996,right,probe,biased-switch,-1,20,left,left,0.261
HKS1998WRNO,2019-10-02-09-58-10,10,30,0.5000335567662119,right,both,biased-switch,98,20,left,right,0.235
HKS1998WRNO,2019-10-02-09-58-10,10,31,0.5039442078839573,left,probe,biased-switch,-1,-20,right,right,0.212
HKS1998WRNO,2019-10-02-09-58-10,10,32,0.5538082226013931,left,both,biased-switch,95,-20,right,left,0.282
HKS1998WRNO,2019-10-02-09-58-10,10,33,0.6382954765774178,right,probe,biased-switch,-1,40,left,left,0.251
HKS1998WRNO,2019-10-02-09-58-10,10,34,0.6698762343482179,right,both,biased-switch,107,40,left,left,0.218
HKS1998WRNO,2019-10-02-09-58-10,10,35,0.5177207626652539,right,probe,biased-switch,-1,10,left,left,0.187
HKS1998WRNO,2019-10-02-09-58-10,10,36,0.6535305895731669,right,both,biased-switch,105,10,left,right,0.3
HKS1998WRNO,2019-10-02-09-58-10,10,37,0.6360648444503993,right,probe,biased-switch,-1,-5,left,left,0.265
HKS1998WRNO,2019-10-02-09-58-10,10,38,0.5538338134539538,right,both,biased-switch,107,-5,left,right,0.282
HKS1998WRNO,2019-10-02-09-58-10,10,39,0.6186052899189896,left,probe,ambiguous-switch,-1,-30,left,left,0.268
HKS1998WRNO,2019-10-02-09-58-10,10,40,0.6345502228175343,left,both,ambiguous-switch,105,-30,left,left,0.259
HKS1998WRNO,2019-10-02-09-58-10,10,41,0.6618563035770972,right,probe,ambiguous-switch,-1,30,left,left,0.206
HKS1998WRNO,2019-10-02-09-58-10,10,42,0.6593377631400597,right,both,ambiguous-switch,102,30,left,right,0.24
HKS1998WRNO,2019-10-02-09-58-10,10,43,0.5677293003151453,left,probe,biased-switch,-1,5,left,left,0.222
HKS1998WRNO,2019-10-02-09-58-10,10,44,0.5230818666641597,left,both,biased-switch,101,5,left,right,0.258
HKS1998WRNO,2019-10-02-09-58-10,10,45,0.6923758662632946,left,probe,ambiguous-switch,-1,10,left,left,0.208
HKS1998WRNO,2019-10-02-09-58-10,10,46,0.60010075704397,left,both,ambiguous-switch,92,10,left,right,0.236
HKS1998WRNO,2019-10-02-09-58-10,10,47,0.6370237249855515,left,probe,biased-switch,-1,-10,left,left,0.259
HKS1998WRNO,2019-10-02-09-58-10,10,48,0.5371003878954816,left,both,biased-switch,103,-10,left,right,0.289
HKS1998WRNO,2019-10-02-09-58-10,10,49,0.6166892537889431,right,probe,ambiguous-switch,-1,-5,left,left,0.232
HKS1998WRNO,2019-10-02-09-58-10,10,50,0.5811684037192808,right,both,ambiguous-switch,100,-5,left,right,0.262
HKS1998WRNO,2019-10-02-09-58-10,10,51,0.6109019181372156,right,probe,biased-switch,-1,-30,left,left,0.263
HKS1998WRNO,2019-10-02-09-58-10,10,52,0.580562377063637,right,both,biased-switch,98,-30,left,left,0.269
HKS1998WRNO,2019-10-02-09-58-10,10,53,0.6041560097481867,left,probe,ambiguous-switch,-1,-20,left,left,0.241
HKS1998WRNO,2019-10-02-09-58-10,10,54,0.5463126577374968,left,both,ambiguous-switch,94,-20,left,left,0.291
HKS1998WRNO,2019-10-02-09-58-10,10,55,0.5673295627781925,right,probe,biased-switch,-1,0,left,left,0.472
HKS1998WRNO,2019-10-02-09-58-10,10,56,0.5161903614166479,right,both,biased-switch,96,0,left,right,0.208
HKS1998WRNO,2019-10-02-09-58-10,10,57,0.5429704461234797,left,probe,biased-switch,-1,30,left,left,0.257
HKS1998WRNO,2019-10-02-09-58-10,10,58,0.6373998761523336,left,both,biased-switch,103,30,left,left,0.226
HKS1998WRNO,2019-10-02-09-58-10,10,59,0.5422754525404969,left,probe,ambiguous-switch,-1,-10,left,left,0.275
HKS1998WRNO,2019-10-02-09-58-10,10,60,0.5005083760840416,left,both,ambiguous-switch,108,-10,left,left,0.221
HKS1998WRNO,2019-10-02-09-58-10,10,61,0.5201113407533277,left,probe,ambiguous-switch,-1,40,left,left,0.362
HKS1998WRNO,2019-10-02-09-58-10,10,62,0.6634886309828236,left,both,ambiguous-switch,96,40,left,left,0.224
HKS1998WRNO,2019-10-02-09-58-10,10,63,0.5368033932005585,right,probe,ambiguous-switch,-1,5,left,left,0.274
HKS1998WRNO,2019-10-02-09-58-10,10,64,0.6217398229339549,right,both,ambiguous-switch,108,5,left,right,0.222
HKS1998WRNO,2019-10-02-09-58-10,10,65,0.5469783319668804,left,probe,ambiguous-switch,-1,0,left,left,0.231
HKS1998WRNO,2019-10-02-09-58-10,10,66,0.5140918818498841,left,both,ambiguous-switch,91,0,left,right,0.246
HKS1998WRNO,2019-10-02-09-58-10,10,67,0.5000051712593522,right,probe,ambiguous-switch,-1,20,left,left,0.247
HKS1998WRNO,2019-10-02-09-58-10,10,68,0.5404878437336882,right,both,ambiguous-switch,99,20,left,right,0.226
HKS1998WRNO,2019-10-02-09-58-10,10,69,0.6551967474547147,right,probe,biased-switch,-1,20,left,left,0.209
HKS1998WRNO,2019-10-02-09-58-10,10,70,0.5382639224966631,right,both,biased-switch,95,20,left,right,0.212
HKS1998WRNO,2019-10-02-09-58-10,10,71,0.6796823309021892,right,probe,biased-switch,-1,-20,right,right,0.298
HKS1998WRNO,2019-10-02-09-58-10,10,72,0.6261057102804968,right,both,biased-switch,95,-20,right,right,0.31
HKS1998WRNO,2019-10-02-09-58-10,10,73,0.5897840154077891,right,probe,biased-switch,-1,40,right,right,0.266
HKS1998WRNO,2019-10-02-09-58-10,10,74,0.6256165503041887,right,both,biased-switch,100,40,right,right,0.275
HKS1998WRNO,2019-10-02-09-58-10,10,75,0.603294125265744,left,probe,biased-switch,-1,10,right,right,0.258
HKS1998WRNO,2019-10-02-09-58-10,10,76,0.6914820319403259,left,both,biased-switch,99,10,right,left,0.288
HKS1998WRNO,2019-10-02-09-58-10,10,77,0.5904746398627297,left,probe,biased-switch,-1,-5,left,left,0.221
HKS1998WRNO,2019-10-02-09-58-10,10,78,0.5175328571326047,left,both,biased-switch,105,-5,left,right,0.331
HKS1998WRNO,2019-10-02-09-58-10,10,79,0.5827780313826467,right,probe,ambiguous-switch,-1,-30,right,right,0.321
HKS1998WRNO,2019-10-02-09-58-10,10,80,0.629340479845624,right,both,ambiguous-switch,108,-30,right,right,0.266
