Participant,Session,Block,Trial,OnsetDelay,ProbeLocation,WhatIsReported,Condition,TriggerTime,ProbeSOA,PrimeDirection,Response,RT
CKB1999WRNO,2020-02-05-09-02-48,1,1,0.6009171158897972,left,probe,ambiguous-switch,-1,-12,left,left,1.578
CKB1999WRNO,2020-02-05-09-02-48,1,2,0.5866205368831314,left,both,ambiguous-switch,56,-12,left,left,0.533
CKB1999WRNO,2020-02-05-09-02-48,1,3,0.5600543192096026,right,probe,biased-switch,-1,-6,right,right,0.474
CKB1999WRNO,2020-02-05-09-02-48,1,4,0.6936548412251526,right,both,biased-switch,57,-6,right,right,0.376
CKB1999WRNO,2020-02-05-09-02-48,1,5,0.5930014812542561,right,probe,ambiguous-switch,-1,-3,right,right,0.527
CKB1999WRNO,2020-02-05-09-02-48,1,6,0.6579501405772195,right,both,ambiguous-switch,62,-3,right,right,0.451
CKB1999WRNO,2020-02-05-09-02-48,1,7,0.6953309559737878,left,probe,biased-switch,-1,6,left,left,0.384
CKB1999WRNO,2020-02-05-09-02-48,1,8,0.6830269572956507,left,both,biased-switch,61,6,left,left,3.949
CKB1999WRNO,2020-02-05-09-02-48,1,9,0.5268589185787464,left,probe,ambiguous-switch,-1,3,left,left,0.446
CKB1999WRNO,2020-02-05-09-02-48,1,10,0.5425345154311502,left,both,ambiguous-switch,56,3,left,left,0.314
CKB1999WRNO,2020-02-05-09-02-48,1,11,0.5139334558251104,left,probe,ambiguous-switch,-1,-6,left,left,0.477
CKB1999WRNO,2020-02-05-09-02-48,1,12,0.5518555905375748,left,both,ambiguous-switch,64,-6,left,left,1.091
CKB1999WRNO,2020-02-05-09-02-48,1,13,0.6715951377153723,left,probe,biased-switch,-1,3,left,left,1.322
CKB1999WRNO,2020-02-05-09-02-48,1,14,0.6988958453956583,left,both,biased-switch,56,3,left,left,0.317
CKB1999WRNO,2020-02-05-09-02-48,1,15,0.6699564167405052,left,probe,ambiguous-switch,-1,24,left,left,0.42
CKB1999WRNO,2020-02-05-09-02-48,1,16,0.693106434127633,left,both,ambiguous-switch,55,24,left,left,0.464
CKB1999WRNO,2020-02-05-09-02-48,1,17,0.5870170722735617,right,probe,ambiguous-switch,-1,-18,right,right,0.663
CKB1999WRNO,2020-02-05-09-02-48,1,18,0.6736697163296802,right,both,ambiguous-switch,58,-18,right,right,0.528
CKB1999WRNO,2020-02-05-09-02-48,1,19,0.6724085186019105,right,probe,ambiguous-switch,-1,0,right,right,1.088
CKB1999WRNO,2020-02-05-09-02-48,1,20,0.516301259347034,right,both,ambiguous-switch,64,0,right,right,0.513
CKB1999WRNO,2020-02-05-09-02-48,1,21,0.6304139355270504,left,probe,biased-switch,-1,12,left,left,0.467
CKB1999WRNO,2020-02-05-09-02-48,1,22,0.5400205620595673,left,both,biased-switch,60,12,left,left,0.343
CKB1999WRNO,2020-02-05-09-02-48,1,23,0.6052045098794628,left,probe,ambiguous-switch,-1,6,left,left,0.613
CKB1999WRNO,2020-02-05-09-02-48,1,24,0.5354604422434417,left,both,ambiguous-switch,56,6,left,left,0.367
CKB1999WRNO,2020-02-05-09-02-48,1,25,0.6385923695145537,left,probe,biased-switch,-1,-12,left,left,0.529
CKB1999WRNO,2020-02-05-09-02-48,1,26,0.679760913480063,left,both,biased-switch,60,-12,left,left,0.449
CKB1999WRNO,2020-02-05-09-02-48,1,27,0.6602374453177873,left,probe,ambiguous-switch,-1,18,left,left,0.384
CKB1999WRNO,2020-02-05-09-02-48,1,28,0.5082648473458515,left,both,ambiguous-switch,58,18,left,left,0.375
CKB1999WRNO,2020-02-05-09-02-48,1,29,0.5309836388887741,right,probe,biased-switch,-1,0,right,right,0.5
CKB1999WRNO,2020-02-05-09-02-48,1,30,0.5609971470112051,right,both,biased-switch,61,0,right,right,0.533
CKB1999WRNO,2020-02-05-09-02-48,1,31,0.6156510941365665,left,probe,biased-switch,-1,-18,left,left,0.59
CKB1999WRNO,2020-02-05-09-02-48,1,32,0.5322891802190958,left,both,biased-switch,66,-18,left,left,0.385
CKB1999WRNO,2020-02-05-09-02-48,1,33,0.5740258706906931,right,probe,ambiguous-switch,-1,12,right,right,0.554
CKB1999WRNO,2020-02-05-09-02-48,1,34,0.5875364513514689,right,both,ambiguous-switch,58,12,right,right,0.552
CKB1999WRNO,2020-02-05-09-02-48,1,35,0.6197332743033986,right,probe,biased-switch,-1,-3,right,right,0.63
CKB1999WRNO,2020-02-05-09-02-48,1,36,0.5495575295222106,right,both,biased-switch,63,-3,right,right,0.539
CKB1999WRNO,2020-02-05-09-02-48,1,37,0.5204457678201471,right,probe,biased-switch,-1,24,right,right,0.619
CKB1999WRNO,2020-02-05-09-02-48,1,38,0.5683762296809437,right,both,biased-switch,59,24,right,right,0.448
CKB1999WRNO,2020-02-05-09-02-48,1,39,0.5477700630886961,right,probe,biased-switch,-1,18,right,right,0.599
CKB1999WRNO,2020-02-05-09-02-48,1,40,0.6875602570734508,right,both,biased-switch,64,18,right,right,0.342
CKB1999WRNO,2020-02-05-09-02-48,1,41,0.6607103056182515,right,probe,ambiguous-switch,-1,-12,right,right,0.778
CKB1999WRNO,2020-02-05-09-02-48,1,42,0.5426150475242542,right,both,ambiguous-switch,55,-12,right,right,0.589
CKB1999WRNO,2020-02-05-09-02-48,1,43,0.5782397752051178,right,probe,biased-switch,-1,-6,right,right,0.561
CKB1999WRNO,2020-02-05-09-02-48,1,44,0.6285088404193626,right,both,biased-switch,54,-6,right,right,0.521
CKB1999WRNO,2020-02-05-09-02-48,1,45,0.577013492640471,left,probe,ambiguous-switch,-1,-3,left,left,0.526
CKB1999WRNO,2020-02-05-09-02-48,1,46,0.6695257242735018,left,both,ambiguous-switch,61,-3,left,left,0.467
CKB1999WRNO,2020-02-05-09-02-48,1,47,0.6518665269753451,left,probe,biased-switch,-1,6,left,left,0.427
CKB1999WRNO,2020-02-05-09-02-48,1,48,0.6094733007270196,left,both,biased-switch,61,6,left,left,0.374
CKB1999WRNO,2020-02-05-09-02-48,1,49,0.6190929139197578,right,probe,ambiguous-switch,-1,3,right,right,0.672
CKB1999WRNO,2020-02-05-09-02-48,1,50,0.5642627846998909,right,both,ambiguous-switch,55,3,right,right,0.547
CKB1999WRNO,2020-02-05-09-02-48,1,51,0.5952549489452804,left,probe,ambiguous-switch,-1,-6,left,left,0.688
CKB1999WRNO,2020-02-05-09-02-48,1,52,0.5070443489333636,left,both,ambiguous-switch,60,-6,left,left,0.559
CKB1999WRNO,2020-02-05-09-02-48,1,53,0.5517586368400147,left,probe,biased-switch,-1,3,left,left,0.486
CKB1999WRNO,2020-02-05-09-02-48,1,54,0.5982123402237457,left,both,biased-switch,64,3,left,left,0.308
CKB1999WRNO,2020-02-05-09-02-48,1,55,0.6368410133501073,right,probe,ambiguous-switch,-1,24,right,right,0.349
CKB1999WRNO,2020-02-05-09-02-48,1,56,0.5870166905143157,right,both,ambiguous-switch,56,24,right,right,0.608
CKB1999WRNO,2020-02-05-09-02-48,1,57,0.6811734587498095,left,probe,ambiguous-switch,-1,-18,left,left,0.472
CKB1999WRNO,2020-02-05-09-02-48,1,58,0.6244283428721251,left,both,ambiguous-switch,55,-18,left,left,1.114
CKB1999WRNO,2020-02-05-09-02-48,1,59,0.5024996057596526,right,probe,ambiguous-switch,-1,0,right,right,0.655
CKB1999WRNO,2020-02-05-09-02-48,1,60,0.6263616735380041,right,both,ambiguous-switch,59,0,right,right,0.587
CKB1999WRNO,2020-02-05-09-02-48,1,61,0.5807911037062127,left,probe,biased-switch,-1,12,left,left,0.431
CKB1999WRNO,2020-02-05-09-02-48,1,62,0.6170902761648384,left,both,biased-switch,65,12,left,left,0.402
CKB1999WRNO,2020-02-05-09-02-48,1,63,0.6752891841938534,right,probe,ambiguous-switch,-1,6,right,right,0.375
CKB1999WRNO,2020-02-05-09-02-48,1,64,0.6502812075642008,right,both,ambiguous-switch,54,6,right,right,0.442
CKB1999WRNO,2020-02-05-09-02-48,1,65,0.6082014711924436,right,probe,biased-switch,-1,-12,right,right,0.468
CKB1999WRNO,2020-02-05-09-02-48,1,66,0.6244835948198557,right,both,biased-switch,56,-12,right,right,0.424
CKB1999WRNO,2020-02-05-09-02-48,1,67,0.59567748456247,right,probe,ambiguous-switch,-1,18,right,right,0.494
CKB1999WRNO,2020-02-05-09-02-48,1,68,0.5767552724432401,right,both,ambiguous-switch,55,18,right,right,0.363
CKB1999WRNO,2020-02-05-09-02-48,1,69,0.5773939391791623,left,probe,biased-switch,-1,0,left,left,0.404
CKB1999WRNO,2020-02-05-09-02-48,1,70,0.6837097342592117,left,both,biased-switch,59,0,left,left,0.381
CKB1999WRNO,2020-02-05-09-02-48,1,71,0.6862820955197693,right,probe,biased-switch,-1,-18,right,right,0.491
CKB1999WRNO,2020-02-05-09-02-48,1,72,0.5064517942583117,right,both,biased-switch,64,-18,right,right,0.512
CKB1999WRNO,2020-02-05-09-02-48,1,73,0.6176817254916308,left,probe,ambiguous-switch,-1,12,left,left,0.343
CKB1999WRNO,2020-02-05-09-02-48,1,74,0.5186042453999373,left,both,ambiguous-switch,59,12,left,left,0.279
CKB1999WRNO,2020-02-05-09-02-48,1,75,0.5519080627098008,left,probe,biased-switch,-1,-3,left,left,0.389
CKB1999WRNO,2020-02-05-09-02-48,1,76,0.6504552381666067,left,both,biased-switch,66,-3,left,left,0.441
CKB1999WRNO,2020-02-05-09-02-48,1,77,0.5799434938834106,left,probe,biased-switch,-1,24,left,left,0.492
CKB1999WRNO,2020-02-05-09-02-48,1,78,0.6347445469685554,left,both,biased-switch,64,24,left,left,0.42
CKB1999WRNO,2020-02-05-09-02-48,1,79,0.6641603757699689,left,probe,biased-switch,-1,18,left,left,0.755
CKB1999WRNO,2020-02-05-09-02-48,1,80,0.5146595155565235,left,both,biased-switch,66,18,left,left,0.509
CKB1999WRNO,2020-02-05-09-02-48,2,1,0.6650968831102233,left,probe,biased-switch,-1,24,left,left,0.551
CKB1999WRNO,2020-02-05-09-02-48,2,2,0.6779247646227402,left,both,biased-switch,57,24,left,left,0.515
CKB1999WRNO,2020-02-05-09-02-48,2,3,0.6444079380101986,left,probe,biased-switch,-1,3,left,left,0.604
CKB1999WRNO,2020-02-05-09-02-48,2,4,0.6985604737756586,left,both,biased-switch,61,3,left,left,0.348
CKB1999WRNO,2020-02-05-09-02-48,2,5,0.6931496052613895,right,probe,ambiguous-switch,-1,-18,right,right,0.548
CKB1999WRNO,2020-02-05-09-02-48,2,6,0.5659040186316255,right,both,ambiguous-switch,64,-18,right,right,0.46
CKB1999WRNO,2020-02-05-09-02-48,2,7,0.6255008506379283,right,probe,ambiguous-switch,-1,3,right,right,0.416
CKB1999WRNO,2020-02-05-09-02-48,2,8,0.6554773337512192,right,both,ambiguous-switch,61,3,right,right,0.558
CKB1999WRNO,2020-02-05-09-02-48,2,9,0.5820725445876952,right,probe,ambiguous-switch,-1,-3,right,right,0.636
CKB1999WRNO,2020-02-05-09-02-48,2,10,0.6633017686210609,right,both,ambiguous-switch,63,-3,right,right,0.39
CKB1999WRNO,2020-02-05-09-02-48,2,11,0.6964223642312073,left,probe,biased-switch,-1,-6,left,left,0.386
CKB1999WRNO,2020-02-05-09-02-48,2,12,0.5778475126139283,left,both,biased-switch,56,-6,left,left,0.493
CKB1999WRNO,2020-02-05-09-02-48,2,13,0.6348266294745396,left,probe,biased-switch,-1,12,left,left,0.74
CKB1999WRNO,2020-02-05-09-02-48,2,14,0.6751223779568503,left,both,biased-switch,64,12,left,left,0.559
CKB1999WRNO,2020-02-05-09-02-48,2,15,0.6106785028008728,left,probe,biased-switch,-1,0,left,left,0.59
CKB1999WRNO,2020-02-05-09-02-48,2,16,0.6183528233739014,left,both,biased-switch,58,0,left,left,0.575
CKB1999WRNO,2020-02-05-09-02-48,2,17,0.6802865693655733,right,probe,biased-switch,-1,6,right,right,0.559
CKB1999WRNO,2020-02-05-09-02-48,2,18,0.6839656634421,right,both,biased-switch,57,6,right,right,0.516
CKB1999WRNO,2020-02-05-09-02-48,2,19,0.5389182104345631,right,probe,ambiguous-switch,-1,18,right,right,0.589
CKB1999WRNO,2020-02-05-09-02-48,2,20,0.5999858065831398,right,both,ambiguous-switch,55,18,right,right,0.569
CKB1999WRNO,2020-02-05-09-02-48,2,21,0.6407546039935286,right,probe,biased-switch,-1,-3,right,right,0.664
CKB1999WRNO,2020-02-05-09-02-48,2,22,0.5022262009241161,right,both,biased-switch,64,-3,right,right,0.348
CKB1999WRNO,2020-02-05-09-02-48,2,23,0.5767972188153756,left,probe,biased-switch,-1,-12,left,left,0.78
CKB1999WRNO,2020-02-05-09-02-48,2,24,0.6524051171848582,left,both,biased-switch,64,-12,left,left,0.385
CKB1999WRNO,2020-02-05-09-02-48,2,25,0.6841573474717455,right,probe,ambiguous-switch,-1,6,right,right,0.542
CKB1999WRNO,2020-02-05-09-02-48,2,26,0.6588593161847325,right,both,ambiguous-switch,65,6,right,right,0.494
CKB1999WRNO,2020-02-05-09-02-48,2,27,0.5799371535453123,left,probe,ambiguous-switch,-1,24,left,left,0.498
CKB1999WRNO,2020-02-05-09-02-48,2,28,0.5301832655905382,left,both,ambiguous-switch,58,24,left,left,0.355
CKB1999WRNO,2020-02-05-09-02-48,2,29,0.5033498276651746,right,probe,biased-switch,-1,18,right,right,0.465
CKB1999WRNO,2020-02-05-09-02-48,2,30,0.5029879498103703,right,both,biased-switch,57,18,right,right,0.566
CKB1999WRNO,2020-02-05-09-02-48,2,31,0.5866232274395142,left,probe,ambiguous-switch,-1,-6,left,left,0.535
CKB1999WRNO,2020-02-05-09-02-48,2,32,0.6377065571710709,left,both,ambiguous-switch,55,-6,left,left,0.523
CKB1999WRNO,2020-02-05-09-02-48,2,33,0.6730005362629463,right,probe,ambiguous-switch,-1,-12,right,right,0.62
CKB1999WRNO,2020-02-05-09-02-48,2,34,0.5178899991479728,right,both,ambiguous-switch,62,-12,right,right,0.531
CKB1999WRNO,2020-02-05-09-02-48,2,35,0.5426371571092121,left,probe,ambiguous-switch,-1,0,left,left,0.52
CKB1999WRNO,2020-02-05-09-02-48,2,36,0.5126332293859739,left,both,ambiguous-switch,55,0,left,left,0.458
CKB1999WRNO,2020-02-05-09-02-48,2,37,0.6459550919425684,left,probe,biased-switch,-1,-18,left,left,0.5
CKB1999WRNO,2020-02-05-09-02-48,2,38,0.6388092329771604,left,both,biased-switch,58,-18,left,left,0.533
CKB1999WRNO,2020-02-05-09-02-48,2,39,0.5354569815123282,right,probe,ambiguous-switch,-1,12,right,right,0.855
CKB1999WRNO,2020-02-05-09-02-48,2,40,0.5501916162806713,right,both,ambiguous-switch,66,12,right,right,0.355
CKB1999WRNO,2020-02-05-09-02-48,2,41,0.6432442146678407,left,probe,biased-switch,-1,24,left,left,0.466
CKB1999WRNO,2020-02-05-09-02-48,2,42,0.5251711306503459,left,both,biased-switch,58,24,left,left,0.589
CKB1999WRNO,2020-02-05-09-02-48,2,43,0.6280827798528611,left,probe,biased-switch,-1,3,left,left,0.579
CKB1999WRNO,2020-02-05-09-02-48,2,44,0.6374633317816453,left,both,biased-switch,63,3,left,left,0.491
CKB1999WRNO,2020-02-05-09-02-48,2,45,0.6246230348843829,right,probe,ambiguous-switch,-1,-18,right,right,0.8
CKB1999WRNO,2020-02-05-09-02-48,2,46,0.6701671510703922,right,both,ambiguous-switch,55,-18,right,right,0.477
CKB1999WRNO,2020-02-05-09-02-48,2,47,0.5553892038834147,left,probe,ambiguous-switch,-1,3,left,left,0.621
CKB1999WRNO,2020-02-05-09-02-48,2,48,0.6173988883221336,left,both,ambiguous-switch,61,3,left,left,0.354
CKB1999WRNO,2020-02-05-09-02-48,2,49,0.6206142532554288,right,probe,ambiguous-switch,-1,-3,right,right,0.652
CKB1999WRNO,2020-02-05-09-02-48,2,50,0.671021218474938,right,both,ambiguous-switch,65,-3,right,right,0.583
CKB1999WRNO,2020-02-05-09-02-48,2,51,0.6900242437854325,right,probe,biased-switch,-1,-6,right,right,0.566
CKB1999WRNO,2020-02-05-09-02-48,2,52,0.5492519255161518,right,both,biased-switch,61,-6,right,right,0.5
CKB1999WRNO,2020-02-05-09-02-48,2,53,0.5377437501866176,left,probe,biased-switch,-1,12,left,left,0.38
CKB1999WRNO,2020-02-05-09-02-48,2,54,0.5014136195035841,left,both,biased-switch,58,12,left,left,0.435
CKB1999WRNO,2020-02-05-09-02-48,2,55,0.5295476630235209,right,probe,biased-switch,-1,0,right,right,0.56
CKB1999WRNO,2020-02-05-09-02-48,2,56,0.6133615190014596,right,both,biased-switch,56,0,right,right,0.333
CKB1999WRNO,2020-02-05-09-02-48,2,57,0.5849035224122628,left,probe,biased-switch,-1,6,left,left,0.44
CKB1999WRNO,2020-02-05-09-02-48,2,58,0.5391536245259467,left,both,biased-switch,65,6,left,left,0.425
CKB1999WRNO,2020-02-05-09-02-48,2,59,0.6586142795047756,right,probe,ambiguous-switch,-1,18,right,right,0.48
CKB1999WRNO,2020-02-05-09-02-48,2,60,0.5558016953058926,right,both,ambiguous-switch,61,18,right,right,0.511
CKB1999WRNO,2020-02-05-09-02-48,2,61,0.5923092430024308,right,probe,biased-switch,-1,-3,right,right,0.499
CKB1999WRNO,2020-02-05-09-02-48,2,62,0.5349922629825884,right,both,biased-switch,65,-3,right,right,0.44
CKB1999WRNO,2020-02-05-09-02-48,2,63,0.5064075246335193,right,probe,biased-switch,-1,-12,right,right,0.565
CKB1999WRNO,2020-02-05-09-02-48,2,64,0.6318577947188062,right,both,biased-switch,54,-12,right,right,0.471
CKB1999WRNO,2020-02-05-09-02-48,2,65,0.5418002290836068,right,probe,ambiguous-switch,-1,6,right,right,0.487
CKB1999WRNO,2020-02-05-09-02-48,2,66,0.6114084655475461,right,both,ambiguous-switch,57,6,right,right,0.422
CKB1999WRNO,2020-02-05-09-02-48,2,67,0.5702657809951611,right,probe,ambiguous-switch,-1,24,right,right,0.568
CKB1999WRNO,2020-02-05-09-02-48,2,68,0.6989517359468937,right,both,ambiguous-switch,59,24,right,right,0.587
CKB1999WRNO,2020-02-05-09-02-48,2,69,0.6534601566258627,left,probe,biased-switch,-1,18,left,left,0.459
CKB1999WRNO,2020-02-05-09-02-48,2,70,0.5799212359826412,left,both,biased-switch,59,18,left,left,0.506
CKB1999WRNO,2020-02-05-09-02-48,2,71,0.6833324837058268,right,probe,ambiguous-switch,-1,-6,right,right,0.616
CKB1999WRNO,2020-02-05-09-02-48,2,72,0.5939714225358822,right,both,ambiguous-switch,55,-6,right,right,0.588
CKB1999WRNO,2020-02-05-09-02-48,2,73,0.6400137028729778,left,probe,ambiguous-switch,-1,-12,left,left,0.846
CKB1999WRNO,2020-02-05-09-02-48,2,74,0.6594396000065931,left,both,ambiguous-switch,66,-12,left,left,0.62
CKB1999WRNO,2020-02-05-09-02-48,2,75,0.6913765847378349,right,probe,ambiguous-switch,-1,0,right,right,0.564
CKB1999WRNO,2020-02-05-09-02-48,2,76,0.6174721179667046,right,both,ambiguous-switch,56,0,right,right,0.531
CKB1999WRNO,2020-02-05-09-02-48,2,77,0.5622167972925572,right,probe,biased-switch,-1,-18,right,right,0.461
CKB1999WRNO,2020-02-05-09-02-48,2,78,0.637214947498297,right,both,biased-switch,63,-18,right,right,0.466
CKB1999WRNO,2020-02-05-09-02-48,2,79,0.6641139035956138,left,probe,ambiguous-switch,-1,12,left,left,0.524
CKB1999WRNO,2020-02-05-09-02-48,2,80,0.60907414964366,left,both,ambiguous-switch,62,12,left,left,0.5
CKB1999WRNO,2020-02-05-09-02-48,3,1,0.5468439474258252,right,probe,ambiguous-switch,-1,-12,right,right,0.595
CKB1999WRNO,2020-02-05-09-02-48,3,2,0.5146820338763709,right,both,ambiguous-switch,56,-12,right,right,0.576
CKB1999WRNO,2020-02-05-09-02-48,3,3,0.5814016154635566,right,probe,biased-switch,-1,6,right,right,0.715
CKB1999WRNO,2020-02-05-09-02-48,3,4,0.6441097833748061,right,both,biased-switch,63,6,right,right,0.497
CKB1999WRNO,2020-02-05-09-02-48,3,5,0.531288429638783,left,probe,biased-switch,-1,-6,left,left,0.425
CKB1999WRNO,2020-02-05-09-02-48,3,6,0.6719756308508027,left,both,biased-switch,64,-6,left,left,0.424
CKB1999WRNO,2020-02-05-09-02-48,3,7,0.6933877314337686,left,probe,biased-switch,-1,3,left,left,0.789
CKB1999WRNO,2020-02-05-09-02-48,3,8,0.6637771979852936,left,both,biased-switch,61,3,left,left,0.594
CKB1999WRNO,2020-02-05-09-02-48,3,9,0.613965052746255,right,probe,biased-switch,-1,24,right,right,0.527
CKB1999WRNO,2020-02-05-09-02-48,3,10,0.5698502508530018,right,both,biased-switch,62,24,right,right,0.542
CKB1999WRNO,2020-02-05-09-02-48,3,11,0.6481983276358879,right,probe,ambiguous-switch,-1,0,right,right,0.467
CKB1999WRNO,2020-02-05-09-02-48,3,12,0.628094470104105,right,both,ambiguous-switch,61,0,right,right,0.53
CKB1999WRNO,2020-02-05-09-02-48,3,13,0.5198547930899762,left,probe,ambiguous-switch,-1,3,left,left,0.491
CKB1999WRNO,2020-02-05-09-02-48,3,14,0.5751743441467693,left,both,ambiguous-switch,61,3,left,left,0.334
CKB1999WRNO,2020-02-05-09-02-48,3,15,0.5303053117958384,left,probe,biased-switch,-1,0,left,left,0.488
CKB1999WRNO,2020-02-05-09-02-48,3,16,0.5953753358332313,left,both,biased-switch,66,0,left,left,0.596
CKB1999WRNO,2020-02-05-09-02-48,3,17,0.633539565970037,left,probe,biased-switch,-1,-12,left,left,0.678
CKB1999WRNO,2020-02-05-09-02-48,3,18,0.5539099237486786,left,both,biased-switch,62,-12,left,left,0.36
CKB1999WRNO,2020-02-05-09-02-48,3,19,0.571113361613012,right,probe,ambiguous-switch,-1,6,right,right,0.519
CKB1999WRNO,2020-02-05-09-02-48,3,20,0.687753156976316,right,both,ambiguous-switch,62,6,right,right,0.515
CKB1999WRNO,2020-02-05-09-02-48,3,21,0.5677116279548092,right,probe,ambiguous-switch,-1,24,right,right,0.75
CKB1999WRNO,2020-02-05-09-02-48,3,22,0.6581271808032851,right,both,ambiguous-switch,58,24,right,right,0.499
CKB1999WRNO,2020-02-05-09-02-48,3,23,0.6746763495307592,right,probe,ambiguous-switch,-1,-18,right,right,0.609
CKB1999WRNO,2020-02-05-09-02-48,3,24,0.5663597392305648,right,both,ambiguous-switch,55,-18,right,right,0.369
CKB1999WRNO,2020-02-05-09-02-48,3,25,0.6626809313729033,left,probe,ambiguous-switch,-1,12,left,left,0.315
CKB1999WRNO,2020-02-05-09-02-48,3,26,0.6702309414134857,left,both,ambiguous-switch,62,12,left,left,0.323
CKB1999WRNO,2020-02-05-09-02-48,3,27,0.5550497347430606,left,probe,biased-switch,-1,-3,left,left,0.492
CKB1999WRNO,2020-02-05-09-02-48,3,28,0.5475645012221828,left,both,biased-switch,66,-3,left,left,0.454
CKB1999WRNO,2020-02-05-09-02-48,3,29,0.6391015209309672,left,probe,biased-switch,-1,12,left,left,0.5
CKB1999WRNO,2020-02-05-09-02-48,3,30,0.5712711335749057,left,both,biased-switch,65,12,left,left,0.353
CKB1999WRNO,2020-02-05-09-02-48,3,31,0.5987335456434277,left,probe,ambiguous-switch,-1,-6,left,left,0.528
CKB1999WRNO,2020-02-05-09-02-48,3,32,0.5250860385634772,left,both,ambiguous-switch,60,-6,left,left,0.397
CKB1999WRNO,2020-02-05-09-02-48,3,33,0.656394400024374,left,probe,ambiguous-switch,-1,18,left,left,0.602
CKB1999WRNO,2020-02-05-09-02-48,3,34,0.5256875054340334,left,both,ambiguous-switch,63,18,left,left,0.442
CKB1999WRNO,2020-02-05-09-02-48,3,35,0.6105339467535086,left,probe,biased-switch,-1,18,left,left,0.549
CKB1999WRNO,2020-02-05-09-02-48,3,36,0.6525324100789911,left,both,biased-switch,58,18,left,left,0.348
CKB1999WRNO,2020-02-05-09-02-48,3,37,0.5502486826901223,left,probe,biased-switch,-1,-18,left,left,0.588
CKB1999WRNO,2020-02-05-09-02-48,3,38,0.552075716852912,left,both,biased-switch,61,-18,left,left,0.376
CKB1999WRNO,2020-02-05-09-02-48,3,39,0.6710118393084353,left,probe,ambiguous-switch,-1,-3,left,left,0.589
CKB1999WRNO,2020-02-05-09-02-48,3,40,0.5778160472747149,left,both,ambiguous-switch,59,-3,left,left,0.488
CKB1999WRNO,2020-02-05-09-02-48,3,41,0.6205229955259395,right,probe,ambiguous-switch,-1,-12,right,right,0.499
CKB1999WRNO,2020-02-05-09-02-48,3,42,0.6865311454137568,right,both,ambiguous-switch,57,-12,right,right,0.61
CKB1999WRNO,2020-02-05-09-02-48,3,43,0.5247521608830894,left,probe,biased-switch,-1,6,left,left,0.638
CKB1999WRNO,2020-02-05-09-02-48,3,44,0.5165223589435117,left,both,biased-switch,59,6,left,left,0.505
CKB1999WRNO,2020-02-05-09-02-48,3,45,0.5434294596080913,right,probe,biased-switch,-1,-6,right,right,0.808
CKB1999WRNO,2020-02-05-09-02-48,3,46,0.6939774464590286,right,both,biased-switch,60,-6,right,right,0.704
CKB1999WRNO,2020-02-05-09-02-48,3,47,0.5740345102327405,right,probe,biased-switch,-1,3,right,right,0.875
CKB1999WRNO,2020-02-05-09-02-48,3,48,0.5869835351276863,right,both,biased-switch,54,3,right,right,0.472
CKB1999WRNO,2020-02-05-09-02-48,3,49,0.5075015018949786,right,probe,biased-switch,-1,24,right,right,0.886
CKB1999WRNO,2020-02-05-09-02-48,3,50,0.5663877560092947,right,both,biased-switch,60,24,right,right,0.686
CKB1999WRNO,2020-02-05-09-02-48,3,51,0.6464620454397361,right,probe,ambiguous-switch,-1,0,right,right,1.145
CKB1999WRNO,2020-02-05-09-02-48,3,52,0.5145217191470364,right,both,ambiguous-switch,61,0,right,right,0.501
CKB1999WRNO,2020-02-05-09-02-48,3,53,0.5322666802013315,right,probe,ambiguous-switch,-1,3,right,right,0.405
CKB1999WRNO,2020-02-05-09-02-48,3,54,0.6633091805628688,right,both,ambiguous-switch,59,3,right,right,0.365
CKB1999WRNO,2020-02-05-09-02-48,3,55,0.6555206981867969,right,probe,biased-switch,-1,0,right,right,0.591
CKB1999WRNO,2020-02-05-09-02-48,3,56,0.697558587495809,right,both,biased-switch,55,0,right,right,0.487
CKB1999WRNO,2020-02-05-09-02-48,3,57,0.5407206277985241,left,probe,biased-switch,-1,-12,left,left,0.449
CKB1999WRNO,2020-02-05-09-02-48,3,58,0.5492862290813415,left,both,biased-switch,56,-12,left,left,0.304
CKB1999WRNO,2020-02-05-09-02-48,3,59,0.5548731581023305,left,probe,ambiguous-switch,-1,6,left,left,0.484
CKB1999WRNO,2020-02-05-09-02-48,3,60,0.6724795479907837,left,both,ambiguous-switch,61,6,left,left,0.455
CKB1999WRNO,2020-02-05-09-02-48,3,61,0.5452464922468159,left,probe,ambiguous-switch,-1,24,left,left,0.375
CKB1999WRNO,2020-02-05-09-02-48,3,62,0.6954128323304881,left,both,ambiguous-switch,65,24,left,left,0.392
CKB1999WRNO,2020-02-05-09-02-48,3,63,0.6653410586705977,right,probe,ambiguous-switch,-1,-18,right,right,0.464
CKB1999WRNO,2020-02-05-09-02-48,3,64,0.6978851554531322,right,both,ambiguous-switch,54,-18,right,right,0.909
CKB1999WRNO,2020-02-05-09-02-48,3,65,0.6347137539521235,left,probe,ambiguous-switch,-1,12,left,left,0.346
CKB1999WRNO,2020-02-05-09-02-48,3,66,0.6762438681189595,left,both,ambiguous-switch,66,12,left,left,0.742
CKB1999WRNO,2020-02-05-09-02-48,3,67,0.6682795292480874,left,probe,biased-switch,-1,-3,left,left,0.472
CKB1999WRNO,2020-02-05-09-02-48,3,68,0.6101233524474352,left,both,biased-switch,60,-3,left,left,0.404
CKB1999WRNO,2020-02-05-09-02-48,3,69,0.5206431361202042,right,probe,biased-switch,-1,12,right,right,0.571
CKB1999WRNO,2020-02-05-09-02-48,3,70,0.5190551521902669,right,both,biased-switch,56,12,right,right,0.521
CKB1999WRNO,2020-02-05-09-02-48,3,71,0.6018511971077266,right,probe,ambiguous-switch,-1,-6,right,right,0.751
CKB1999WRNO,2020-02-05-09-02-48,3,72,0.6627625679102382,right,both,ambiguous-switch,61,-6,right,right,0.354
CKB1999WRNO,2020-02-05-09-02-48,3,73,0.6726023141122766,left,probe,ambiguous-switch,-1,18,left,left,0.442
CKB1999WRNO,2020-02-05-09-02-48,3,74,0.5307883830132276,left,both,ambiguous-switch,62,18,left,left,0.38
CKB1999WRNO,2020-02-05-09-02-48,3,75,0.5167525714894077,right,probe,biased-switch,-1,18,right,right,0.542
CKB1999WRNO,2020-02-05-09-02-48,3,76,0.6274755640511726,right,both,biased-switch,57,18,right,right,0.517
CKB1999WRNO,2020-02-05-09-02-48,3,77,0.5138066908031015,left,probe,biased-switch,-1,-18,left,left,0.576
CKB1999WRNO,2020-02-05-09-02-48,3,78,0.5965723187505073,left,both,biased-switch,56,-18,left,left,0.377
CKB1999WRNO,2020-02-05-09-02-48,3,79,0.5305949762589319,right,probe,ambiguous-switch,-1,-3,right,right,0.528
CKB1999WRNO,2020-02-05-09-02-48,3,80,0.5041136061162452,right,both,ambiguous-switch,59,-3,right,right,0.347
CKB1999WRNO,2020-02-05-09-02-48,4,1,0.5245781675267356,left,probe,ambiguous-switch,-1,18,left,left,0.458
CKB1999WRNO,2020-02-05-09-02-48,4,2,0.6502190666702432,left,both,ambiguous-switch,62,18,left,left,0.41
CKB1999WRNO,2020-02-05-09-02-48,4,3,0.6543656954978655,right,probe,ambiguous-switch,-1,12,right,right,0.521
CKB1999WRNO,2020-02-05-09-02-48,4,4,0.5689368468220957,right,both,ambiguous-switch,62,12,right,right,0.422
CKB1999WRNO,2020-02-05-09-02-48,4,5,0.566170854427368,left,probe,biased-switch,-1,-18,left,left,0.446
CKB1999WRNO,2020-02-05-09-02-48,4,6,0.5450020946315742,left,both,biased-switch,56,-18,left,left,0.45
CKB1999WRNO,2020-02-05-09-02-48,4,7,0.5500686715238021,right,probe,biased-switch,-1,0,right,right,0.559
CKB1999WRNO,2020-02-05-09-02-48,4,8,0.5025637476167963,right,both,biased-switch,61,0,right,right,0.352
CKB1999WRNO,2020-02-05-09-02-48,4,9,0.5997067484399523,right,probe,biased-switch,-1,18,right,right,0.346
CKB1999WRNO,2020-02-05-09-02-48,4,10,0.5244604706472163,right,both,biased-switch,54,18,right,right,0.285
CKB1999WRNO,2020-02-05-09-02-48,4,11,0.6396933981885938,right,probe,ambiguous-switch,-1,6,right,right,0.437
CKB1999WRNO,2020-02-05-09-02-48,4,12,0.6788440183381274,right,both,ambiguous-switch,58,6,right,right,0.322
CKB1999WRNO,2020-02-05-09-02-48,4,13,0.6007605765027649,left,probe,biased-switch,-1,-6,left,left,0.385
CKB1999WRNO,2020-02-05-09-02-48,4,14,0.5087120775543107,left,both,biased-switch,57,-6,left,left,0.352
CKB1999WRNO,2020-02-05-09-02-48,4,15,0.5636300505077496,right,probe,ambiguous-switch,-1,-3,right,right,0.419
CKB1999WRNO,2020-02-05-09-02-48,4,16,0.5207321540587712,right,both,ambiguous-switch,54,-3,right,right,0.287
CKB1999WRNO,2020-02-05-09-02-48,4,17,0.600297911313964,right,probe,ambiguous-switch,-1,-12,right,right,0.438
CKB1999WRNO,2020-02-05-09-02-48,4,18,0.6303938212249124,right,both,ambiguous-switch,54,-12,right,right,0.358
CKB1999WRNO,2020-02-05-09-02-48,4,19,0.5298374509811821,right,probe,ambiguous-switch,-1,-18,right,right,0.942
CKB1999WRNO,2020-02-05-09-02-48,4,20,0.5517448953977837,right,both,ambiguous-switch,57,-18,right,right,0.43
CKB1999WRNO,2020-02-05-09-02-48,4,21,0.6563316072368146,left,probe,ambiguous-switch,-1,24,left,left,0.485
CKB1999WRNO,2020-02-05-09-02-48,4,22,0.6306278092214966,left,both,ambiguous-switch,65,24,left,left,0.335
CKB1999WRNO,2020-02-05-09-02-48,4,23,0.5736469305142603,right,probe,biased-switch,-1,6,right,right,0.528
CKB1999WRNO,2020-02-05-09-02-48,4,24,0.5876804220150574,right,both,biased-switch,62,6,right,right,0.445
CKB1999WRNO,2020-02-05-09-02-48,4,25,0.5529113708698878,left,probe,biased-switch,-1,3,left,left,0.51
CKB1999WRNO,2020-02-05-09-02-48,4,26,0.5387880353549981,left,both,biased-switch,61,3,left,left,0.334
CKB1999WRNO,2020-02-05-09-02-48,4,27,0.5375465761258686,right,probe,biased-switch,-1,-12,right,right,0.388
CKB1999WRNO,2020-02-05-09-02-48,4,28,0.5059068359351778,right,both,biased-switch,64,-12,right,right,0.435
CKB1999WRNO,2020-02-05-09-02-48,4,29,0.5888785594625375,right,probe,biased-switch,-1,24,right,right,0.427
CKB1999WRNO,2020-02-05-09-02-48,4,30,0.5512849840634763,right,both,biased-switch,59,24,right,right,0.367
CKB1999WRNO,2020-02-05-09-02-48,4,31,0.6334972542326389,right,probe,ambiguous-switch,-1,0,right,right,0.571
CKB1999WRNO,2020-02-05-09-02-48,4,32,0.5694364285051942,right,both,ambiguous-switch,64,0,right,right,0.242
CKB1999WRNO,2020-02-05-09-02-48,4,33,0.5675170370877802,right,probe,ambiguous-switch,-1,-6,right,right,0.476
CKB1999WRNO,2020-02-05-09-02-48,4,34,0.5671838160581225,right,both,ambiguous-switch,65,-6,right,right,0.428
CKB1999WRNO,2020-02-05-09-02-48,4,35,0.5232078497006565,right,probe,biased-switch,-1,-3,right,right,0.676
CKB1999WRNO,2020-02-05-09-02-48,4,36,0.5984910361985959,right,both,biased-switch,57,-3,right,right,0.632
CKB1999WRNO,2020-02-05-09-02-48,4,37,0.6689139844707561,left,probe,ambiguous-switch,-1,3,left,left,0.611
CKB1999WRNO,2020-02-05-09-02-48,4,38,0.5615393205631403,left,both,ambiguous-switch,55,3,left,left,0.393
CKB1999WRNO,2020-02-05-09-02-48,4,39,0.5147387312199946,right,probe,biased-switch,-1,12,right,right,0.443
CKB1999WRNO,2020-02-05-09-02-48,4,40,0.605518191586562,right,both,biased-switch,55,12,right,right,0.611
CKB1999WRNO,2020-02-05-09-02-48,4,41,0.5786785489154731,left,probe,ambiguous-switch,-1,18,left,left,0.357
CKB1999WRNO,2020-02-05-09-02-48,4,42,0.5013927410782446,left,both,ambiguous-switch,60,18,left,left,0.251
CKB1999WRNO,2020-02-05-09-02-48,4,43,0.5476569838027766,right,probe,ambiguous-switch,-1,12,right,right,0.527
CKB1999WRNO,2020-02-05-09-02-48,4,44,0.6151959396642741,right,both,ambiguous-switch,59,12,right,right,0.348
CKB1999WRNO,2020-02-05-09-02-48,4,45,0.573718455075035,right,probe,biased-switch,-1,-18,right,right,0.501
CKB1999WRNO,2020-02-05-09-02-48,4,46,0.5410767627523325,right,both,biased-switch,58,-18,right,right,0.477
CKB1999WRNO,2020-02-05-09-02-48,4,47,0.5374418468630637,right,probe,biased-switch,-1,0,right,right,0.42
CKB1999WRNO,2020-02-05-09-02-48,4,48,0.6492488309572417,right,both,biased-switch,59,0,right,right,0.288
CKB1999WRNO,2020-02-05-09-02-48,4,49,0.6176447762198848,left,probe,biased-switch,-1,18,left,left,0.312
CKB1999WRNO,2020-02-05-09-02-48,4,50,0.607536759012847,left,both,biased-switch,54,18,left,left,0.577
CKB1999WRNO,2020-02-05-09-02-48,4,51,0.5093053467357967,right,probe,ambiguous-switch,-1,6,right,right,0.537
CKB1999WRNO,2020-02-05-09-02-48,4,52,0.5851233395192406,right,both,ambiguous-switch,56,6,right,right,0.383
CKB1999WRNO,2020-02-05-09-02-48,4,53,0.5858521028373319,right,probe,biased-switch,-1,-6,right,right,0.383
CKB1999WRNO,2020-02-05-09-02-48,4,54,0.5255939538410275,right,both,biased-switch,65,-6,right,right,0.465
CKB1999WRNO,2020-02-05-09-02-48,4,55,0.5588537088549228,left,probe,ambiguous-switch,-1,-3,left,left,0.494
CKB1999WRNO,2020-02-05-09-02-48,4,56,0.6913039838622201,left,both,ambiguous-switch,60,-3,left,left,0.109
CKB1999WRNO,2020-02-05-09-02-48,4,57,0.6208346550272903,left,probe,ambiguous-switch,-1,-12,left,left,0.354
CKB1999WRNO,2020-02-05-09-02-48,4,58,0.5416307048772482,left,both,ambiguous-switch,64,-12,left,left,0.392
CKB1999WRNO,2020-02-05-09-02-48,4,59,0.5520731914038415,right,probe,ambiguous-switch,-1,-18,right,right,0.651
CKB1999WRNO,2020-02-05-09-02-48,4,60,0.658247497339558,right,both,ambiguous-switch,55,-18,right,right,0.424
CKB1999WRNO,2020-02-05-09-02-48,4,61,0.5773157541175287,left,probe,ambiguous-switch,-1,24,left,left,0.366
CKB1999WRNO,2020-02-05-09-02-48,4,62,0.511706615255984,left,both,ambiguous-switch,63,24,left,left,0.417
CKB1999WRNO,2020-02-05-09-02-48,4,63,0.5453544239087375,right,probe,biased-switch,-1,6,right,right,0.462
CKB1999WRNO,2020-02-05-09-02-48,4,64,0.5791483706655006,right,both,biased-switch,62,6,right,right,0.513
CKB1999WRNO,2020-02-05-09-02-48,4,65,0.5924391860048888,right,probe,biased-switch,-1,3,right,right,0.468
CKB1999WRNO,2020-02-05-09-02-48,4,66,0.6807552526793427,right,both,biased-switch,62,3,right,right,0.372
CKB1999WRNO,2020-02-05-09-02-48,4,67,0.6169428179265972,right,probe,biased-switch,-1,-12,right,right,0.415
CKB1999WRNO,2020-02-05-09-02-48,4,68,0.6761434465471653,right,both,biased-switch,66,-12,right,right,0.318
CKB1999WRNO,2020-02-05-09-02-48,4,69,0.6669538802736725,right,probe,biased-switch,-1,24,right,right,0.805
CKB1999WRNO,2020-02-05-09-02-48,4,70,0.598142901516908,right,both,biased-switch,63,24,right,right,0.608
CKB1999WRNO,2020-02-05-09-02-48,4,71,0.6265359088323125,left,probe,ambiguous-switch,-1,0,left,left,0.372
CKB1999WRNO,2020-02-05-09-02-48,4,72,0.5445638857629294,left,both,ambiguous-switch,55,0,left,left,0.455
CKB1999WRNO,2020-02-05-09-02-48,4,73,0.5410569328724507,right,probe,ambiguous-switch,-1,-6,right,right,0.556
CKB1999WRNO,2020-02-05-09-02-48,4,74,0.6268232076953739,right,both,ambiguous-switch,62,-6,right,right,0.375
CKB1999WRNO,2020-02-05-09-02-48,4,75,0.5577555999013398,right,probe,biased-switch,-1,-3,right,right,0.377
CKB1999WRNO,2020-02-05-09-02-48,4,76,0.6378842021028086,right,both,biased-switch,64,-3,right,right,0.406
CKB1999WRNO,2020-02-05-09-02-48,4,77,0.5054447100763466,left,probe,ambiguous-switch,-1,3,left,left,0.453
CKB1999WRNO,2020-02-05-09-02-48,4,78,0.5838600325163579,left,both,ambiguous-switch,60,3,left,left,0.537
CKB1999WRNO,2020-02-05-09-02-48,4,79,0.5179414449301152,right,probe,biased-switch,-1,12,right,right,0.541
CKB1999WRNO,2020-02-05-09-02-48,4,80,0.6709963440834479,right,both,biased-switch,55,12,right,right,0.403
CKB1999WRNO,2020-02-05-09-02-48,5,1,0.5591391005413069,left,probe,biased-switch,-1,12,left,left,0.62
CKB1999WRNO,2020-02-05-09-02-48,5,2,0.5876589126323225,left,both,biased-switch,57,12,left,left,0.334
CKB1999WRNO,2020-02-05-09-02-48,5,3,0.664081625235349,right,probe,ambiguous-switch,-1,-3,right,right,0.368
CKB1999WRNO,2020-02-05-09-02-48,5,4,0.5760505052401174,right,both,ambiguous-switch,58,-3,right,right,0.521
CKB1999WRNO,2020-02-05-09-02-48,5,5,0.5608777255396699,right,probe,biased-switch,-1,24,right,right,0.497
CKB1999WRNO,2020-02-05-09-02-48,5,6,0.5758801247740403,right,both,biased-switch,56,24,right,right,0.285
CKB1999WRNO,2020-02-05-09-02-48,5,7,0.6426561500730389,left,probe,biased-switch,-1,3,left,left,0.371
CKB1999WRNO,2020-02-05-09-02-48,5,8,0.6581850200606134,left,both,biased-switch,57,3,left,left,0.529
CKB1999WRNO,2020-02-05-09-02-48,5,9,0.540149189046039,right,probe,ambiguous-switch,-1,18,right,right,0.377
CKB1999WRNO,2020-02-05-09-02-48,5,10,0.5854932070369365,right,both,ambiguous-switch,57,18,right,right,0.258
CKB1999WRNO,2020-02-05-09-02-48,5,11,0.6472574098148323,right,probe,ambiguous-switch,-1,-12,right,right,0.372
CKB1999WRNO,2020-02-05-09-02-48,5,12,0.6954156330403567,right,both,ambiguous-switch,56,-12,right,right,0.314
CKB1999WRNO,2020-02-05-09-02-48,5,13,0.5622554377437466,right,probe,biased-switch,-1,-3,right,right,0.355
CKB1999WRNO,2020-02-05-09-02-48,5,14,0.5666321615926083,right,both,biased-switch,60,-3,right,right,0.447
CKB1999WRNO,2020-02-05-09-02-48,5,15,0.5265985267189486,left,probe,biased-switch,-1,18,left,left,0.524
CKB1999WRNO,2020-02-05-09-02-48,5,16,0.6720846317466419,left,both,biased-switch,56,18,left,left,0.314
CKB1999WRNO,2020-02-05-09-02-48,5,17,0.6376726853519645,right,probe,biased-switch,-1,6,right,right,0.395
CKB1999WRNO,2020-02-05-09-02-48,5,18,0.5251578792459096,right,both,biased-switch,54,6,right,right,0.308
CKB1999WRNO,2020-02-05-09-02-48,5,19,0.5312412804308092,right,probe,biased-switch,-1,-12,right,right,0.32
CKB1999WRNO,2020-02-05-09-02-48,5,20,0.5877702131365425,right,both,biased-switch,63,-12,right,right,0.389
CKB1999WRNO,2020-02-05-09-02-48,5,21,0.5723302260253119,right,probe,ambiguous-switch,-1,-18,right,right,0.43
CKB1999WRNO,2020-02-05-09-02-48,5,22,0.543741555174192,right,both,ambiguous-switch,57,-18,right,right,0.62
CKB1999WRNO,2020-02-05-09-02-48,5,23,0.6758695900977234,left,probe,biased-switch,-1,-6,left,left,0.5
CKB1999WRNO,2020-02-05-09-02-48,5,24,0.5265767294676109,left,both,biased-switch,63,-6,left,left,0.346
CKB1999WRNO,2020-02-05-09-02-48,5,25,0.564564783286573,left,probe,ambiguous-switch,-1,-6,left,left,0.614
CKB1999WRNO,2020-02-05-09-02-48,5,26,0.6260705873348118,left,both,ambiguous-switch,57,-6,left,left,0.476
CKB1999WRNO,2020-02-05-09-02-48,5,27,0.5723628713944259,left,probe,biased-switch,-1,0,left,left,0.339
CKB1999WRNO,2020-02-05-09-02-48,5,28,0.517910616347248,left,both,biased-switch,65,0,left,left,0.304
CKB1999WRNO,2020-02-05-09-02-48,5,29,0.5693505148944424,right,probe,ambiguous-switch,-1,12,right,right,0.448
CKB1999WRNO,2020-02-05-09-02-48,5,30,0.5686036469249274,right,both,ambiguous-switch,62,12,right,right,0.364
CKB1999WRNO,2020-02-05-09-02-48,5,31,0.5155186930271128,right,probe,ambiguous-switch,-1,0,right,right,0.365
CKB1999WRNO,2020-02-05-09-02-48,5,32,0.5440513045132176,right,both,ambiguous-switch,57,0,right,right,0.387
CKB1999WRNO,2020-02-05-09-02-48,5,33,0.5448566013913625,left,probe,ambiguous-switch,-1,3,left,left,0.413
CKB1999WRNO,2020-02-05-09-02-48,5,34,0.532393980686283,left,both,ambiguous-switch,61,3,left,left,0.402
CKB1999WRNO,2020-02-05-09-02-48,5,35,0.5948311951348971,right,probe,ambiguous-switch,-1,24,right,right,0.603
CKB1999WRNO,2020-02-05-09-02-48,5,36,0.6286687851385646,right,both,ambiguous-switch,65,24,right,right,0.582
CKB1999WRNO,2020-02-05-09-02-48,5,37,0.668451621262942,left,probe,ambiguous-switch,-1,6,left,left,0.509
CKB1999WRNO,2020-02-05-09-02-48,5,38,0.5030676585217905,left,both,ambiguous-switch,61,6,left,left,0.485
CKB1999WRNO,2020-02-05-09-02-48,5,39,0.5025311840850636,right,probe,biased-switch,-1,-18,right,right,0.558
CKB1999WRNO,2020-02-05-09-02-48,5,40,0.5971494512717443,right,both,biased-switch,58,-18,right,right,0.432
CKB1999WRNO,2020-02-05-09-02-48,5,41,0.636848404285832,right,probe,biased-switch,-1,12,right,right,0.548
CKB1999WRNO,2020-02-05-09-02-48,5,42,0.6808499229538754,right,both,biased-switch,64,12,right,right,0.527
CKB1999WRNO,2020-02-05-09-02-48,5,43,0.561638343622163,right,probe,ambiguous-switch,-1,-3,right,right,0.296
CKB1999WRNO,2020-02-05-09-02-48,5,44,0.627483921817666,right,both,ambiguous-switch,55,-3,right,right,0.264
CKB1999WRNO,2020-02-05-09-02-48,5,45,0.5057782351536855,right,probe,biased-switch,-1,24,right,right,0.281
CKB1999WRNO,2020-02-05-09-02-48,5,46,0.5905421808327583,right,both,biased-switch,65,24,right,right,0.312
CKB1999WRNO,2020-02-05-09-02-48,5,47,0.5405277881085823,left,probe,biased-switch,-1,3,left,left,0.337
CKB1999WRNO,2020-02-05-09-02-48,5,48,0.6655467588198218,left,both,biased-switch,58,3,left,left,0.289
CKB1999WRNO,2020-02-05-09-02-48,5,49,0.6231425884292741,right,probe,ambiguous-switch,-1,18,right,right,0.339
CKB1999WRNO,2020-02-05-09-02-48,5,50,0.5958133633784163,right,both,ambiguous-switch,64,18,right,right,0.469
CKB1999WRNO,2020-02-05-09-02-48,5,51,0.5482132477122184,left,probe,ambiguous-switch,-1,-12,left,left,0.368
CKB1999WRNO,2020-02-05-09-02-48,5,52,0.6148517339770397,left,both,ambiguous-switch,57,-12,left,left,0.435
CKB1999WRNO,2020-02-05-09-02-48,5,53,0.5750980759317083,right,probe,biased-switch,-1,-3,right,right,1.345
CKB1999WRNO,2020-02-05-09-02-48,5,54,0.6743892735955364,right,both,biased-switch,58,-3,right,right,1.165
CKB1999WRNO,2020-02-05-09-02-48,5,55,0.6712725154432371,right,probe,biased-switch,-1,18,right,right,0.329
CKB1999WRNO,2020-02-05-09-02-48,5,56,0.5034769756048464,right,both,biased-switch,55,18,right,right,0.288
CKB1999WRNO,2020-02-05-09-02-48,5,57,0.6442603153767176,left,probe,biased-switch,-1,6,left,left,0.332
CKB1999WRNO,2020-02-05-09-02-48,5,58,0.5265332079278241,left,both,biased-switch,55,6,left,left,0.374
CKB1999WRNO,2020-02-05-09-02-48,5,59,0.5453117218729793,right,probe,biased-switch,-1,-12,right,right,0.468
CKB1999WRNO,2020-02-05-09-02-48,5,60,0.6523879376352995,right,both,biased-switch,62,-12,right,right,0.337
CKB1999WRNO,2020-02-05-09-02-48,5,61,0.6461634310124127,right,probe,ambiguous-switch,-1,-18,right,right,0.518
CKB1999WRNO,2020-02-05-09-02-48,5,62,0.5804566799690092,right,both,ambiguous-switch,60,-18,right,right,0.588
CKB1999WRNO,2020-02-05-09-02-48,5,63,0.6846470473860273,right,probe,biased-switch,-1,-6,right,right,0.859
CKB1999WRNO,2020-02-05-09-02-48,5,64,0.6363020913281472,right,both,biased-switch,56,-6,right,right,0.365
CKB1999WRNO,2020-02-05-09-02-48,5,65,0.6136150868363517,right,probe,ambiguous-switch,-1,-6,right,right,0.56
CKB1999WRNO,2020-02-05-09-02-48,5,66,0.6904191242155584,right,both,ambiguous-switch,63,-6,right,right,0.343
CKB1999WRNO,2020-02-05-09-02-48,5,67,0.5420349071015954,left,probe,biased-switch,-1,0,left,left,0.343
CKB1999WRNO,2020-02-05-09-02-48,5,68,0.6555563434555798,left,both,biased-switch,57,0,left,left,0.333
CKB1999WRNO,2020-02-05-09-02-48,5,69,0.6140200894521584,right,probe,ambiguous-switch,-1,12,right,right,0.333
CKB1999WRNO,2020-02-05-09-02-48,5,70,0.6104788521865449,right,both,ambiguous-switch,63,12,right,right,0.327
CKB1999WRNO,2020-02-05-09-02-48,5,71,0.5139968546109955,left,probe,ambiguous-switch,-1,0,left,left,0.684
CKB1999WRNO,2020-02-05-09-02-48,5,72,0.5495621599962663,left,both,ambiguous-switch,61,0,left,left,0.548
CKB1999WRNO,2020-02-05-09-02-48,5,73,0.6357616086466339,left,probe,ambiguous-switch,-1,3,left,left,0.505
CKB1999WRNO,2020-02-05-09-02-48,5,74,0.6603845377929473,left,both,ambiguous-switch,61,3,left,left,0.353
CKB1999WRNO,2020-02-05-09-02-48,5,75,0.5372115198964349,left,probe,ambiguous-switch,-1,24,left,left,0.379
CKB1999WRNO,2020-02-05-09-02-48,5,76,0.5034764761999034,left,both,ambiguous-switch,56,24,left,left,0.279
CKB1999WRNO,2020-02-05-09-02-48,5,77,0.6051546075454715,right,probe,ambiguous-switch,-1,6,right,right,0.485
CKB1999WRNO,2020-02-05-09-02-48,5,78,0.6675395273292672,right,both,ambiguous-switch,60,6,right,right,0.363
CKB1999WRNO,2020-02-05-09-02-48,5,79,0.657835457264194,right,probe,biased-switch,-1,-18,right,right,0.464
CKB1999WRNO,2020-02-05-09-02-48,5,80,0.6391975296453137,right,both,biased-switch,57,-18,right,right,0.444
CKB1999WRNO,2020-02-05-09-02-48,6,1,0.5755572731248417,left,probe,biased-switch,-1,-6,left,left,0.471
CKB1999WRNO,2020-02-05-09-02-48,6,2,0.5778793936097766,left,both,biased-switch,61,-6,left,left,0.3
CKB1999WRNO,2020-02-05-09-02-48,6,3,0.5919125479348488,left,probe,ambiguous-switch,-1,24,left,left,0.449
CKB1999WRNO,2020-02-05-09-02-48,6,4,0.5235764835104397,left,both,ambiguous-switch,62,24,left,left,0.393
CKB1999WRNO,2020-02-05-09-02-48,6,5,0.635359573360168,right,probe,biased-switch,-1,24,right,right,0.328
CKB1999WRNO,2020-02-05-09-02-48,6,6,0.5043391795848368,right,both,biased-switch,65,24,right,right,0.551
CKB1999WRNO,2020-02-05-09-02-48,6,7,0.6007285448475909,right,probe,ambiguous-switch,-1,-18,right,right,0.56
CKB1999WRNO,2020-02-05-09-02-48,6,8,0.5352612432213463,right,both,ambiguous-switch,63,-18,right,right,0.576
CKB1999WRNO,2020-02-05-09-02-48,6,9,0.548486707050207,right,probe,biased-switch,-1,-3,right,right,0.562
CKB1999WRNO,2020-02-05-09-02-48,6,10,0.5522390676735525,right,both,biased-switch,65,-3,right,right,0.333
CKB1999WRNO,2020-02-05-09-02-48,6,11,0.5755471254847405,left,probe,biased-switch,-1,3,left,left,0.482
CKB1999WRNO,2020-02-05-09-02-48,6,12,0.511586894138094,left,both,biased-switch,65,3,left,left,0.554
CKB1999WRNO,2020-02-05-09-02-48,6,13,0.6509767600776644,left,probe,biased-switch,-1,6,left,left,0.544
CKB1999WRNO,2020-02-05-09-02-48,6,14,0.6704136307423115,left,both,biased-switch,66,6,left,left,0.363
CKB1999WRNO,2020-02-05-09-02-48,6,15,0.6039056873574531,right,probe,ambiguous-switch,-1,-6,right,right,0.551
CKB1999WRNO,2020-02-05-09-02-48,6,16,0.5634961686059066,right,both,ambiguous-switch,63,-6,right,right,0.497
CKB1999WRNO,2020-02-05-09-02-48,6,17,0.6005544164792757,left,probe,ambiguous-switch,-1,6,left,left,0.453
CKB1999WRNO,2020-02-05-09-02-48,6,18,0.5455429166734349,left,both,ambiguous-switch,60,6,left,left,0.441
CKB1999WRNO,2020-02-05-09-02-48,6,19,0.6178272745025271,left,probe,biased-switch,-1,18,left,left,0.563
CKB1999WRNO,2020-02-05-09-02-48,6,20,0.6907152748555628,left,both,biased-switch,55,18,left,left,0.43
CKB1999WRNO,2020-02-05-09-02-48,6,21,0.691733344886853,left,probe,ambiguous-switch,-1,3,left,left,0.535
CKB1999WRNO,2020-02-05-09-02-48,6,22,0.6544699522231013,left,both,ambiguous-switch,66,3,left,left,0.292
CKB1999WRNO,2020-02-05-09-02-48,6,23,0.5380987063244653,right,probe,ambiguous-switch,-1,12,right,right,0.437
CKB1999WRNO,2020-02-05-09-02-48,6,24,0.6257182257921481,right,both,ambiguous-switch,59,12,right,right,0.335
CKB1999WRNO,2020-02-05-09-02-48,6,25,0.5363609690222727,left,probe,biased-switch,-1,12,left,left,0.959
CKB1999WRNO,2020-02-05-09-02-48,6,26,0.692820900504622,left,both,biased-switch,60,12,left,left,0.468
CKB1999WRNO,2020-02-05-09-02-48,6,27,0.5313421002522581,right,probe,biased-switch,-1,-18,right,right,0.388
CKB1999WRNO,2020-02-05-09-02-48,6,28,0.650703841072362,right,both,biased-switch,56,-18,right,right,0.331
CKB1999WRNO,2020-02-05-09-02-48,6,29,0.6221510422356302,left,probe,ambiguous-switch,-1,-3,left,left,0.335
CKB1999WRNO,2020-02-05-09-02-48,6,30,0.5241974337751911,left,both,ambiguous-switch,55,-3,left,left,0.317
CKB1999WRNO,2020-02-05-09-02-48,6,31,0.6218861929797848,left,probe,ambiguous-switch,-1,0,left,left,0.515
CKB1999WRNO,2020-02-05-09-02-48,6,32,0.6737359598727609,left,both,ambiguous-switch,62,0,left,left,0.305
CKB1999WRNO,2020-02-05-09-02-48,6,33,0.5490752284737578,right,probe,ambiguous-switch,-1,18,right,right,0.493
CKB1999WRNO,2020-02-05-09-02-48,6,34,0.6980403325411759,right,both,ambiguous-switch,57,18,right,right,0.477
CKB1999WRNO,2020-02-05-09-02-48,6,35,0.5708837985405167,right,probe,biased-switch,-1,-12,right,right,0.365
CKB1999WRNO,2020-02-05-09-02-48,6,36,0.6474173625377027,right,both,biased-switch,64,-12,right,right,1.336
CKB1999WRNO,2020-02-05-09-02-48,6,37,0.6975856391435116,left,probe,biased-switch,-1,0,left,left,0.341
CKB1999WRNO,2020-02-05-09-02-48,6,38,0.5026578784082012,left,both,biased-switch,59,0,left,left,0.48
CKB1999WRNO,2020-02-05-09-02-48,6,39,0.5502103153755847,right,probe,ambiguous-switch,-1,-12,right,right,0.682
CKB1999WRNO,2020-02-05-09-02-48,6,40,0.5243848793879177,right,both,ambiguous-switch,66,-12,right,right,0.51
CKB1999WRNO,2020-02-05-09-02-48,6,41,0.6927310959466842,left,probe,biased-switch,-1,-6,left,left,0.511
CKB1999WRNO,2020-02-05-09-02-48,6,42,0.6409722344352559,left,both,biased-switch,61,-6,left,left,0.432
CKB1999WRNO,2020-02-05-09-02-48,6,43,0.5771289053389456,right,probe,ambiguous-switch,-1,24,right,right,0.455
CKB1999WRNO,2020-02-05-09-02-48,6,44,0.5509371012032789,right,both,ambiguous-switch,66,24,right,right,0.345
CKB1999WRNO,2020-02-05-09-02-48,6,45,0.5576420304419332,left,probe,biased-switch,-1,24,left,left,0.384
CKB1999WRNO,2020-02-05-09-02-48,6,46,0.5384358046019326,left,both,biased-switch,63,24,left,left,0.356
CKB1999WRNO,2020-02-05-09-02-48,6,47,0.5418634048830397,left,probe,ambiguous-switch,-1,-18,left,left,0.856
CKB1999WRNO,2020-02-05-09-02-48,6,48,0.5016563316418252,left,both,ambiguous-switch,60,-18,left,left,0.299
CKB1999WRNO,2020-02-05-09-02-48,6,49,0.5419240122928312,left,probe,biased-switch,-1,-3,left,left,0.572
CKB1999WRNO,2020-02-05-09-02-48,6,50,0.6786935470852167,left,both,biased-switch,60,-3,left,left,0.568
CKB1999WRNO,2020-02-05-09-02-48,6,51,0.5405065538966454,left,probe,biased-switch,-1,3,left,left,0.428
CKB1999WRNO,2020-02-05-09-02-48,6,52,0.6247102969176224,left,both,biased-switch,61,3,left,left,0.383
CKB1999WRNO,2020-02-05-09-02-48,6,53,0.6216214106725597,left,probe,biased-switch,-1,6,left,left,0.452
CKB1999WRNO,2020-02-05-09-02-48,6,54,0.6434782856862447,left,both,biased-switch,66,6,left,left,0.274
CKB1999WRNO,2020-02-05-09-02-48,6,55,0.634010455719091,left,probe,ambiguous-switch,-1,-6,left,left,0.664
CKB1999WRNO,2020-02-05-09-02-48,6,56,0.5641116768008765,left,both,ambiguous-switch,61,-6,left,left,0.43
CKB1999WRNO,2020-02-05-09-02-48,6,57,0.5617596747931674,left,probe,ambiguous-switch,-1,6,left,left,0.482
CKB1999WRNO,2020-02-05-09-02-48,6,58,0.671762218299204,left,both,ambiguous-switch,58,6,left,left,0.31
CKB1999WRNO,2020-02-05-09-02-48,6,59,0.6702604599750651,right,probe,biased-switch,-1,18,right,right,0.369
CKB1999WRNO,2020-02-05-09-02-48,6,60,0.5793394706332666,right,both,biased-switch,61,18,right,right,0.609
CKB1999WRNO,2020-02-05-09-02-48,6,61,0.6323623227276016,left,probe,ambiguous-switch,-1,3,left,left,0.335
CKB1999WRNO,2020-02-05-09-02-48,6,62,0.544593710907223,left,both,ambiguous-switch,59,3,left,left,0.276
CKB1999WRNO,2020-02-05-09-02-48,6,63,0.6322764436045186,right,probe,ambiguous-switch,-1,12,right,right,0.414
CKB1999WRNO,2020-02-05-09-02-48,6,64,0.6880461491345862,right,both,ambiguous-switch,63,12,right,right,0.264
CKB1999WRNO,2020-02-05-09-02-48,6,65,0.52290281801483,right,probe,biased-switch,-1,12,right,right,0.319
CKB1999WRNO,2020-02-05-09-02-48,6,66,0.556468258545424,right,both,biased-switch,58,12,right,right,0.271
CKB1999WRNO,2020-02-05-09-02-48,6,67,0.5238045196736159,left,probe,biased-switch,-1,-18,left,left,0.347
CKB1999WRNO,2020-02-05-09-02-48,6,68,0.5046975697772264,left,both,biased-switch,60,-18,left,left,0.364
CKB1999WRNO,2020-02-05-09-02-48,6,69,0.6573179609210866,right,probe,ambiguous-switch,-1,-3,right,right,0.5
CKB1999WRNO,2020-02-05-09-02-48,6,70,0.6011635869243784,right,both,ambiguous-switch,55,-3,right,right,0.248
CKB1999WRNO,2020-02-05-09-02-48,6,71,0.5952715978119536,left,probe,ambiguous-switch,-1,0,left,left,1.271
CKB1999WRNO,2020-02-05-09-02-48,6,72,0.6504138695002515,left,both,ambiguous-switch,59,0,left,left,0.418
CKB1999WRNO,2020-02-05-09-02-48,6,73,0.6998900572372128,left,probe,ambiguous-switch,-1,18,left,left,0.377
CKB1999WRNO,2020-02-05-09-02-48,6,74,0.6323446805200867,left,both,ambiguous-switch,54,18,left,left,0.316
CKB1999WRNO,2020-02-05-09-02-48,6,75,0.6168519231587813,left,probe,biased-switch,-1,-12,left,left,0.338
CKB1999WRNO,2020-02-05-09-02-48,6,76,0.6987015068753839,left,both,biased-switch,57,-12,left,left,0.289
CKB1999WRNO,2020-02-05-09-02-48,6,77,0.614852315890367,right,probe,biased-switch,-1,0,right,right,0.529
CKB1999WRNO,2020-02-05-09-02-48,6,78,0.5088926988362936,right,both,biased-switch,63,0,right,right,0.375
CKB1999WRNO,2020-02-05-09-02-48,6,79,0.6112908991062357,left,probe,ambiguous-switch,-1,-12,left,left,0.393
CKB1999WRNO,2020-02-05-09-02-48,6,80,0.576296438370894,left,both,ambiguous-switch,65,-12,left,left,0.366
CKB1999WRNO,2020-02-05-09-02-48,7,1,0.5888849680168378,left,probe,biased-switch,-1,-12,left,left,0.742
CKB1999WRNO,2020-02-05-09-02-48,7,2,0.6465847649447951,left,both,biased-switch,62,-12,left,left,0.064
CKB1999WRNO,2020-02-05-09-02-48,7,3,0.6361463549108006,left,probe,biased-switch,-1,24,left,left,0.328
CKB1999WRNO,2020-02-05-09-02-48,7,4,0.50678376894976,left,both,biased-switch,63,24,left,left,0.276
CKB1999WRNO,2020-02-05-09-02-48,7,5,0.6561898468461023,right,probe,ambiguous-switch,-1,6,right,right,0.396
CKB1999WRNO,2020-02-05-09-02-48,7,6,0.5636522169884935,right,both,ambiguous-switch,58,6,right,right,0.447
CKB1999WRNO,2020-02-05-09-02-48,7,7,0.5450544672952897,left,probe,biased-switch,-1,12,left,left,0.357
CKB1999WRNO,2020-02-05-09-02-48,7,8,0.5696694853030155,left,both,biased-switch,64,12,left,left,0.284
CKB1999WRNO,2020-02-05-09-02-48,7,9,0.5259579745886132,left,probe,biased-switch,-1,0,left,left,0.284
CKB1999WRNO,2020-02-05-09-02-48,7,10,0.5667311173853214,left,both,biased-switch,58,0,left,left,0.308
CKB1999WRNO,2020-02-05-09-02-48,7,11,0.5364241212065928,right,probe,biased-switch,-1,-3,right,right,0.477
CKB1999WRNO,2020-02-05-09-02-48,7,12,0.5522502454507244,right,both,biased-switch,62,-3,right,right,0.333
CKB1999WRNO,2020-02-05-09-02-48,7,13,0.6635970381373701,left,probe,biased-switch,-1,3,left,left,0.366
CKB1999WRNO,2020-02-05-09-02-48,7,14,0.6409337437714782,left,both,biased-switch,62,3,left,left,0.319
CKB1999WRNO,2020-02-05-09-02-48,7,15,0.667007204628718,left,probe,ambiguous-switch,-1,-18,left,left,0.825
CKB1999WRNO,2020-02-05-09-02-48,7,16,0.5987758010265678,left,both,ambiguous-switch,58,-18,left,left,0.369
CKB1999WRNO,2020-02-05-09-02-48,7,17,0.5871061253620322,left,probe,ambiguous-switch,-1,18,left,left,0.305
CKB1999WRNO,2020-02-05-09-02-48,7,18,0.5138763223652707,left,both,ambiguous-switch,59,18,left,left,0.264
CKB1999WRNO,2020-02-05-09-02-48,7,19,0.5585769270381737,left,probe,ambiguous-switch,-1,-3,left,left,0.393
CKB1999WRNO,2020-02-05-09-02-48,7,20,0.5957603041191019,left,both,ambiguous-switch,65,-3,left,left,0.368
CKB1999WRNO,2020-02-05-09-02-48,7,21,0.5400841105477125,left,probe,ambiguous-switch,-1,-6,left,left,0.556
CKB1999WRNO,2020-02-05-09-02-48,7,22,0.5113116516163372,left,both,ambiguous-switch,63,-6,left,left,0.376
CKB1999WRNO,2020-02-05-09-02-48,7,23,0.5203790278950194,left,probe,biased-switch,-1,6,left,left,0.606
CKB1999WRNO,2020-02-05-09-02-48,7,24,0.6454524601791221,left,both,biased-switch,58,6,left,left,0.366
CKB1999WRNO,2020-02-05-09-02-48,7,25,0.593051440053701,left,probe,biased-switch,-1,-6,left,left,0.708
CKB1999WRNO,2020-02-05-09-02-48,7,26,0.6589087160747549,left,both,biased-switch,63,-6,left,left,0.353
CKB1999WRNO,2020-02-05-09-02-48,7,27,0.6941577896832941,left,probe,ambiguous-switch,-1,-12,left,left,0.442
CKB1999WRNO,2020-02-05-09-02-48,7,28,0.5457257964196155,left,both,ambiguous-switch,66,-12,left,left,0.46
CKB1999WRNO,2020-02-05-09-02-48,7,29,0.5619038903815031,right,probe,ambiguous-switch,-1,3,right,right,0.298
CKB1999WRNO,2020-02-05-09-02-48,7,30,0.653495541862599,right,both,ambiguous-switch,64,3,right,right,0.362
CKB1999WRNO,2020-02-05-09-02-48,7,31,0.6200136710917292,right,probe,ambiguous-switch,-1,0,right,right,0.348
CKB1999WRNO,2020-02-05-09-02-48,7,32,0.6351327054375857,right,both,ambiguous-switch,65,0,right,right,1.126
CKB1999WRNO,2020-02-05-09-02-48,7,33,0.6483839917856075,right,probe,biased-switch,-1,-18,right,right,0.498
CKB1999WRNO,2020-02-05-09-02-48,7,34,0.5123704883699856,right,both,biased-switch,55,-18,right,right,0.471
CKB1999WRNO,2020-02-05-09-02-48,7,35,0.6717459940864461,left,probe,ambiguous-switch,-1,24,left,left,0.749
CKB1999WRNO,2020-02-05-09-02-48,7,36,0.5452791629728089,left,both,ambiguous-switch,59,24,left,left,0.357
CKB1999WRNO,2020-02-05-09-02-48,7,37,0.5411727109624684,left,probe,ambiguous-switch,-1,12,left,left,0.393
CKB1999WRNO,2020-02-05-09-02-48,7,38,0.6732812990961753,left,both,ambiguous-switch,59,12,left,left,0.241
CKB1999WRNO,2020-02-05-09-02-48,7,39,0.6945647696426068,right,probe,biased-switch,-1,18,right,right,0.636
CKB1999WRNO,2020-02-05-09-02-48,7,40,0.5949109493069148,right,both,biased-switch,64,18,right,right,0.781
CKB1999WRNO,2020-02-05-09-02-48,7,41,0.5103103306193032,right,probe,biased-switch,-1,-12,right,right,0.632
CKB1999WRNO,2020-02-05-09-02-48,7,42,0.5841831513666822,right,both,biased-switch,57,-12,right,right,0.372
CKB1999WRNO,2020-02-05-09-02-48,7,43,0.655049829953514,right,probe,biased-switch,-1,24,right,right,0.469
CKB1999WRNO,2020-02-05-09-02-48,7,44,0.5187979764562926,right,both,biased-switch,63,24,right,right,0.334
CKB1999WRNO,2020-02-05-09-02-48,7,45,0.6723638565537745,right,probe,ambiguous-switch,-1,6,right,right,0.445
CKB1999WRNO,2020-02-05-09-02-48,7,46,0.5753878664567743,right,both,ambiguous-switch,60,6,right,right,0.407
CKB1999WRNO,2020-02-05-09-02-48,7,47,0.6563709248651526,right,probe,biased-switch,-1,12,right,right,0.436
CKB1999WRNO,2020-02-05-09-02-48,7,48,0.5916885612046304,right,both,biased-switch,61,12,right,right,0.446
CKB1999WRNO,2020-02-05-09-02-48,7,49,0.6289237893597965,right,probe,biased-switch,-1,0,right,right,0.441
CKB1999WRNO,2020-02-05-09-02-48,7,50,0.5561329522703017,right,both,biased-switch,65,0,right,right,0.284
CKB1999WRNO,2020-02-05-09-02-48,7,51,0.6123066535160637,left,probe,biased-switch,-1,-3,left,left,0.83
CKB1999WRNO,2020-02-05-09-02-48,7,52,0.69562627780075,left,both,biased-switch,64,-3,left,left,0.354
CKB1999WRNO,2020-02-05-09-02-48,7,53,0.603575689169065,left,probe,biased-switch,-1,3,left,left,0.374
CKB1999WRNO,2020-02-05-09-02-48,7,54,0.6483771738963144,left,both,biased-switch,62,3,left,left,0.321
CKB1999WRNO,2020-02-05-09-02-48,7,55,0.6753501057957132,right,probe,ambiguous-switch,-1,-18,right,right,0.535
CKB1999WRNO,2020-02-05-09-02-48,7,56,0.533896159646872,right,both,ambiguous-switch,59,-18,right,right,0.473
CKB1999WRNO,2020-02-05-09-02-48,7,57,0.6351080504191193,right,probe,ambiguous-switch,-1,18,right,right,0.406
CKB1999WRNO,2020-02-05-09-02-48,7,58,0.6697310689324194,right,both,ambiguous-switch,63,18,right,right,0.483
CKB1999WRNO,2020-02-05-09-02-48,7,59,0.6466012393625478,right,probe,ambiguous-switch,-1,-3,right,right,0.58
CKB1999WRNO,2020-02-05-09-02-48,7,60,0.6736148799209092,right,both,ambiguous-switch,55,-3,right,right,0.35
CKB1999WRNO,2020-02-05-09-02-48,7,61,0.546888550114601,left,probe,ambiguous-switch,-1,-6,left,left,0.357
CKB1999WRNO,2020-02-05-09-02-48,7,62,0.6115090560086438,left,both,ambiguous-switch,62,-6,left,left,0.314
CKB1999WRNO,2020-02-05-09-02-48,7,63,0.5580842429429005,left,probe,biased-switch,-1,6,left,left,0.339
CKB1999WRNO,2020-02-05-09-02-48,7,64,0.6699070582415897,left,both,biased-switch,58,6,left,left,0.313
CKB1999WRNO,2020-02-05-09-02-48,7,65,0.6444731771331245,left,probe,biased-switch,-1,-6,left,left,0.392
CKB1999WRNO,2020-02-05-09-02-48,7,66,0.5397528631723626,left,both,biased-switch,56,-6,left,left,0.345
CKB1999WRNO,2020-02-05-09-02-48,7,67,0.6052880860537888,left,probe,ambiguous-switch,-1,-12,left,left,0.373
CKB1999WRNO,2020-02-05-09-02-48,7,68,0.6474466878725436,left,both,ambiguous-switch,63,-12,left,left,1.337
CKB1999WRNO,2020-02-05-09-02-48,7,69,0.5068421633639891,right,probe,ambiguous-switch,-1,3,right,right,0.362
CKB1999WRNO,2020-02-05-09-02-48,7,70,0.5459011196472832,right,both,ambiguous-switch,59,3,right,right,0.548
CKB1999WRNO,2020-02-05-09-02-48,7,71,0.6680405760475179,left,probe,ambiguous-switch,-1,0,left,left,0.566
CKB1999WRNO,2020-02-05-09-02-48,7,72,0.6212164613397728,left,both,ambiguous-switch,57,0,left,left,0.344
CKB1999WRNO,2020-02-05-09-02-48,7,73,0.6891159892068546,right,probe,biased-switch,-1,-18,right,right,0.411
CKB1999WRNO,2020-02-05-09-02-48,7,74,0.6959338611117224,right,both,biased-switch,55,-18,right,right,0.463
CKB1999WRNO,2020-02-05-09-02-48,7,75,0.5678997165424557,right,probe,ambiguous-switch,-1,24,right,right,0.754
CKB1999WRNO,2020-02-05-09-02-48,7,76,0.6045572609962914,right,both,ambiguous-switch,64,24,right,right,0.502
CKB1999WRNO,2020-02-05-09-02-48,7,77,0.6885458420059565,right,probe,ambiguous-switch,-1,12,right,right,0.361
CKB1999WRNO,2020-02-05-09-02-48,7,78,0.6989297037333376,right,both,ambiguous-switch,60,12,right,right,0.28
CKB1999WRNO,2020-02-05-09-02-48,7,79,0.6092536138477955,left,probe,biased-switch,-1,18,right,right,0.575
CKB1999WRNO,2020-02-05-09-02-48,7,80,0.600564815248827,left,both,biased-switch,60,18,right,left,0.315
CKB1999WRNO,2020-02-05-09-02-48,8,1,0.6785602419326171,right,probe,ambiguous-switch,-1,-18,right,right,0.359
CKB1999WRNO,2020-02-05-09-02-48,8,2,0.5676547636296807,right,both,ambiguous-switch,61,-18,right,right,0.483
CKB1999WRNO,2020-02-05-09-02-48,8,3,0.6773174879980726,left,probe,ambiguous-switch,-1,-12,left,left,0.305
CKB1999WRNO,2020-02-05-09-02-48,8,4,0.6244999822526002,left,both,ambiguous-switch,57,-12,left,left,0.513
CKB1999WRNO,2020-02-05-09-02-48,8,5,0.5352869369052433,left,probe,biased-switch,-1,3,left,left,0.494
CKB1999WRNO,2020-02-05-09-02-48,8,6,0.6758156554696135,left,both,biased-switch,63,3,left,left,0.289
CKB1999WRNO,2020-02-05-09-02-48,8,7,0.6225034508148878,left,probe,biased-switch,-1,18,left,left,0.456
CKB1999WRNO,2020-02-05-09-02-48,8,8,0.5880229973804061,left,both,biased-switch,64,18,left,left,0.318
CKB1999WRNO,2020-02-05-09-02-48,8,9,0.5794948358531153,right,probe,ambiguous-switch,-1,18,right,right,0.668
CKB1999WRNO,2020-02-05-09-02-48,8,10,0.5781086691206817,right,both,ambiguous-switch,60,18,right,right,0.314
CKB1999WRNO,2020-02-05-09-02-48,8,11,0.5948634946714705,left,probe,biased-switch,-1,12,left,left,0.767
CKB1999WRNO,2020-02-05-09-02-48,8,12,0.5290829043818975,left,both,biased-switch,60,12,left,left,0.312
CKB1999WRNO,2020-02-05-09-02-48,8,13,0.6843703181356959,right,probe,ambiguous-switch,-1,24,right,right,0.476
CKB1999WRNO,2020-02-05-09-02-48,8,14,0.5367234942351052,right,both,ambiguous-switch,63,24,right,right,0.647
CKB1999WRNO,2020-02-05-09-02-48,8,15,0.5769074161535948,left,probe,ambiguous-switch,-1,6,left,left,0.482
CKB1999WRNO,2020-02-05-09-02-48,8,16,0.5311475725260961,left,both,ambiguous-switch,57,6,left,left,0.342
CKB1999WRNO,2020-02-05-09-02-48,8,17,0.5623460637437513,right,probe,biased-switch,-1,-6,right,right,0.436
CKB1999WRNO,2020-02-05-09-02-48,8,18,0.5575931794926239,right,both,biased-switch,59,-6,right,right,0.233
CKB1999WRNO,2020-02-05-09-02-48,8,19,0.601603283747864,left,probe,biased-switch,-1,24,left,left,0.304
CKB1999WRNO,2020-02-05-09-02-48,8,20,0.5738327405156634,left,both,biased-switch,63,24,left,left,0.343
CKB1999WRNO,2020-02-05-09-02-48,8,21,0.6611176775244222,right,probe,ambiguous-switch,-1,12,right,right,0.845
CKB1999WRNO,2020-02-05-09-02-48,8,22,0.582832495118202,right,both,ambiguous-switch,63,12,right,right,0.447
CKB1999WRNO,2020-02-05-09-02-48,8,23,0.5130275421310976,left,probe,biased-switch,-1,6,left,left,0.574
CKB1999WRNO,2020-02-05-09-02-48,8,24,0.5206871181185321,left,both,biased-switch,58,6,left,left,0.558
CKB1999WRNO,2020-02-05-09-02-48,8,25,0.598591029239826,left,probe,biased-switch,-1,-18,left,left,0.346
CKB1999WRNO,2020-02-05-09-02-48,8,26,0.5862106474705836,left,both,biased-switch,59,-18,left,left,0.404
CKB1999WRNO,2020-02-05-09-02-48,8,27,0.5150012209210058,left,probe,ambiguous-switch,-1,3,left,left,0.549
CKB1999WRNO,2020-02-05-09-02-48,8,28,0.5155098438836042,left,both,ambiguous-switch,60,3,left,left,0.091
CKB1999WRNO,2020-02-05-09-02-48,8,29,0.6196098764727065,right,probe,ambiguous-switch,-1,-6,right,right,0.412
CKB1999WRNO,2020-02-05-09-02-48,8,30,0.5603919902397212,right,both,ambiguous-switch,59,-6,right,right,0.578
CKB1999WRNO,2020-02-05-09-02-48,8,31,0.5185115832419166,left,probe,ambiguous-switch,-1,-3,left,left,0.5
CKB1999WRNO,2020-02-05-09-02-48,8,32,0.538465254000226,left,both,ambiguous-switch,61,-3,left,left,0.523
CKB1999WRNO,2020-02-05-09-02-48,8,33,0.6134971567134525,right,probe,biased-switch,-1,0,right,right,0.413
CKB1999WRNO,2020-02-05-09-02-48,8,34,0.5838904214319415,right,both,biased-switch,65,0,right,right,0.362
CKB1999WRNO,2020-02-05-09-02-48,8,35,0.65699045666181,right,probe,biased-switch,-1,-12,right,right,1.177
CKB1999WRNO,2020-02-05-09-02-48,8,36,0.59401326203403,right,both,biased-switch,60,-12,right,right,0.625
CKB1999WRNO,2020-02-05-09-02-48,8,37,0.5299460710696358,right,probe,ambiguous-switch,-1,0,right,right,0.625
CKB1999WRNO,2020-02-05-09-02-48,8,38,0.6203335145844261,right,both,ambiguous-switch,60,0,right,right,0.446
CKB1999WRNO,2020-02-05-09-02-48,8,39,0.6035626927203095,left,probe,biased-switch,-1,-3,left,left,0.339
CKB1999WRNO,2020-02-05-09-02-48,8,40,0.6044196689548945,left,both,biased-switch,58,-3,left,left,0.264
CKB1999WRNO,2020-02-05-09-02-48,8,41,0.5346679134524245,left,probe,ambiguous-switch,-1,-18,left,left,0.973
CKB1999WRNO,2020-02-05-09-02-48,8,42,0.5524042519101326,left,both,ambiguous-switch,54,-18,left,left,0.534
CKB1999WRNO,2020-02-05-09-02-48,8,43,0.6717146906852832,left,probe,ambiguous-switch,-1,-12,left,left,0.778
CKB1999WRNO,2020-02-05-09-02-48,8,44,0.5001737396750608,left,both,ambiguous-switch,65,-12,left,left,0.288
CKB1999WRNO,2020-02-05-09-02-48,8,45,0.6315627186160563,left,probe,biased-switch,-1,3,left,left,0.366
CKB1999WRNO,2020-02-05-09-02-48,8,46,0.6666187883878079,left,both,biased-switch,66,3,left,left,0.339
CKB1999WRNO,2020-02-05-09-02-48,8,47,0.6264987838856024,right,probe,biased-switch,-1,18,right,right,0.465
CKB1999WRNO,2020-02-05-09-02-48,8,48,0.5632808887315188,right,both,biased-switch,60,18,right,right,0.488
CKB1999WRNO,2020-02-05-09-02-48,8,49,0.5435814645942465,right,probe,ambiguous-switch,-1,18,right,right,0.53
CKB1999WRNO,2020-02-05-09-02-48,8,50,0.5661526139990428,right,both,ambiguous-switch,55,18,right,right,0.304
CKB1999WRNO,2020-02-05-09-02-48,8,51,0.6023491102810429,left,probe,biased-switch,-1,12,left,left,0.307
CKB1999WRNO,2020-02-05-09-02-48,8,52,0.6289981576907732,left,both,biased-switch,55,12,left,left,0.395
CKB1999WRNO,2020-02-05-09-02-48,8,53,0.5677900658375177,right,probe,ambiguous-switch,-1,24,right,right,0.663
CKB1999WRNO,2020-02-05-09-02-48,8,54,0.634147076067802,right,both,ambiguous-switch,57,24,right,right,0.329
CKB1999WRNO,2020-02-05-09-02-48,8,55,0.6553954690004464,right,probe,ambiguous-switch,-1,6,right,right,0.347
CKB1999WRNO,2020-02-05-09-02-48,8,56,0.5783309396424406,right,both,ambiguous-switch,58,6,right,right,1.735
CKB1999WRNO,2020-02-05-09-02-48,8,57,0.552454724719817,left,probe,biased-switch,-1,-6,left,left,0.406
CKB1999WRNO,2020-02-05-09-02-48,8,58,0.6151221036470098,left,both,biased-switch,65,-6,left,left,0.684
CKB1999WRNO,2020-02-05-09-02-48,8,59,0.5118713246184955,left,probe,biased-switch,-1,24,left,left,0.602
CKB1999WRNO,2020-02-05-09-02-48,8,60,0.5746221938668837,left,both,biased-switch,65,24,left,left,0.314
CKB1999WRNO,2020-02-05-09-02-48,8,61,0.6114370210964891,right,probe,ambiguous-switch,-1,12,right,right,0.357
CKB1999WRNO,2020-02-05-09-02-48,8,62,0.5072363032410162,right,both,ambiguous-switch,59,12,right,right,0.296
CKB1999WRNO,2020-02-05-09-02-48,8,63,0.5530574714637192,right,probe,biased-switch,-1,6,right,right,0.356
CKB1999WRNO,2020-02-05-09-02-48,8,64,0.5486638581156023,right,both,biased-switch,65,6,right,right,0.357
CKB1999WRNO,2020-02-05-09-02-48,8,65,0.6318965674077499,left,probe,biased-switch,-1,-18,left,left,0.458
CKB1999WRNO,2020-02-05-09-02-48,8,66,0.5083862397345743,left,both,biased-switch,60,-18,left,left,0.391
CKB1999WRNO,2020-02-05-09-02-48,8,67,0.6593641066526831,left,probe,ambiguous-switch,-1,3,left,left,0.896
CKB1999WRNO,2020-02-05-09-02-48,8,68,0.6659690100634232,left,both,ambiguous-switch,60,3,left,left,0.337
CKB1999WRNO,2020-02-05-09-02-48,8,69,0.5674178726273441,left,probe,ambiguous-switch,-1,-6,left,left,0.635
CKB1999WRNO,2020-02-05-09-02-48,8,70,0.5295424188311098,left,both,ambiguous-switch,62,-6,left,left,0.285
CKB1999WRNO,2020-02-05-09-02-48,8,71,0.5258358409565744,right,probe,ambiguous-switch,-1,-3,right,right,0.625
CKB1999WRNO,2020-02-05-09-02-48,8,72,0.5755613026503413,right,both,ambiguous-switch,60,-3,right,right,0.633
CKB1999WRNO,2020-02-05-09-02-48,8,73,0.5654936621421676,left,probe,biased-switch,-1,0,left,left,0.619
CKB1999WRNO,2020-02-05-09-02-48,8,74,0.5729226789249706,left,both,biased-switch,62,0,left,left,1.433
CKB1999WRNO,2020-02-05-09-02-48,8,75,0.5993660956727044,left,probe,biased-switch,-1,-12,left,left,0.41
CKB1999WRNO,2020-02-05-09-02-48,8,76,0.6806868070661806,left,both,biased-switch,64,-12,left,left,0.372
CKB1999WRNO,2020-02-05-09-02-48,8,77,0.5714208488936199,right,probe,ambiguous-switch,-1,0,right,right,0.314
CKB1999WRNO,2020-02-05-09-02-48,8,78,0.6461746758753155,right,both,ambiguous-switch,59,0,right,right,0.254
CKB1999WRNO,2020-02-05-09-02-48,8,79,0.5239546044832406,left,probe,biased-switch,-1,-3,left,left,0.375
CKB1999WRNO,2020-02-05-09-02-48,8,80,0.6832890073642475,left,both,biased-switch,60,-3,left,left,0.382
CKB1999WRNO,2020-02-05-09-02-48,9,1,0.640109776497338,right,probe,ambiguous-switch,-1,-3,right,right,0.354
CKB1999WRNO,2020-02-05-09-02-48,9,2,0.5805383127074554,right,both,ambiguous-switch,66,-3,right,right,0.516
CKB1999WRNO,2020-02-05-09-02-48,9,3,0.6221161852840438,right,probe,biased-switch,-1,6,right,right,0.479
CKB1999WRNO,2020-02-05-09-02-48,9,4,0.6698575463179017,right,both,biased-switch,66,6,right,right,0.266
CKB1999WRNO,2020-02-05-09-02-48,9,5,0.633656304261977,left,probe,biased-switch,-1,24,left,left,0.78
CKB1999WRNO,2020-02-05-09-02-48,9,6,0.6297563149600699,left,both,biased-switch,66,24,left,left,0.286
CKB1999WRNO,2020-02-05-09-02-48,9,7,0.6801757618890242,left,probe,ambiguous-switch,-1,3,left,left,0.335
CKB1999WRNO,2020-02-05-09-02-48,9,8,0.5339874097201641,left,both,ambiguous-switch,61,3,left,left,0.805
CKB1999WRNO,2020-02-05-09-02-48,9,9,0.5918986048266929,left,probe,ambiguous-switch,-1,24,left,left,0.51
CKB1999WRNO,2020-02-05-09-02-48,9,10,0.5432092594485203,left,both,ambiguous-switch,60,24,left,left,0.311
CKB1999WRNO,2020-02-05-09-02-48,9,11,0.6151214147093074,right,probe,ambiguous-switch,-1,-6,right,right,0.358
CKB1999WRNO,2020-02-05-09-02-48,9,12,0.5671671385954881,right,both,ambiguous-switch,61,-6,right,right,0.268
CKB1999WRNO,2020-02-05-09-02-48,9,13,0.62838354525973,right,probe,ambiguous-switch,-1,-18,right,right,0.341
CKB1999WRNO,2020-02-05-09-02-48,9,14,0.5717249167380771,right,both,ambiguous-switch,59,-18,right,right,0.328
CKB1999WRNO,2020-02-05-09-02-48,9,15,0.5742044674387842,right,probe,biased-switch,-1,18,right,right,0.389
CKB1999WRNO,2020-02-05-09-02-48,9,16,0.6228603451432506,right,both,biased-switch,57,18,right,right,0.322
CKB1999WRNO,2020-02-05-09-02-48,9,17,0.6320453066601086,left,probe,biased-switch,-1,-6,left,left,0.36
CKB1999WRNO,2020-02-05-09-02-48,9,18,0.5171474144439201,left,both,biased-switch,56,-6,left,left,0.335
CKB1999WRNO,2020-02-05-09-02-48,9,19,0.5563746525644362,right,probe,biased-switch,-1,0,right,right,0.329
CKB1999WRNO,2020-02-05-09-02-48,9,20,0.6119902878373795,right,both,biased-switch,57,0,right,right,0.225
CKB1999WRNO,2020-02-05-09-02-48,9,21,0.5866711474787931,right,probe,ambiguous-switch,-1,-12,right,right,0.325
CKB1999WRNO,2020-02-05-09-02-48,9,22,0.5608471396022092,right,both,ambiguous-switch,59,-12,right,right,0.349
CKB1999WRNO,2020-02-05-09-02-48,9,23,0.630317882287201,left,probe,ambiguous-switch,-1,0,left,left,0.402
CKB1999WRNO,2020-02-05-09-02-48,9,24,0.6768842582483559,left,both,ambiguous-switch,64,0,left,left,0.387
CKB1999WRNO,2020-02-05-09-02-48,9,25,0.6355271494675432,left,probe,biased-switch,-1,-12,left,left,0.425
CKB1999WRNO,2020-02-05-09-02-48,9,26,0.6762022895780964,left,both,biased-switch,59,-12,left,left,0.352
CKB1999WRNO,2020-02-05-09-02-48,9,27,0.6151054241044341,left,probe,biased-switch,-1,3,left,left,0.608
CKB1999WRNO,2020-02-05-09-02-48,9,28,0.6503982682548879,left,both,biased-switch,60,3,left,left,0.332
CKB1999WRNO,2020-02-05-09-02-48,9,29,0.6467361544941626,right,probe,ambiguous-switch,-1,18,right,right,0.381
CKB1999WRNO,2020-02-05-09-02-48,9,30,0.6310506951747612,right,both,ambiguous-switch,58,18,right,right,0.542
CKB1999WRNO,2020-02-05-09-02-48,9,31,0.6637146055852473,left,probe,biased-switch,-1,12,left,left,0.408
CKB1999WRNO,2020-02-05-09-02-48,9,32,0.5892047890662976,left,both,biased-switch,60,12,left,left,0.433
CKB1999WRNO,2020-02-05-09-02-48,9,33,0.6877709289011917,left,probe,ambiguous-switch,-1,12,left,left,0.522
CKB1999WRNO,2020-02-05-09-02-48,9,34,0.5251903382194291,left,both,ambiguous-switch,54,12,left,left,0.425
CKB1999WRNO,2020-02-05-09-02-48,9,35,0.6472345403876896,left,probe,biased-switch,-1,-18,left,left,0.415
CKB1999WRNO,2020-02-05-09-02-48,9,36,0.5750392563870776,left,both,biased-switch,58,-18,left,left,0.365
CKB1999WRNO,2020-02-05-09-02-48,9,37,0.5008714953426465,left,probe,biased-switch,-1,-3,left,left,0.334
CKB1999WRNO,2020-02-05-09-02-48,9,38,0.6190685546431773,left,both,biased-switch,55,-3,left,left,0.405
CKB1999WRNO,2020-02-05-09-02-48,9,39,0.5566249140828489,left,probe,ambiguous-switch,-1,6,left,left,0.37
CKB1999WRNO,2020-02-05-09-02-48,9,40,0.5484131947560051,left,both,ambiguous-switch,65,6,left,left,0.336
CKB1999WRNO,2020-02-05-09-02-48,9,41,0.5328963996886936,right,probe,ambiguous-switch,-1,-3,right,right,0.339
CKB1999WRNO,2020-02-05-09-02-48,9,42,0.5994736187744498,right,both,ambiguous-switch,57,-3,right,right,0.481
CKB1999WRNO,2020-02-05-09-02-48,9,43,0.6903267532218725,left,probe,biased-switch,-1,6,left,left,0.335
CKB1999WRNO,2020-02-05-09-02-48,9,44,0.6376995494514126,left,both,biased-switch,57,6,left,left,1.095
CKB1999WRNO,2020-02-05-09-02-48,9,45,0.6771976138451964,left,probe,biased-switch,-1,24,left,left,0.368
CKB1999WRNO,2020-02-05-09-02-48,9,46,0.5827123353252106,left,both,biased-switch,63,24,left,left,0.373
CKB1999WRNO,2020-02-05-09-02-48,9,47,0.520642144400798,right,probe,ambiguous-switch,-1,3,left,left,0.538
CKB1999WRNO,2020-02-05-09-02-48,9,48,0.5961680938948944,right,both,ambiguous-switch,60,3,left,right,0.427
CKB1999WRNO,2020-02-05-09-02-48,9,49,0.6687646870457306,right,probe,ambiguous-switch,-1,24,right,right,0.422
CKB1999WRNO,2020-02-05-09-02-48,9,50,0.5012645722378577,right,both,ambiguous-switch,57,24,right,right,1.322
CKB1999WRNO,2020-02-05-09-02-48,9,51,0.6426908696548661,left,probe,ambiguous-switch,-1,-6,left,left,0.589
CKB1999WRNO,2020-02-05-09-02-48,9,52,0.5355723067353461,left,both,ambiguous-switch,65,-6,left,left,0.315
CKB1999WRNO,2020-02-05-09-02-48,9,53,0.6204353948829818,right,probe,ambiguous-switch,-1,-18,right,right,0.563
CKB1999WRNO,2020-02-05-09-02-48,9,54,0.6266153351458263,right,both,ambiguous-switch,56,-18,right,right,0.439
CKB1999WRNO,2020-02-05-09-02-48,9,55,0.6170723791952413,left,probe,biased-switch,-1,18,left,left,0.403
CKB1999WRNO,2020-02-05-09-02-48,9,56,0.6526263974025572,left,both,biased-switch,63,18,left,left,0.512
CKB1999WRNO,2020-02-05-09-02-48,9,57,0.596175089842185,left,probe,biased-switch,-1,-6,left,left,0.65
CKB1999WRNO,2020-02-05-09-02-48,9,58,0.651949921221186,left,both,biased-switch,57,-6,left,left,0.452
CKB1999WRNO,2020-02-05-09-02-48,9,59,0.5762179565006359,right,probe,biased-switch,-1,0,right,right,0.597
CKB1999WRNO,2020-02-05-09-02-48,9,60,0.5882469203137523,right,both,biased-switch,59,0,right,right,0.425
CKB1999WRNO,2020-02-05-09-02-48,9,61,0.6474388987463572,left,probe,ambiguous-switch,-1,-12,left,left,0.404
CKB1999WRNO,2020-02-05-09-02-48,9,62,0.5705946408033609,left,both,ambiguous-switch,59,-12,left,left,0.296
CKB1999WRNO,2020-02-05-09-02-48,9,63,0.5109727565620837,right,probe,ambiguous-switch,-1,0,right,right,0.399
CKB1999WRNO,2020-02-05-09-02-48,9,64,0.5395501229083134,right,both,ambiguous-switch,56,0,right,right,0.313
CKB1999WRNO,2020-02-05-09-02-48,9,65,0.5007734557998059,left,probe,biased-switch,-1,-12,left,left,0.396
CKB1999WRNO,2020-02-05-09-02-48,9,66,0.6404774705785042,left,both,biased-switch,58,-12,left,left,0.403
CKB1999WRNO,2020-02-05-09-02-48,9,67,0.6357601890474014,left,probe,biased-switch,-1,3,left,left,0.768
CKB1999WRNO,2020-02-05-09-02-48,9,68,0.5149475117479246,left,both,biased-switch,65,3,left,left,0.712
CKB1999WRNO,2020-02-05-09-02-48,9,69,0.5113485844120126,right,probe,ambiguous-switch,-1,18,right,right,0.488
CKB1999WRNO,2020-02-05-09-02-48,9,70,0.5393952201843716,right,both,ambiguous-switch,59,18,right,right,0.455
CKB1999WRNO,2020-02-05-09-02-48,9,71,0.658675821238382,right,probe,biased-switch,-1,12,right,right,1.036
CKB1999WRNO,2020-02-05-09-02-48,9,72,0.5334480474600574,right,both,biased-switch,62,12,right,right,0.396
CKB1999WRNO,2020-02-05-09-02-48,9,73,0.5746880515249004,left,probe,ambiguous-switch,-1,12,left,left,0.68
CKB1999WRNO,2020-02-05-09-02-48,9,74,0.5794054129927785,left,both,ambiguous-switch,56,12,left,left,0.392
CKB1999WRNO,2020-02-05-09-02-48,9,75,0.5549743210480468,right,probe,biased-switch,-1,-18,right,right,0.407
CKB1999WRNO,2020-02-05-09-02-48,9,76,0.5457198824178745,right,both,biased-switch,56,-18,right,right,0.541
CKB1999WRNO,2020-02-05-09-02-48,9,77,0.5414936100283484,left,probe,biased-switch,-1,-3,left,left,0.364
CKB1999WRNO,2020-02-05-09-02-48,9,78,0.5872845903931903,left,both,biased-switch,63,-3,left,left,0.33
CKB1999WRNO,2020-02-05-09-02-48,9,79,0.6115640716056023,right,probe,ambiguous-switch,-1,6,right,right,0.506
CKB1999WRNO,2020-02-05-09-02-48,9,80,0.5437359205154351,right,both,ambiguous-switch,60,6,right,right,0.312
CKB1999WRNO,2020-02-05-09-02-48,10,1,0.6288659320665858,right,probe,ambiguous-switch,-1,-6,right,right,0.396
CKB1999WRNO,2020-02-05-09-02-48,10,2,0.5801994783991835,right,both,ambiguous-switch,60,-6,right,right,0.378
CKB1999WRNO,2020-02-05-09-02-48,10,3,0.5411095025629361,left,probe,ambiguous-switch,-1,6,left,left,0.474
CKB1999WRNO,2020-02-05-09-02-48,10,4,0.5827058308786117,left,both,ambiguous-switch,66,6,left,left,0.341
CKB1999WRNO,2020-02-05-09-02-48,10,5,0.5354132623456487,right,probe,ambiguous-switch,-1,12,right,right,0.763
CKB1999WRNO,2020-02-05-09-02-48,10,6,0.684635900641444,right,both,ambiguous-switch,65,12,right,right,0.605
CKB1999WRNO,2020-02-05-09-02-48,10,7,0.5344618145589123,right,probe,biased-switch,-1,-12,right,right,0.635
CKB1999WRNO,2020-02-05-09-02-48,10,8,0.6324632175032688,right,both,biased-switch,63,-12,right,right,0.394
CKB1999WRNO,2020-02-05-09-02-48,10,9,0.5024505741170353,left,probe,ambiguous-switch,-1,3,left,left,0.522
CKB1999WRNO,2020-02-05-09-02-48,10,10,0.6819748269714485,left,both,ambiguous-switch,65,3,left,left,0.723
CKB1999WRNO,2020-02-05-09-02-48,10,11,0.6065140286826779,left,probe,biased-switch,-1,12,left,left,0.798
CKB1999WRNO,2020-02-05-09-02-48,10,12,0.6883267202590224,left,both,biased-switch,56,12,left,left,0.326
CKB1999WRNO,2020-02-05-09-02-48,10,13,0.5082552636161004,right,probe,biased-switch,-1,24,right,right,1.172
CKB1999WRNO,2020-02-05-09-02-48,10,14,0.553706553224614,right,both,biased-switch,63,24,right,right,0.568
CKB1999WRNO,2020-02-05-09-02-48,10,15,0.5366487718095194,left,probe,biased-switch,-1,6,left,left,0.52
CKB1999WRNO,2020-02-05-09-02-48,10,16,0.564153748765821,left,both,biased-switch,57,6,left,left,0.296
CKB1999WRNO,2020-02-05-09-02-48,10,17,0.6488028297233192,right,probe,ambiguous-switch,-1,24,right,right,0.477
CKB1999WRNO,2020-02-05-09-02-48,10,18,0.6411676043401133,right,both,ambiguous-switch,55,24,right,right,0.308
CKB1999WRNO,2020-02-05-09-02-48,10,19,0.5436313539835574,right,probe,ambiguous-switch,-1,-18,right,right,0.5
CKB1999WRNO,2020-02-05-09-02-48,10,20,0.5466121607518363,right,both,ambiguous-switch,63,-18,right,right,0.341
CKB1999WRNO,2020-02-05-09-02-48,10,21,0.5828961367786626,left,probe,biased-switch,-1,-18,left,left,1.0
CKB1999WRNO,2020-02-05-09-02-48,10,22,0.5502273692460005,left,both,biased-switch,57,-18,left,left,0.722
CKB1999WRNO,2020-02-05-09-02-48,10,23,0.5489681441300344,left,probe,biased-switch,-1,0,left,left,0.334
CKB1999WRNO,2020-02-05-09-02-48,10,24,0.6837347576980566,left,both,biased-switch,54,0,left,left,0.372
CKB1999WRNO,2020-02-05-09-02-48,10,25,0.5945100684672884,right,probe,ambiguous-switch,-1,0,right,right,0.525
CKB1999WRNO,2020-02-05-09-02-48,10,26,0.6138611884804087,right,both,ambiguous-switch,66,0,right,right,0.406
CKB1999WRNO,2020-02-05-09-02-48,10,27,0.6772959107212676,left,probe,biased-switch,-1,-6,left,left,0.518
CKB1999WRNO,2020-02-05-09-02-48,10,28,0.6106771571891918,left,both,biased-switch,60,-6,left,left,1.17
CKB1999WRNO,2020-02-05-09-02-48,10,29,0.5857742880464729,left,probe,ambiguous-switch,-1,-3,left,left,0.543
CKB1999WRNO,2020-02-05-09-02-48,10,30,0.683942471886726,left,both,ambiguous-switch,59,-3,left,left,0.142
CKB1999WRNO,2020-02-05-09-02-48,10,31,0.6134002125378021,right,probe,ambiguous-switch,-1,-12,right,right,0.588
CKB1999WRNO,2020-02-05-09-02-48,10,32,0.6104096475654451,right,both,ambiguous-switch,58,-12,right,right,0.561
CKB1999WRNO,2020-02-05-09-02-48,10,33,0.6261769263732125,right,probe,biased-switch,-1,18,right,right,0.38
CKB1999WRNO,2020-02-05-09-02-48,10,34,0.5135718723103578,right,both,biased-switch,54,18,right,right,0.454
CKB1999WRNO,2020-02-05-09-02-48,10,35,0.5771984284407459,left,probe,biased-switch,-1,3,left,left,0.418
CKB1999WRNO,2020-02-05-09-02-48,10,36,0.527948093658602,left,both,biased-switch,64,3,left,left,0.372
CKB1999WRNO,2020-02-05-09-02-48,10,37,0.582392677557483,right,probe,ambiguous-switch,-1,18,right,right,0.378
CKB1999WRNO,2020-02-05-09-02-48,10,38,0.5439401668851629,right,both,ambiguous-switch,62,18,right,right,0.506
CKB1999WRNO,2020-02-05-09-02-48,10,39,0.5975592445797109,right,probe,biased-switch,-1,-3,right,right,0.486
CKB1999WRNO,2020-02-05-09-02-48,10,40,0.6175455314531797,right,both,biased-switch,64,-3,right,right,0.316
CKB1999WRNO,2020-02-05-09-02-48,10,41,0.5167400803218819,left,probe,ambiguous-switch,-1,-6,left,left,0.971
CKB1999WRNO,2020-02-05-09-02-48,10,42,0.6821107536791623,left,both,ambiguous-switch,62,-6,left,left,0.277
CKB1999WRNO,2020-02-05-09-02-48,10,43,0.5740036774767613,left,probe,ambiguous-switch,-1,6,left,left,0.663
CKB1999WRNO,2020-02-05-09-02-48,10,44,0.6817338263994198,left,both,ambiguous-switch,54,6,left,left,0.368
CKB1999WRNO,2020-02-05-09-02-48,10,45,0.5168955857665779,right,probe,ambiguous-switch,-1,12,right,right,0.429
CKB1999WRNO,2020-02-05-09-02-48,10,46,0.5088429451528541,right,both,ambiguous-switch,61,12,right,right,0.326
CKB1999WRNO,2020-02-05-09-02-48,10,47,0.6512818468771874,left,probe,biased-switch,-1,-12,left,left,0.301
CKB1999WRNO,2020-02-05-09-02-48,10,48,0.6657560354711456,left,both,biased-switch,60,-12,left,left,0.369
CKB1999WRNO,2020-02-05-09-02-48,10,49,0.5986418619932145,right,probe,ambiguous-switch,-1,3,right,right,0.304
CKB1999WRNO,2020-02-05-09-02-48,10,50,0.6503017167338232,right,both,ambiguous-switch,57,3,right,right,0.305
CKB1999WRNO,2020-02-05-09-02-48,10,51,0.6434826996280206,left,probe,biased-switch,-1,12,left,left,0.373
CKB1999WRNO,2020-02-05-09-02-48,10,52,0.5234846859026027,left,both,biased-switch,57,12,left,left,0.353
CKB1999WRNO,2020-02-05-09-02-48,10,53,0.6771196764222372,right,probe,biased-switch,-1,24,right,right,0.373
CKB1999WRNO,2020-02-05-09-02-48,10,54,0.6752975797258616,right,both,biased-switch,56,24,right,right,0.169
CKB1999WRNO,2020-02-05-09-02-48,10,55,0.5043689557194834,right,probe,biased-switch,-1,6,right,right,0.309
CKB1999WRNO,2020-02-05-09-02-48,10,56,0.5864239809017024,right,both,biased-switch,59,6,right,right,0.394
CKB1999WRNO,2020-02-05-09-02-48,10,57,0.523245750643028,left,probe,ambiguous-switch,-1,24,left,left,0.31
CKB1999WRNO,2020-02-05-09-02-48,10,58,0.6673607970998797,left,both,ambiguous-switch,62,24,left,left,0.381
CKB1999WRNO,2020-02-05-09-02-48,10,59,0.6252789396280168,right,probe,ambiguous-switch,-1,-18,right,right,0.368
CKB1999WRNO,2020-02-05-09-02-48,10,60,0.5844576551957219,right,both,ambiguous-switch,65,-18,right,right,0.366
CKB1999WRNO,2020-02-05-09-02-48,10,61,0.6901612118044766,left,probe,biased-switch,-1,-18,left,left,0.391
CKB1999WRNO,2020-02-05-09-02-48,10,62,0.5334037304213955,left,both,biased-switch,59,-18,left,left,0.392
CKB1999WRNO,2020-02-05-09-02-48,10,63,0.6307930160464468,left,probe,biased-switch,-1,0,left,left,0.533
CKB1999WRNO,2020-02-05-09-02-48,10,64,0.627419799491425,left,both,biased-switch,65,0,left,left,0.359
CKB1999WRNO,2020-02-05-09-02-48,10,65,0.6706490091982064,right,probe,ambiguous-switch,-1,0,right,right,0.461
CKB1999WRNO,2020-02-05-09-02-48,10,66,0.6391250007256952,right,both,ambiguous-switch,63,0,right,right,0.298
CKB1999WRNO,2020-02-05-09-02-48,10,67,0.5144870676097258,left,probe,biased-switch,-1,-6,left,left,0.309
CKB1999WRNO,2020-02-05-09-02-48,10,68,0.5632707399397419,left,both,biased-switch,60,-6,left,left,0.289
CKB1999WRNO,2020-02-05-09-02-48,10,69,0.6982041877983216,right,probe,ambiguous-switch,-1,-3,right,right,0.366
CKB1999WRNO,2020-02-05-09-02-48,10,70,0.5691945576049964,right,both,ambiguous-switch,64,-3,right,right,0.445
CKB1999WRNO,2020-02-05-09-02-48,10,71,0.648052318359372,right,probe,ambiguous-switch,-1,-12,right,right,0.381
CKB1999WRNO,2020-02-05-09-02-48,10,72,0.6416411070180856,right,both,ambiguous-switch,62,-12,right,right,0.335
CKB1999WRNO,2020-02-05-09-02-48,10,73,0.5342479351622582,left,probe,biased-switch,-1,18,left,left,0.438
CKB1999WRNO,2020-02-05-09-02-48,10,74,0.595538750405306,left,both,biased-switch,63,18,left,left,0.595
CKB1999WRNO,2020-02-05-09-02-48,10,75,0.5778275333480594,right,probe,biased-switch,-1,3,right,right,0.34
CKB1999WRNO,2020-02-05-09-02-48,10,76,0.6948709106001556,right,both,biased-switch,66,3,right,right,0.522
CKB1999WRNO,2020-02-05-09-02-48,10,77,0.6959430315646127,right,probe,ambiguous-switch,-1,18,right,right,0.656
CKB1999WRNO,2020-02-05-09-02-48,10,78,0.5513319540400924,right,both,ambiguous-switch,65,18,right,right,0.504
CKB1999WRNO,2020-02-05-09-02-48,10,79,0.6065021911848633,left,probe,biased-switch,-1,-3,left,left,0.312
CKB1999WRNO,2020-02-05-09-02-48,10,80,0.6424547068069446,left,both,biased-switch,66,-3,left,left,0.371
