Participant,Session,Block,Trial,OnsetDelay,ProbeLocation,WhatIsReported,Condition,TriggerTime,ProbeSOA,PrimeDirection,Response,RT
SAM1990WRNO,2020-02-03-12-05-58,1,1,0.683402863241364,right,probe,biased-switch,-1,18,right,right,1.019
SAM1990WRNO,2020-02-03-12-05-58,1,2,0.6437097027602279,right,both,biased-switch,65,18,right,right,0.443
SAM1990WRNO,2020-02-03-12-05-58,1,3,0.645221777290029,left,probe,ambiguous-switch,-1,0,left,left,0.676
SAM1990WRNO,2020-02-03-12-05-58,1,4,0.5800347784812209,left,both,ambiguous-switch,64,0,left,left,0.402
SAM1990WRNO,2020-02-03-12-05-58,1,5,0.6498955411657128,right,probe,biased-switch,-1,24,right,right,0.379
SAM1990WRNO,2020-02-03-12-05-58,1,6,0.6109699764705572,right,both,biased-switch,65,24,right,right,0.247
SAM1990WRNO,2020-02-03-12-05-58,1,7,0.6329335439077537,left,probe,biased-switch,-1,6,left,left,0.479
SAM1990WRNO,2020-02-03-12-05-58,1,8,0.6223515414258358,left,both,biased-switch,65,6,left,left,0.367
SAM1990WRNO,2020-02-03-12-05-58,1,9,0.6140364828229745,right,probe,ambiguous-switch,-1,3,right,right,0.291
SAM1990WRNO,2020-02-03-12-05-58,1,10,0.582111230275777,right,both,ambiguous-switch,61,3,right,right,0.239
SAM1990WRNO,2020-02-03-12-05-58,1,11,0.6690428914211115,right,probe,ambiguous-switch,-1,-3,right,right,0.319
SAM1990WRNO,2020-02-03-12-05-58,1,12,0.5485877766799745,right,both,ambiguous-switch,62,-3,right,right,0.218
SAM1990WRNO,2020-02-03-12-05-58,1,13,0.5386296212081696,right,probe,biased-switch,-1,3,right,right,0.257
SAM1990WRNO,2020-02-03-12-05-58,1,14,0.6400094005574614,right,both,biased-switch,61,3,right,right,0.225
SAM1990WRNO,2020-02-03-12-05-58,1,15,0.5133342134370927,left,probe,ambiguous-switch,-1,-12,left,left,0.223
SAM1990WRNO,2020-02-03-12-05-58,1,16,0.6833057213725799,left,both,ambiguous-switch,66,-12,left,left,0.211
SAM1990WRNO,2020-02-03-12-05-58,1,17,0.6608669183451968,right,probe,biased-switch,-1,0,right,right,0.334
SAM1990WRNO,2020-02-03-12-05-58,1,18,0.6868549200800423,right,both,biased-switch,55,0,right,right,0.212
SAM1990WRNO,2020-02-03-12-05-58,1,19,0.5936684390052226,right,probe,biased-switch,-1,12,right,right,0.222
SAM1990WRNO,2020-02-03-12-05-58,1,20,0.6803034482967232,right,both,biased-switch,55,12,right,right,0.165
SAM1990WRNO,2020-02-03-12-05-58,1,21,0.6542190308946384,left,probe,ambiguous-switch,-1,18,left,left,0.364
SAM1990WRNO,2020-02-03-12-05-58,1,22,0.5919259251591342,left,both,ambiguous-switch,58,18,left,left,0.207
SAM1990WRNO,2020-02-03-12-05-58,1,23,0.5141773002256826,left,probe,biased-switch,-1,-6,left,left,0.253
SAM1990WRNO,2020-02-03-12-05-58,1,24,0.6998354943767839,left,both,biased-switch,57,-6,left,left,0.219
SAM1990WRNO,2020-02-03-12-05-58,1,25,0.5760850230418744,right,probe,ambiguous-switch,-1,-18,right,right,0.224
SAM1990WRNO,2020-02-03-12-05-58,1,26,0.5819146727620469,right,both,ambiguous-switch,60,-18,right,right,0.232
SAM1990WRNO,2020-02-03-12-05-58,1,27,0.6823343548948317,right,probe,ambiguous-switch,-1,24,right,right,0.266
SAM1990WRNO,2020-02-03-12-05-58,1,28,0.6608204496727473,right,both,ambiguous-switch,64,24,right,right,0.198
SAM1990WRNO,2020-02-03-12-05-58,1,29,0.5367419730458979,left,probe,biased-switch,-1,-12,left,left,0.219
SAM1990WRNO,2020-02-03-12-05-58,1,30,0.6193062580620791,left,both,biased-switch,62,-12,left,left,0.2
SAM1990WRNO,2020-02-03-12-05-58,1,31,0.5103587722078218,left,probe,biased-switch,-1,-18,left,left,0.3
SAM1990WRNO,2020-02-03-12-05-58,1,32,0.680255198933745,left,both,biased-switch,58,-18,left,left,0.22
SAM1990WRNO,2020-02-03-12-05-58,1,33,0.5598020396905965,left,probe,ambiguous-switch,-1,12,left,left,0.228
SAM1990WRNO,2020-02-03-12-05-58,1,34,0.6812356652066826,left,both,ambiguous-switch,55,12,left,left,0.265
SAM1990WRNO,2020-02-03-12-05-58,1,35,0.5044229820965448,left,probe,ambiguous-switch,-1,6,left,left,0.226
SAM1990WRNO,2020-02-03-12-05-58,1,36,0.5763773306302316,left,both,ambiguous-switch,54,6,left,left,0.211
SAM1990WRNO,2020-02-03-12-05-58,1,37,0.5141452528481876,left,probe,ambiguous-switch,-1,-6,left,left,0.213
SAM1990WRNO,2020-02-03-12-05-58,1,38,0.5432081003160153,left,both,ambiguous-switch,62,-6,left,left,0.213
SAM1990WRNO,2020-02-03-12-05-58,1,39,0.6189671594612018,left,probe,biased-switch,-1,-3,left,left,0.241
SAM1990WRNO,2020-02-03-12-05-58,1,40,0.5797236243791489,left,both,biased-switch,61,-3,left,left,0.203
SAM1990WRNO,2020-02-03-12-05-58,1,41,0.6319125772369825,right,probe,biased-switch,-1,18,right,right,0.229
SAM1990WRNO,2020-02-03-12-05-58,1,42,0.5909700531573722,right,both,biased-switch,61,18,right,right,0.239
SAM1990WRNO,2020-02-03-12-05-58,1,43,0.6275487227569849,right,probe,ambiguous-switch,-1,0,right,right,0.305
SAM1990WRNO,2020-02-03-12-05-58,1,44,0.6104040392503105,right,both,ambiguous-switch,60,0,right,right,0.223
SAM1990WRNO,2020-02-03-12-05-58,1,45,0.6152840731690052,left,probe,biased-switch,-1,24,left,left,0.234
SAM1990WRNO,2020-02-03-12-05-58,1,46,0.697420560702575,left,both,biased-switch,58,24,left,left,0.164
SAM1990WRNO,2020-02-03-12-05-58,1,47,0.5824697692624984,right,probe,biased-switch,-1,6,right,right,0.215
SAM1990WRNO,2020-02-03-12-05-58,1,48,0.660517787549634,right,both,biased-switch,56,6,right,right,0.137
SAM1990WRNO,2020-02-03-12-05-58,1,49,0.5985527339759542,left,probe,ambiguous-switch,-1,3,left,left,0.225
SAM1990WRNO,2020-02-03-12-05-58,1,50,0.6535384099430039,left,both,ambiguous-switch,60,3,left,left,0.217
SAM1990WRNO,2020-02-03-12-05-58,1,51,0.6698135608936432,right,probe,ambiguous-switch,-1,-3,right,right,0.226
SAM1990WRNO,2020-02-03-12-05-58,1,52,0.6617985093606784,right,both,ambiguous-switch,58,-3,right,right,0.198
SAM1990WRNO,2020-02-03-12-05-58,1,53,0.6785698872129204,right,probe,biased-switch,-1,3,right,right,0.217
SAM1990WRNO,2020-02-03-12-05-58,1,54,0.5021621762521956,right,both,biased-switch,58,3,right,right,0.209
SAM1990WRNO,2020-02-03-12-05-58,1,55,0.6376876506809905,left,probe,ambiguous-switch,-1,-12,left,left,0.256
SAM1990WRNO,2020-02-03-12-05-58,1,56,0.6348221613621532,left,both,ambiguous-switch,56,-12,left,left,0.22
SAM1990WRNO,2020-02-03-12-05-58,1,57,0.5381644720352683,left,probe,biased-switch,-1,0,left,left,0.226
SAM1990WRNO,2020-02-03-12-05-58,1,58,0.6193840133067379,left,both,biased-switch,64,0,left,left,0.21
SAM1990WRNO,2020-02-03-12-05-58,1,59,0.5505758156658918,right,probe,biased-switch,-1,12,right,right,0.22
SAM1990WRNO,2020-02-03-12-05-58,1,60,0.643291163276428,right,both,biased-switch,64,12,right,right,0.21
SAM1990WRNO,2020-02-03-12-05-58,1,61,0.6733513584800142,right,probe,ambiguous-switch,-1,18,right,right,0.229
SAM1990WRNO,2020-02-03-12-05-58,1,62,0.5766879437896363,right,both,ambiguous-switch,60,18,right,right,0.211
SAM1990WRNO,2020-02-03-12-05-58,1,63,0.6446296028420246,left,probe,biased-switch,-1,-6,left,left,0.232
SAM1990WRNO,2020-02-03-12-05-58,1,64,0.5256005198147571,left,both,biased-switch,61,-6,left,left,0.203
SAM1990WRNO,2020-02-03-12-05-58,1,65,0.6679215607644646,left,probe,ambiguous-switch,-1,-18,left,left,0.274
SAM1990WRNO,2020-02-03-12-05-58,1,66,0.5161379618634402,left,both,ambiguous-switch,64,-18,left,left,0.238
SAM1990WRNO,2020-02-03-12-05-58,1,67,0.5292319240979951,right,probe,ambiguous-switch,-1,24,right,right,0.192
SAM1990WRNO,2020-02-03-12-05-58,1,68,0.5474975677969294,right,both,ambiguous-switch,54,24,right,right,0.24
SAM1990WRNO,2020-02-03-12-05-58,1,69,0.6318337092849902,left,probe,biased-switch,-1,-12,left,left,0.436
SAM1990WRNO,2020-02-03-12-05-58,1,70,0.6755868699693859,left,both,biased-switch,63,-12,left,left,0.179
SAM1990WRNO,2020-02-03-12-05-58,1,71,0.6246041318638472,left,probe,biased-switch,-1,-18,left,left,0.21
SAM1990WRNO,2020-02-03-12-05-58,1,72,0.5310923553245823,left,both,biased-switch,59,-18,left,left,0.213
SAM1990WRNO,2020-02-03-12-05-58,1,73,0.5121736887503728,left,probe,ambiguous-switch,-1,12,left,left,0.216
SAM1990WRNO,2020-02-03-12-05-58,1,74,0.5224229450678447,left,both,ambiguous-switch,62,12,left,left,0.205
SAM1990WRNO,2020-02-03-12-05-58,1,75,0.6543082965066054,right,probe,ambiguous-switch,-1,6,right,right,0.222
SAM1990WRNO,2020-02-03-12-05-58,1,76,0.6566905137801432,right,both,ambiguous-switch,54,6,right,right,0.23
SAM1990WRNO,2020-02-03-12-05-58,1,77,0.6994867164779077,right,probe,ambiguous-switch,-1,-6,right,right,0.192
SAM1990WRNO,2020-02-03-12-05-58,1,78,0.6483883690682118,right,both,ambiguous-switch,59,-6,right,right,0.196
SAM1990WRNO,2020-02-03-12-05-58,1,79,0.5779658518366683,left,probe,biased-switch,-1,-3,left,left,0.238
SAM1990WRNO,2020-02-03-12-05-58,1,80,0.6723739244280115,left,both,biased-switch,60,-3,left,left,0.184
SAM1990WRNO,2020-02-03-12-05-58,2,1,0.6404504916613141,left,probe,biased-switch,-1,-6,left,left,0.227
SAM1990WRNO,2020-02-03-12-05-58,2,2,0.6356746604323356,left,both,biased-switch,60,-6,left,left,0.2
SAM1990WRNO,2020-02-03-12-05-58,2,3,0.5918563580770884,right,probe,ambiguous-switch,-1,24,right,right,0.876
SAM1990WRNO,2020-02-03-12-05-58,2,4,0.6125966481095751,right,both,ambiguous-switch,63,24,right,right,0.22
SAM1990WRNO,2020-02-03-12-05-58,2,5,0.5716643427054859,left,probe,biased-switch,-1,12,left,left,0.197
SAM1990WRNO,2020-02-03-12-05-58,2,6,0.6588896091735065,left,both,biased-switch,61,12,left,left,0.207
SAM1990WRNO,2020-02-03-12-05-58,2,7,0.5745519981320129,left,probe,ambiguous-switch,-1,-6,left,left,0.226
SAM1990WRNO,2020-02-03-12-05-58,2,8,0.6271560831814783,left,both,ambiguous-switch,63,-6,left,left,0.198
SAM1990WRNO,2020-02-03-12-05-58,2,9,0.5575722259912335,right,probe,ambiguous-switch,-1,3,right,right,0.209
SAM1990WRNO,2020-02-03-12-05-58,2,10,0.5210418421810153,right,both,ambiguous-switch,57,3,right,right,0.204
SAM1990WRNO,2020-02-03-12-05-58,2,11,0.6835202580023227,right,probe,ambiguous-switch,-1,-3,right,right,0.263
SAM1990WRNO,2020-02-03-12-05-58,2,12,0.5434952361612292,right,both,ambiguous-switch,63,-3,right,right,0.174
SAM1990WRNO,2020-02-03-12-05-58,2,13,0.5401836240493991,right,probe,biased-switch,-1,0,right,right,0.321
SAM1990WRNO,2020-02-03-12-05-58,2,14,0.589733587102658,right,both,biased-switch,62,0,right,right,0.207
SAM1990WRNO,2020-02-03-12-05-58,2,15,0.6126764687120223,right,probe,ambiguous-switch,-1,12,right,right,0.221
SAM1990WRNO,2020-02-03-12-05-58,2,16,0.5107885830222804,right,both,ambiguous-switch,61,12,right,right,0.09
SAM1990WRNO,2020-02-03-12-05-58,2,17,0.6709004910949607,left,probe,biased-switch,-1,24,left,left,0.183
SAM1990WRNO,2020-02-03-12-05-58,2,18,0.641590324164616,left,both,biased-switch,63,24,left,left,0.183
SAM1990WRNO,2020-02-03-12-05-58,2,19,0.5133886206793381,left,probe,ambiguous-switch,-1,0,left,left,0.25
SAM1990WRNO,2020-02-03-12-05-58,2,20,0.5163813999923178,left,both,ambiguous-switch,63,0,left,left,0.077
SAM1990WRNO,2020-02-03-12-05-58,2,21,0.6785358360083167,left,probe,biased-switch,-1,-3,left,left,0.313
SAM1990WRNO,2020-02-03-12-05-58,2,22,0.5174782673500812,left,both,biased-switch,64,-3,left,left,0.243
SAM1990WRNO,2020-02-03-12-05-58,2,23,0.5817363567469044,left,probe,biased-switch,-1,3,left,left,0.246
SAM1990WRNO,2020-02-03-12-05-58,2,24,0.5832756828226786,left,both,biased-switch,62,3,left,left,0.203
SAM1990WRNO,2020-02-03-12-05-58,2,25,0.6658848217264082,left,probe,biased-switch,-1,18,left,left,0.272
SAM1990WRNO,2020-02-03-12-05-58,2,26,0.5703407065356687,left,both,biased-switch,55,18,left,left,0.205
SAM1990WRNO,2020-02-03-12-05-58,2,27,0.5921996905020147,left,probe,biased-switch,-1,-12,left,left,0.225
SAM1990WRNO,2020-02-03-12-05-58,2,28,0.5967147199168227,left,both,biased-switch,58,-12,left,left,0.177
SAM1990WRNO,2020-02-03-12-05-58,2,29,0.540437998041596,left,probe,biased-switch,-1,-18,left,left,0.266
SAM1990WRNO,2020-02-03-12-05-58,2,30,0.5095877292791995,left,both,biased-switch,63,-18,left,left,0.227
SAM1990WRNO,2020-02-03-12-05-58,2,31,0.6555899957114151,left,probe,ambiguous-switch,-1,-18,left,left,0.181
SAM1990WRNO,2020-02-03-12-05-58,2,32,0.6572286115890275,left,both,ambiguous-switch,54,-18,left,left,0.204
SAM1990WRNO,2020-02-03-12-05-58,2,33,0.5522664292229671,right,probe,ambiguous-switch,-1,6,right,right,0.204
SAM1990WRNO,2020-02-03-12-05-58,2,34,0.6452058563841508,right,both,ambiguous-switch,65,6,right,right,0.196
SAM1990WRNO,2020-02-03-12-05-58,2,35,0.6967319883183971,right,probe,ambiguous-switch,-1,-12,right,right,0.189
SAM1990WRNO,2020-02-03-12-05-58,2,36,0.657873900319334,right,both,ambiguous-switch,65,-12,right,right,0.181
SAM1990WRNO,2020-02-03-12-05-58,2,37,0.5880500028063821,left,probe,biased-switch,-1,6,left,left,0.15
SAM1990WRNO,2020-02-03-12-05-58,2,38,0.5250912188699758,left,both,biased-switch,54,6,left,left,0.199
SAM1990WRNO,2020-02-03-12-05-58,2,39,0.578342972069255,left,probe,ambiguous-switch,-1,18,left,left,0.163
SAM1990WRNO,2020-02-03-12-05-58,2,40,0.5102469578699259,left,both,ambiguous-switch,66,18,left,left,0.142
SAM1990WRNO,2020-02-03-12-05-58,2,41,0.5633903650954384,right,probe,biased-switch,-1,-6,right,right,0.22
SAM1990WRNO,2020-02-03-12-05-58,2,42,0.5776778927236578,right,both,biased-switch,59,-6,right,right,0.191
SAM1990WRNO,2020-02-03-12-05-58,2,43,0.59824523318038,right,probe,ambiguous-switch,-1,24,right,right,0.203
SAM1990WRNO,2020-02-03-12-05-58,2,44,0.6548857171055589,right,both,ambiguous-switch,55,24,right,right,0.194
SAM1990WRNO,2020-02-03-12-05-58,2,45,0.6987452995676429,right,probe,biased-switch,-1,12,right,right,0.24
SAM1990WRNO,2020-02-03-12-05-58,2,46,0.5191175021273473,right,both,biased-switch,55,12,right,right,0.209
SAM1990WRNO,2020-02-03-12-05-58,2,47,0.6319839625083307,right,probe,ambiguous-switch,-1,-6,right,right,0.199
SAM1990WRNO,2020-02-03-12-05-58,2,48,0.6089706121467664,right,both,ambiguous-switch,63,-6,right,right,0.28
SAM1990WRNO,2020-02-03-12-05-58,2,49,0.6285442277406461,right,probe,ambiguous-switch,-1,3,right,right,0.437
SAM1990WRNO,2020-02-03-12-05-58,2,50,0.6498512706222395,right,both,ambiguous-switch,63,3,right,right,0.172
SAM1990WRNO,2020-02-03-12-05-58,2,51,0.6987428901412203,left,probe,ambiguous-switch,-1,-3,left,left,0.233
SAM1990WRNO,2020-02-03-12-05-58,2,52,0.619252562122591,left,both,ambiguous-switch,56,-3,left,left,0.112
SAM1990WRNO,2020-02-03-12-05-58,2,53,0.6110651238555924,left,probe,biased-switch,-1,0,left,left,0.257
SAM1990WRNO,2020-02-03-12-05-58,2,54,0.5797102520976709,left,both,biased-switch,65,0,left,left,0.194
SAM1990WRNO,2020-02-03-12-05-58,2,55,0.5254329390877447,left,probe,ambiguous-switch,-1,12,left,left,0.199
SAM1990WRNO,2020-02-03-12-05-58,2,56,0.5949272455624749,left,both,ambiguous-switch,62,12,left,left,0.007
SAM1990WRNO,2020-02-03-12-05-58,2,57,0.565052154923977,right,probe,biased-switch,-1,24,right,right,0.21
SAM1990WRNO,2020-02-03-12-05-58,2,58,0.5322515497081317,right,both,biased-switch,64,24,right,right,0.163
SAM1990WRNO,2020-02-03-12-05-58,2,59,0.5363632688514471,right,probe,ambiguous-switch,-1,0,right,right,0.226
SAM1990WRNO,2020-02-03-12-05-58,2,60,0.6070041294784224,right,both,ambiguous-switch,56,0,right,right,0.213
SAM1990WRNO,2020-02-03-12-05-58,2,61,0.5533889917695141,left,probe,biased-switch,-1,-3,left,left,0.257
SAM1990WRNO,2020-02-03-12-05-58,2,62,0.6869201638860252,left,both,biased-switch,65,-3,left,left,0.213
SAM1990WRNO,2020-02-03-12-05-58,2,63,0.6865859316951818,left,probe,biased-switch,-1,3,left,left,0.22
SAM1990WRNO,2020-02-03-12-05-58,2,64,0.5792753192779824,left,both,biased-switch,60,3,left,left,0.219
SAM1990WRNO,2020-02-03-12-05-58,2,65,0.5419227163207829,left,probe,biased-switch,-1,18,left,left,0.185
SAM1990WRNO,2020-02-03-12-05-58,2,66,0.5044652663681044,left,both,biased-switch,60,18,left,left,0.221
SAM1990WRNO,2020-02-03-12-05-58,2,67,0.5621862751346457,left,probe,biased-switch,-1,-12,left,left,0.107
SAM1990WRNO,2020-02-03-12-05-58,2,68,0.5176916929392159,left,both,biased-switch,59,-12,left,left,0.294
SAM1990WRNO,2020-02-03-12-05-58,2,69,0.6393475354228696,left,probe,biased-switch,-1,-18,left,left,0.238
SAM1990WRNO,2020-02-03-12-05-58,2,70,0.5982934776701435,left,both,biased-switch,55,-18,left,left,0.25
SAM1990WRNO,2020-02-03-12-05-58,2,71,0.5712515574007643,left,probe,ambiguous-switch,-1,-18,left,left,0.198
SAM1990WRNO,2020-02-03-12-05-58,2,72,0.6361146823290666,left,both,ambiguous-switch,63,-18,left,left,0.229
SAM1990WRNO,2020-02-03-12-05-58,2,73,0.6181002352724129,left,probe,ambiguous-switch,-1,6,left,left,0.272
SAM1990WRNO,2020-02-03-12-05-58,2,74,0.6770709226209571,left,both,ambiguous-switch,64,6,left,left,0.207
SAM1990WRNO,2020-02-03-12-05-58,2,75,0.6886526675256418,left,probe,ambiguous-switch,-1,-12,left,left,0.195
SAM1990WRNO,2020-02-03-12-05-58,2,76,0.674160311445097,left,both,ambiguous-switch,61,-12,left,left,0.209
SAM1990WRNO,2020-02-03-12-05-58,2,77,0.5279570888406346,right,probe,biased-switch,-1,6,right,right,0.211
SAM1990WRNO,2020-02-03-12-05-58,2,78,0.6177302092444708,right,both,biased-switch,64,6,right,right,0.181
SAM1990WRNO,2020-02-03-12-05-58,2,79,0.6149139760854806,left,probe,ambiguous-switch,-1,18,left,left,0.189
SAM1990WRNO,2020-02-03-12-05-58,2,80,0.5083228434210271,left,both,ambiguous-switch,55,18,left,left,0.182
SAM1990WRNO,2020-02-03-12-05-58,3,1,0.5617692723289818,right,probe,ambiguous-switch,-1,24,right,right,0.239
SAM1990WRNO,2020-02-03-12-05-58,3,2,0.6633601723322805,right,both,ambiguous-switch,62,24,right,right,0.279
SAM1990WRNO,2020-02-03-12-05-58,3,3,0.5626394594563207,left,probe,biased-switch,-1,-18,left,left,0.238
SAM1990WRNO,2020-02-03-12-05-58,3,4,0.6256361370010989,left,both,biased-switch,58,-18,left,left,0.2
SAM1990WRNO,2020-02-03-12-05-58,3,5,0.6534095737900446,left,probe,ambiguous-switch,-1,-3,left,left,0.207
SAM1990WRNO,2020-02-03-12-05-58,3,6,0.6453697017518304,left,both,ambiguous-switch,56,-3,left,left,0.208
SAM1990WRNO,2020-02-03-12-05-58,3,7,0.6573128658910886,right,probe,ambiguous-switch,-1,3,right,right,0.199
SAM1990WRNO,2020-02-03-12-05-58,3,8,0.6672779292551412,right,both,ambiguous-switch,54,3,right,right,0.193
SAM1990WRNO,2020-02-03-12-05-58,3,9,0.5829537802510711,left,probe,biased-switch,-1,18,left,left,0.174
SAM1990WRNO,2020-02-03-12-05-58,3,10,0.5857259344817044,left,both,biased-switch,63,18,left,left,0.188
SAM1990WRNO,2020-02-03-12-05-58,3,11,0.5024344835853074,right,probe,ambiguous-switch,-1,6,right,right,0.2
SAM1990WRNO,2020-02-03-12-05-58,3,12,0.5785766714659379,right,both,ambiguous-switch,63,6,right,right,0.192
SAM1990WRNO,2020-02-03-12-05-58,3,13,0.6424752675703118,left,probe,biased-switch,-1,6,left,left,0.179
SAM1990WRNO,2020-02-03-12-05-58,3,14,0.6251593774111013,left,both,biased-switch,57,6,left,left,0.412
SAM1990WRNO,2020-02-03-12-05-58,3,15,0.5312041300408612,right,probe,biased-switch,-1,24,right,right,0.307
SAM1990WRNO,2020-02-03-12-05-58,3,16,0.5846658561406878,right,both,biased-switch,55,24,right,right,0.385
SAM1990WRNO,2020-02-03-12-05-58,3,17,0.510857925258886,right,probe,biased-switch,-1,12,right,right,0.316
SAM1990WRNO,2020-02-03-12-05-58,3,18,0.5056180775128638,right,both,biased-switch,58,12,right,right,0.179
SAM1990WRNO,2020-02-03-12-05-58,3,19,0.6814966575831481,left,probe,ambiguous-switch,-1,0,left,left,0.287
SAM1990WRNO,2020-02-03-12-05-58,3,20,0.6122832674269255,left,both,ambiguous-switch,62,0,left,left,0.204
SAM1990WRNO,2020-02-03-12-05-58,3,21,0.6258822270785361,right,probe,biased-switch,-1,3,right,right,0.214
SAM1990WRNO,2020-02-03-12-05-58,3,22,0.5514857609205261,right,both,biased-switch,59,3,right,right,0.225
SAM1990WRNO,2020-02-03-12-05-58,3,23,0.6927524890936076,left,probe,ambiguous-switch,-1,-12,left,left,0.262
SAM1990WRNO,2020-02-03-12-05-58,3,24,0.6963681980679429,left,both,ambiguous-switch,63,-12,left,left,0.203
SAM1990WRNO,2020-02-03-12-05-58,3,25,0.5608804370490479,right,probe,ambiguous-switch,-1,18,right,right,0.225
SAM1990WRNO,2020-02-03-12-05-58,3,26,0.583456902992835,right,both,ambiguous-switch,65,18,right,right,0.238
SAM1990WRNO,2020-02-03-12-05-58,3,27,0.6961646333741086,left,probe,biased-switch,-1,-6,left,left,0.184
SAM1990WRNO,2020-02-03-12-05-58,3,28,0.545511620829275,left,both,biased-switch,66,-6,left,left,0.215
SAM1990WRNO,2020-02-03-12-05-58,3,29,0.5711997286751676,right,probe,biased-switch,-1,0,right,right,0.172
SAM1990WRNO,2020-02-03-12-05-58,3,30,0.5313435451774496,right,both,biased-switch,54,0,right,right,0.186
SAM1990WRNO,2020-02-03-12-05-58,3,31,0.6374427596888144,left,probe,ambiguous-switch,-1,-18,left,left,0.188
SAM1990WRNO,2020-02-03-12-05-58,3,32,0.5198632168156637,left,both,ambiguous-switch,61,-18,left,left,0.237
SAM1990WRNO,2020-02-03-12-05-58,3,33,0.5798336672938728,right,probe,biased-switch,-1,-3,right,right,0.264
SAM1990WRNO,2020-02-03-12-05-58,3,34,0.5245452860301526,right,both,biased-switch,65,-3,right,right,0.22
SAM1990WRNO,2020-02-03-12-05-58,3,35,0.6372804655067852,right,probe,ambiguous-switch,-1,-6,right,right,0.238
SAM1990WRNO,2020-02-03-12-05-58,3,36,0.5143979452440619,right,both,ambiguous-switch,60,-6,right,right,0.952
SAM1990WRNO,2020-02-03-12-05-58,3,37,0.6430061231640857,right,probe,ambiguous-switch,-1,12,right,right,0.214
SAM1990WRNO,2020-02-03-12-05-58,3,38,0.6557473507618168,right,both,ambiguous-switch,56,12,right,right,0.09
SAM1990WRNO,2020-02-03-12-05-58,3,39,0.5335867832248937,left,probe,biased-switch,-1,-12,left,left,0.218
SAM1990WRNO,2020-02-03-12-05-58,3,40,0.5147346448953571,left,both,biased-switch,62,-12,left,left,0.12
SAM1990WRNO,2020-02-03-12-05-58,3,41,0.5646515439392178,left,probe,ambiguous-switch,-1,24,left,left,0.297
SAM1990WRNO,2020-02-03-12-05-58,3,42,0.56190002715585,left,both,ambiguous-switch,64,24,left,left,0.218
SAM1990WRNO,2020-02-03-12-05-58,3,43,0.6168152813814136,left,probe,biased-switch,-1,-18,left,left,0.188
SAM1990WRNO,2020-02-03-12-05-58,3,44,0.6132193556131195,left,both,biased-switch,54,-18,left,left,0.219
SAM1990WRNO,2020-02-03-12-05-58,3,45,0.6344721805080284,right,probe,ambiguous-switch,-1,-3,right,right,0.202
SAM1990WRNO,2020-02-03-12-05-58,3,46,0.6092070051100814,right,both,ambiguous-switch,65,-3,right,right,0.176
SAM1990WRNO,2020-02-03-12-05-58,3,47,0.6383447657746804,right,probe,ambiguous-switch,-1,3,right,right,0.243
SAM1990WRNO,2020-02-03-12-05-58,3,48,0.6751238042316404,right,both,ambiguous-switch,55,3,right,right,0.203
SAM1990WRNO,2020-02-03-12-05-58,3,49,0.6008135818507879,right,probe,biased-switch,-1,18,right,right,0.193
SAM1990WRNO,2020-02-03-12-05-58,3,50,0.5359918553948799,right,both,biased-switch,57,18,right,right,0.179
SAM1990WRNO,2020-02-03-12-05-58,3,51,0.5630399854877375,left,probe,ambiguous-switch,-1,6,left,left,0.19
SAM1990WRNO,2020-02-03-12-05-58,3,52,0.5073748324459461,left,both,ambiguous-switch,57,6,left,left,0.225
SAM1990WRNO,2020-02-03-12-05-58,3,53,0.6930609679074969,right,probe,biased-switch,-1,6,right,right,0.201
SAM1990WRNO,2020-02-03-12-05-58,3,54,0.62543578929287,right,both,biased-switch,63,6,right,right,0.206
SAM1990WRNO,2020-02-03-12-05-58,3,55,0.6829183112967374,left,probe,biased-switch,-1,24,left,left,0.223
SAM1990WRNO,2020-02-03-12-05-58,3,56,0.5888414776731039,left,both,biased-switch,64,24,left,left,0.212
SAM1990WRNO,2020-02-03-12-05-58,3,57,0.6866635266196631,right,probe,biased-switch,-1,12,right,right,0.179
SAM1990WRNO,2020-02-03-12-05-58,3,58,0.5810809108028774,right,both,biased-switch,58,12,right,right,0.181
SAM1990WRNO,2020-02-03-12-05-58,3,59,0.6341560607605415,left,probe,ambiguous-switch,-1,0,left,left,0.154
SAM1990WRNO,2020-02-03-12-05-58,3,60,0.5379894942361545,left,both,ambiguous-switch,64,0,left,left,0.196
SAM1990WRNO,2020-02-03-12-05-58,3,61,0.593289134639956,left,probe,biased-switch,-1,3,left,left,0.222
SAM1990WRNO,2020-02-03-12-05-58,3,62,0.6083730194747203,left,both,biased-switch,61,3,left,left,0.197
SAM1990WRNO,2020-02-03-12-05-58,3,63,0.5094006036406271,right,probe,ambiguous-switch,-1,-12,right,right,0.23
SAM1990WRNO,2020-02-03-12-05-58,3,64,0.5830833368081273,right,both,ambiguous-switch,62,-12,right,right,0.19
SAM1990WRNO,2020-02-03-12-05-58,3,65,0.6487968918884065,right,probe,ambiguous-switch,-1,18,right,right,0.206
SAM1990WRNO,2020-02-03-12-05-58,3,66,0.650962223616467,right,both,ambiguous-switch,62,18,right,right,0.105
SAM1990WRNO,2020-02-03-12-05-58,3,67,0.5658458981464374,right,probe,biased-switch,-1,-6,right,right,0.192
SAM1990WRNO,2020-02-03-12-05-58,3,68,0.6100820248648768,right,both,biased-switch,57,-6,right,right,0.235
SAM1990WRNO,2020-02-03-12-05-58,3,69,0.6477323931472969,right,probe,biased-switch,-1,0,right,right,0.202
SAM1990WRNO,2020-02-03-12-05-58,3,70,0.6813080988992666,right,both,biased-switch,60,0,right,right,0.205
SAM1990WRNO,2020-02-03-12-05-58,3,71,0.6881033648615404,left,probe,ambiguous-switch,-1,-18,left,left,0.196
SAM1990WRNO,2020-02-03-12-05-58,3,72,0.6896184098502691,left,both,ambiguous-switch,65,-18,left,left,0.188
SAM1990WRNO,2020-02-03-12-05-58,3,73,0.5560636579240961,left,probe,biased-switch,-1,-3,left,left,0.204
SAM1990WRNO,2020-02-03-12-05-58,3,74,0.530859036986443,left,both,biased-switch,62,-3,left,left,0.221
SAM1990WRNO,2020-02-03-12-05-58,3,75,0.5142615795224306,right,probe,ambiguous-switch,-1,-6,right,right,0.208
SAM1990WRNO,2020-02-03-12-05-58,3,76,0.5894294886238576,right,both,ambiguous-switch,55,-6,right,right,0.224
SAM1990WRNO,2020-02-03-12-05-58,3,77,0.5875452194424979,right,probe,ambiguous-switch,-1,12,right,right,0.206
SAM1990WRNO,2020-02-03-12-05-58,3,78,0.5430557892414469,right,both,ambiguous-switch,56,12,right,right,0.171
SAM1990WRNO,2020-02-03-12-05-58,3,79,0.5700196751003845,left,probe,biased-switch,-1,-12,left,left,0.186
SAM1990WRNO,2020-02-03-12-05-58,3,80,0.6350833231497778,left,both,biased-switch,56,-12,left,left,0.224
SAM1990WRNO,2020-02-03-12-05-58,4,1,0.6091056855725471,right,probe,biased-switch,-1,6,right,right,0.2
SAM1990WRNO,2020-02-03-12-05-58,4,2,0.6068505495288513,right,both,biased-switch,56,6,right,right,0.264
SAM1990WRNO,2020-02-03-12-05-58,4,3,0.6163822863994511,right,probe,ambiguous-switch,-1,-12,right,right,0.522
SAM1990WRNO,2020-02-03-12-05-58,4,4,0.6314251162128599,right,both,ambiguous-switch,57,-12,right,right,0.213
SAM1990WRNO,2020-02-03-12-05-58,4,5,0.6951619451461999,right,probe,biased-switch,-1,3,right,right,0.347
SAM1990WRNO,2020-02-03-12-05-58,4,6,0.5564167826231032,right,both,biased-switch,61,3,right,right,0.201
SAM1990WRNO,2020-02-03-12-05-58,4,7,0.6522530817823208,left,probe,biased-switch,-1,12,left,left,0.221
SAM1990WRNO,2020-02-03-12-05-58,4,8,0.5094980421760613,left,both,biased-switch,56,12,left,left,0.097
SAM1990WRNO,2020-02-03-12-05-58,4,9,0.6641347119554364,left,probe,biased-switch,-1,18,left,left,0.239
SAM1990WRNO,2020-02-03-12-05-58,4,10,0.5602411991171943,left,both,biased-switch,65,18,left,left,0.127
SAM1990WRNO,2020-02-03-12-05-58,4,11,0.6494923035538737,left,probe,biased-switch,-1,-6,left,left,0.212
SAM1990WRNO,2020-02-03-12-05-58,4,12,0.6516020919324281,left,both,biased-switch,64,-6,left,left,0.168
SAM1990WRNO,2020-02-03-12-05-58,4,13,0.6483152742643485,left,probe,biased-switch,-1,0,left,left,0.407
SAM1990WRNO,2020-02-03-12-05-58,4,14,0.5564369825975413,left,both,biased-switch,58,0,left,left,0.217
SAM1990WRNO,2020-02-03-12-05-58,4,15,0.6281636757730148,left,probe,ambiguous-switch,-1,3,left,left,0.257
SAM1990WRNO,2020-02-03-12-05-58,4,16,0.5489229895673631,left,both,ambiguous-switch,57,3,left,left,0.165
SAM1990WRNO,2020-02-03-12-05-58,4,17,0.5307538513135525,right,probe,biased-switch,-1,-3,right,right,0.222
SAM1990WRNO,2020-02-03-12-05-58,4,18,0.5400873133799237,right,both,biased-switch,57,-3,right,right,0.223
SAM1990WRNO,2020-02-03-12-05-58,4,19,0.6240483743806104,right,probe,ambiguous-switch,-1,-3,right,right,0.181
SAM1990WRNO,2020-02-03-12-05-58,4,20,0.5613997520043701,right,both,ambiguous-switch,56,-3,right,right,0.188
SAM1990WRNO,2020-02-03-12-05-58,4,21,0.6797758870656618,left,probe,ambiguous-switch,-1,18,left,left,0.207
SAM1990WRNO,2020-02-03-12-05-58,4,22,0.5060401159209801,left,both,ambiguous-switch,62,18,left,left,0.013
SAM1990WRNO,2020-02-03-12-05-58,4,23,0.5057171510557897,right,probe,ambiguous-switch,-1,-18,right,right,0.213
SAM1990WRNO,2020-02-03-12-05-58,4,24,0.5714188328173297,right,both,ambiguous-switch,57,-18,right,right,0.253
SAM1990WRNO,2020-02-03-12-05-58,4,25,0.6759047886360434,right,probe,ambiguous-switch,-1,0,right,right,0.322
SAM1990WRNO,2020-02-03-12-05-58,4,26,0.5837166845548961,right,both,ambiguous-switch,59,0,right,right,0.22
SAM1990WRNO,2020-02-03-12-05-58,4,27,0.5445545743358111,left,probe,ambiguous-switch,-1,24,left,left,0.198
SAM1990WRNO,2020-02-03-12-05-58,4,28,0.6264988131863527,left,both,ambiguous-switch,59,24,left,left,0.299
SAM1990WRNO,2020-02-03-12-05-58,4,29,0.6011003204521275,left,probe,ambiguous-switch,-1,-6,left,left,0.218
SAM1990WRNO,2020-02-03-12-05-58,4,30,0.5163072407178204,left,both,ambiguous-switch,65,-6,left,left,0.218
SAM1990WRNO,2020-02-03-12-05-58,4,31,0.645791327134999,right,probe,ambiguous-switch,-1,6,right,right,0.218
SAM1990WRNO,2020-02-03-12-05-58,4,32,0.5817071336172965,right,both,ambiguous-switch,65,6,right,right,0.193
SAM1990WRNO,2020-02-03-12-05-58,4,33,0.6435545030926432,right,probe,biased-switch,-1,24,right,right,0.284
SAM1990WRNO,2020-02-03-12-05-58,4,34,0.5645309847372895,right,both,biased-switch,59,24,right,right,0.177
SAM1990WRNO,2020-02-03-12-05-58,4,35,0.5063129147687171,left,probe,biased-switch,-1,-12,left,left,0.13
SAM1990WRNO,2020-02-03-12-05-58,4,36,0.5856010413280149,left,both,biased-switch,61,-12,left,left,0.211
SAM1990WRNO,2020-02-03-12-05-58,4,37,0.5689748987010586,left,probe,ambiguous-switch,-1,12,left,left,0.249
SAM1990WRNO,2020-02-03-12-05-58,4,38,0.6817576436373074,left,both,ambiguous-switch,64,12,left,left,0.409
SAM1990WRNO,2020-02-03-12-05-58,4,39,0.5477389872852916,right,probe,biased-switch,-1,-18,right,right,0.206
SAM1990WRNO,2020-02-03-12-05-58,4,40,0.6071197398806764,right,both,biased-switch,63,-18,right,right,0.175
SAM1990WRNO,2020-02-03-12-05-58,4,41,0.6292876573267012,left,probe,biased-switch,-1,6,left,left,0.197
SAM1990WRNO,2020-02-03-12-05-58,4,42,0.667977085735795,left,both,biased-switch,54,6,left,left,0.219
SAM1990WRNO,2020-02-03-12-05-58,4,43,0.5738276845947079,right,probe,ambiguous-switch,-1,-12,right,right,0.21
SAM1990WRNO,2020-02-03-12-05-58,4,44,0.5551701555270017,right,both,ambiguous-switch,62,-12,right,right,0.193
SAM1990WRNO,2020-02-03-12-05-58,4,45,0.5034627173435965,left,probe,biased-switch,-1,3,left,left,0.169
SAM1990WRNO,2020-02-03-12-05-58,4,46,0.5847753946020579,left,both,biased-switch,63,3,left,left,0.201
SAM1990WRNO,2020-02-03-12-05-58,4,47,0.5175104005913584,left,probe,biased-switch,-1,12,left,left,0.204
SAM1990WRNO,2020-02-03-12-05-58,4,48,0.6710117319471295,left,both,biased-switch,54,12,left,left,0.192
SAM1990WRNO,2020-02-03-12-05-58,4,49,0.5907897671170287,right,probe,biased-switch,-1,18,right,right,0.274
SAM1990WRNO,2020-02-03-12-05-58,4,50,0.5794131617386935,right,both,biased-switch,55,18,right,right,0.209
SAM1990WRNO,2020-02-03-12-05-58,4,51,0.5768406397871575,right,probe,biased-switch,-1,-6,right,right,0.209
SAM1990WRNO,2020-02-03-12-05-58,4,52,0.6047091232624606,right,both,biased-switch,60,-6,right,right,0.258
SAM1990WRNO,2020-02-03-12-05-58,4,53,0.6223948895300047,right,probe,biased-switch,-1,0,right,right,0.176
SAM1990WRNO,2020-02-03-12-05-58,4,54,0.6873986869200299,right,both,biased-switch,63,0,right,right,0.219
SAM1990WRNO,2020-02-03-12-05-58,4,55,0.5388717543453675,right,probe,ambiguous-switch,-1,3,right,right,0.224
SAM1990WRNO,2020-02-03-12-05-58,4,56,0.6869766885640425,right,both,ambiguous-switch,56,3,right,right,0.24
SAM1990WRNO,2020-02-03-12-05-58,4,57,0.5230234464468664,left,probe,biased-switch,-1,-3,left,left,0.168
SAM1990WRNO,2020-02-03-12-05-58,4,58,0.5793653376127392,left,both,biased-switch,59,-3,left,left,0.222
SAM1990WRNO,2020-02-03-12-05-58,4,59,0.5260888926907614,left,probe,ambiguous-switch,-1,-3,left,left,0.241
SAM1990WRNO,2020-02-03-12-05-58,4,60,0.5129151561114511,left,both,ambiguous-switch,55,-3,left,left,0.221
SAM1990WRNO,2020-02-03-12-05-58,4,61,0.5551532882501399,right,probe,ambiguous-switch,-1,18,right,right,0.209
SAM1990WRNO,2020-02-03-12-05-58,4,62,0.5467470407571522,right,both,ambiguous-switch,61,18,right,right,0.212
SAM1990WRNO,2020-02-03-12-05-58,4,63,0.5168926216769114,left,probe,ambiguous-switch,-1,-18,left,left,0.179
SAM1990WRNO,2020-02-03-12-05-58,4,64,0.5913954185807081,left,both,ambiguous-switch,65,-18,left,left,0.209
SAM1990WRNO,2020-02-03-12-05-58,4,65,0.5249272519147077,left,probe,ambiguous-switch,-1,0,left,left,0.194
SAM1990WRNO,2020-02-03-12-05-58,4,66,0.6701959836750417,left,both,ambiguous-switch,55,0,left,left,0.218
SAM1990WRNO,2020-02-03-12-05-58,4,67,0.5160857848429437,right,probe,ambiguous-switch,-1,24,right,right,0.225
SAM1990WRNO,2020-02-03-12-05-58,4,68,0.5016385864004688,right,both,ambiguous-switch,59,24,right,right,0.234
SAM1990WRNO,2020-02-03-12-05-58,4,69,0.5284119922277505,right,probe,ambiguous-switch,-1,-6,right,right,0.194
SAM1990WRNO,2020-02-03-12-05-58,4,70,0.5022576395523204,right,both,ambiguous-switch,59,-6,right,right,0.209
SAM1990WRNO,2020-02-03-12-05-58,4,71,0.6553869188963426,right,probe,ambiguous-switch,-1,6,right,right,0.267
SAM1990WRNO,2020-02-03-12-05-58,4,72,0.600321101271268,right,both,ambiguous-switch,62,6,right,right,0.193
SAM1990WRNO,2020-02-03-12-05-58,4,73,0.6551737944216622,left,probe,biased-switch,-1,24,left,left,0.196
SAM1990WRNO,2020-02-03-12-05-58,4,74,0.5251933561060492,left,both,biased-switch,62,24,left,left,0.189
SAM1990WRNO,2020-02-03-12-05-58,4,75,0.6554277392422891,right,probe,biased-switch,-1,-12,right,right,0.308
SAM1990WRNO,2020-02-03-12-05-58,4,76,0.5595430888175073,right,both,biased-switch,55,-12,right,right,0.204
SAM1990WRNO,2020-02-03-12-05-58,4,77,0.6940471250442111,right,probe,ambiguous-switch,-1,12,right,right,0.241
SAM1990WRNO,2020-02-03-12-05-58,4,78,0.5232490089739469,right,both,ambiguous-switch,60,12,right,right,0.07
SAM1990WRNO,2020-02-03-12-05-58,4,79,0.5997937629616874,left,probe,biased-switch,-1,-18,left,left,0.268
SAM1990WRNO,2020-02-03-12-05-58,4,80,0.5611499938484603,left,both,biased-switch,55,-18,left,left,0.262
SAM1990WRNO,2020-02-03-12-05-58,5,1,0.50625667356625,left,probe,ambiguous-switch,-1,-12,left,left,0.203
SAM1990WRNO,2020-02-03-12-05-58,5,2,0.6849543667149998,left,both,ambiguous-switch,56,-12,left,left,0.217
SAM1990WRNO,2020-02-03-12-05-58,5,3,0.6106700506443437,left,probe,ambiguous-switch,-1,24,left,left,0.304
SAM1990WRNO,2020-02-03-12-05-58,5,4,0.6684834944473912,left,both,ambiguous-switch,62,24,left,left,3.504
SAM1990WRNO,2020-02-03-12-05-58,5,5,0.548405107801716,left,probe,biased-switch,-1,6,left,left,0.205
SAM1990WRNO,2020-02-03-12-05-58,5,6,0.5788850955140503,left,both,biased-switch,63,6,left,left,0.007
SAM1990WRNO,2020-02-03-12-05-58,5,7,0.639705746926778,right,probe,biased-switch,-1,18,right,right,0.253
SAM1990WRNO,2020-02-03-12-05-58,5,8,0.6848612530511186,right,both,biased-switch,60,18,right,right,0.211
SAM1990WRNO,2020-02-03-12-05-58,5,9,0.6947060912785965,right,probe,biased-switch,-1,12,right,right,0.239
SAM1990WRNO,2020-02-03-12-05-58,5,10,0.5034037538990995,right,both,biased-switch,65,12,right,right,0.209
SAM1990WRNO,2020-02-03-12-05-58,5,11,0.6658942094345044,left,probe,ambiguous-switch,-1,-3,left,left,0.191
SAM1990WRNO,2020-02-03-12-05-58,5,12,0.5306116435160916,left,both,ambiguous-switch,60,-3,left,left,0.197
SAM1990WRNO,2020-02-03-12-05-58,5,13,0.6695247101604888,left,probe,ambiguous-switch,-1,3,left,left,0.195
SAM1990WRNO,2020-02-03-12-05-58,5,14,0.6511197800420655,left,both,ambiguous-switch,64,3,left,left,0.189
SAM1990WRNO,2020-02-03-12-05-58,5,15,0.5671304405043518,left,probe,biased-switch,-1,24,left,left,0.323
SAM1990WRNO,2020-02-03-12-05-58,5,16,0.6859067177200472,left,both,biased-switch,65,24,left,left,0.376
SAM1990WRNO,2020-02-03-12-05-58,5,17,0.5189809205972559,left,probe,biased-switch,-1,-18,left,left,0.546
SAM1990WRNO,2020-02-03-12-05-58,5,18,0.6903228641767999,left,both,biased-switch,54,-18,left,left,0.267
SAM1990WRNO,2020-02-03-12-05-58,5,19,0.5638808335147026,right,probe,ambiguous-switch,-1,18,right,right,0.352
SAM1990WRNO,2020-02-03-12-05-58,5,20,0.5208838442108269,right,both,ambiguous-switch,62,18,right,right,0.289
SAM1990WRNO,2020-02-03-12-05-58,5,21,0.6349744184425277,left,probe,ambiguous-switch,-1,6,left,left,0.205
SAM1990WRNO,2020-02-03-12-05-58,5,22,0.6786179308658824,left,both,ambiguous-switch,60,6,left,left,0.635
SAM1990WRNO,2020-02-03-12-05-58,5,23,0.6872262153508368,right,probe,biased-switch,-1,3,right,right,0.386
SAM1990WRNO,2020-02-03-12-05-58,5,24,0.537745896803165,right,both,biased-switch,66,3,right,right,1.145
SAM1990WRNO,2020-02-03-12-05-58,5,25,0.6241930672009643,left,probe,ambiguous-switch,-1,12,left,left,0.295
SAM1990WRNO,2020-02-03-12-05-58,5,26,0.604265141488039,left,both,ambiguous-switch,61,12,left,left,0.235
SAM1990WRNO,2020-02-03-12-05-58,5,27,0.5665438126498012,left,probe,ambiguous-switch,-1,-6,left,left,0.442
SAM1990WRNO,2020-02-03-12-05-58,5,28,0.5848823815451296,left,both,ambiguous-switch,62,-6,left,left,0.233
SAM1990WRNO,2020-02-03-12-05-58,5,29,0.5436154015684195,right,probe,biased-switch,-1,-6,right,right,0.283
SAM1990WRNO,2020-02-03-12-05-58,5,30,0.6460416631646329,right,both,biased-switch,60,-6,right,right,0.275
SAM1990WRNO,2020-02-03-12-05-58,5,31,0.6997973081969416,right,probe,biased-switch,-1,-3,right,right,0.248
SAM1990WRNO,2020-02-03-12-05-58,5,32,0.5570789617623887,right,both,biased-switch,60,-3,right,right,0.234
SAM1990WRNO,2020-02-03-12-05-58,5,33,0.51826162940437,right,probe,ambiguous-switch,-1,0,right,right,0.225
SAM1990WRNO,2020-02-03-12-05-58,5,34,0.6756679886262656,right,both,ambiguous-switch,55,0,right,right,0.226
SAM1990WRNO,2020-02-03-12-05-58,5,35,0.6066508660729654,left,probe,ambiguous-switch,-1,-18,left,left,0.269
SAM1990WRNO,2020-02-03-12-05-58,5,36,0.6334045404101499,left,both,ambiguous-switch,64,-18,left,left,0.297
SAM1990WRNO,2020-02-03-12-05-58,5,37,0.6069837438422866,right,probe,biased-switch,-1,-12,right,right,0.243
SAM1990WRNO,2020-02-03-12-05-58,5,38,0.5984375570547099,right,both,biased-switch,61,-12,right,right,0.225
SAM1990WRNO,2020-02-03-12-05-58,5,39,0.558262754077458,right,probe,biased-switch,-1,0,right,right,0.202
SAM1990WRNO,2020-02-03-12-05-58,5,40,0.5428225145195801,right,both,biased-switch,60,0,right,right,0.249
SAM1990WRNO,2020-02-03-12-05-58,5,41,0.5554375467766259,right,probe,ambiguous-switch,-1,-12,right,right,0.25
SAM1990WRNO,2020-02-03-12-05-58,5,42,0.692968861641968,right,both,ambiguous-switch,55,-12,right,right,0.219
SAM1990WRNO,2020-02-03-12-05-58,5,43,0.5331628470652003,left,probe,ambiguous-switch,-1,24,left,left,1.833
SAM1990WRNO,2020-02-03-12-05-58,5,44,0.5014379887390286,left,both,ambiguous-switch,61,24,left,left,0.204
SAM1990WRNO,2020-02-03-12-05-58,5,45,0.5324005425779471,left,probe,biased-switch,-1,6,left,left,0.316
SAM1990WRNO,2020-02-03-12-05-58,5,46,0.574464613176444,left,both,biased-switch,65,6,left,left,0.14
SAM1990WRNO,2020-02-03-12-05-58,5,47,0.5912284708893009,left,probe,biased-switch,-1,18,left,left,0.292
SAM1990WRNO,2020-02-03-12-05-58,5,48,0.6154047163585296,left,both,biased-switch,60,18,left,left,0.017
SAM1990WRNO,2020-02-03-12-05-58,5,49,0.688382725303374,left,probe,biased-switch,-1,12,left,left,0.177
SAM1990WRNO,2020-02-03-12-05-58,5,50,0.6504770106795144,left,both,biased-switch,57,12,left,left,0.088
SAM1990WRNO,2020-02-03-12-05-58,5,51,0.6690655359245451,right,probe,ambiguous-switch,-1,-3,right,right,0.266
SAM1990WRNO,2020-02-03-12-05-58,5,52,0.6492942055178035,right,both,ambiguous-switch,56,-3,right,right,0.209
SAM1990WRNO,2020-02-03-12-05-58,5,53,0.6705651259051534,left,probe,ambiguous-switch,-1,3,left,left,0.207
SAM1990WRNO,2020-02-03-12-05-58,5,54,0.6295993483321013,left,both,ambiguous-switch,60,3,left,left,0.239
SAM1990WRNO,2020-02-03-12-05-58,5,55,0.5116293829864981,right,probe,biased-switch,-1,24,right,right,0.219
SAM1990WRNO,2020-02-03-12-05-58,5,56,0.6632324984303397,right,both,biased-switch,63,24,right,right,0.25
SAM1990WRNO,2020-02-03-12-05-58,5,57,0.5124490074204412,left,probe,biased-switch,-1,-18,left,left,0.201
SAM1990WRNO,2020-02-03-12-05-58,5,58,0.6590779292315823,left,both,biased-switch,57,-18,left,left,0.292
SAM1990WRNO,2020-02-03-12-05-58,5,59,0.5014143981708411,right,probe,ambiguous-switch,-1,18,right,right,0.4
SAM1990WRNO,2020-02-03-12-05-58,5,60,0.5542670101622506,right,both,ambiguous-switch,58,18,right,right,0.195
SAM1990WRNO,2020-02-03-12-05-58,5,61,0.5639010137671419,right,probe,ambiguous-switch,-1,6,right,right,0.567
SAM1990WRNO,2020-02-03-12-05-58,5,62,0.5809433442077752,right,both,ambiguous-switch,58,6,right,right,0.212
SAM1990WRNO,2020-02-03-12-05-58,5,63,0.5666708713225153,right,probe,biased-switch,-1,3,right,right,0.227
SAM1990WRNO,2020-02-03-12-05-58,5,64,0.6421795296072186,right,both,biased-switch,60,3,right,right,0.16
SAM1990WRNO,2020-02-03-12-05-58,5,65,0.5783583530743863,left,probe,ambiguous-switch,-1,12,left,left,0.204
SAM1990WRNO,2020-02-03-12-05-58,5,66,0.6248688525174105,left,both,ambiguous-switch,55,12,left,left,0.047
SAM1990WRNO,2020-02-03-12-05-58,5,67,0.6473934540264605,right,probe,ambiguous-switch,-1,-6,right,right,0.227
SAM1990WRNO,2020-02-03-12-05-58,5,68,0.5131180984296696,right,both,ambiguous-switch,55,-6,right,right,0.201
SAM1990WRNO,2020-02-03-12-05-58,5,69,0.5983214584830431,left,probe,biased-switch,-1,-6,left,left,0.33
SAM1990WRNO,2020-02-03-12-05-58,5,70,0.6544374159268797,left,both,biased-switch,59,-6,left,left,0.234
SAM1990WRNO,2020-02-03-12-05-58,5,71,0.6892932238374634,right,probe,biased-switch,-1,-3,right,right,0.212
SAM1990WRNO,2020-02-03-12-05-58,5,72,0.6627826515065064,right,both,biased-switch,65,-3,right,right,0.222
SAM1990WRNO,2020-02-03-12-05-58,5,73,0.5625708397090098,right,probe,ambiguous-switch,-1,0,right,right,0.275
SAM1990WRNO,2020-02-03-12-05-58,5,74,0.6472289742267446,right,both,ambiguous-switch,60,0,right,right,0.221
SAM1990WRNO,2020-02-03-12-05-58,5,75,0.6299050858776614,right,probe,ambiguous-switch,-1,-18,right,right,0.239
SAM1990WRNO,2020-02-03-12-05-58,5,76,0.5131959563215491,right,both,ambiguous-switch,62,-18,right,right,0.213
SAM1990WRNO,2020-02-03-12-05-58,5,77,0.6684684628523689,left,probe,biased-switch,-1,-12,left,left,0.186
SAM1990WRNO,2020-02-03-12-05-58,5,78,0.6571815049423407,left,both,biased-switch,64,-12,left,left,0.228
SAM1990WRNO,2020-02-03-12-05-58,5,79,0.522967243325932,right,probe,biased-switch,-1,0,right,right,0.201
SAM1990WRNO,2020-02-03-12-05-58,5,80,0.6484181611662501,right,both,biased-switch,56,0,right,right,0.203
SAM1990WRNO,2020-02-03-12-05-58,6,1,0.652413731865962,left,probe,biased-switch,-1,-6,left,left,0.353
SAM1990WRNO,2020-02-03-12-05-58,6,2,0.5568273914405599,left,both,biased-switch,55,-6,left,left,0.256
SAM1990WRNO,2020-02-03-12-05-58,6,3,0.5053724108718239,right,probe,ambiguous-switch,-1,-6,right,right,0.295
SAM1990WRNO,2020-02-03-12-05-58,6,4,0.5063965618419523,right,both,ambiguous-switch,60,-6,right,right,0.204
SAM1990WRNO,2020-02-03-12-05-58,6,5,0.597119586658006,left,probe,biased-switch,-1,18,left,left,0.215
SAM1990WRNO,2020-02-03-12-05-58,6,6,0.5555721637132023,left,both,biased-switch,61,18,left,left,0.279
SAM1990WRNO,2020-02-03-12-05-58,6,7,0.633891804014761,left,probe,biased-switch,-1,24,left,left,0.306
SAM1990WRNO,2020-02-03-12-05-58,6,8,0.5602682024341441,left,both,biased-switch,58,24,left,left,0.953
SAM1990WRNO,2020-02-03-12-05-58,6,9,0.5707738502525597,right,probe,biased-switch,-1,3,right,right,0.239
SAM1990WRNO,2020-02-03-12-05-58,6,10,0.697687882094177,right,both,biased-switch,56,3,right,right,0.281
SAM1990WRNO,2020-02-03-12-05-58,6,11,0.5566323647589639,left,probe,biased-switch,-1,-3,left,left,0.336
SAM1990WRNO,2020-02-03-12-05-58,6,12,0.5406137059005217,left,both,biased-switch,56,-3,left,left,0.229
SAM1990WRNO,2020-02-03-12-05-58,6,13,0.5643389403492506,right,probe,ambiguous-switch,-1,-18,right,right,0.228
SAM1990WRNO,2020-02-03-12-05-58,6,14,0.6735197789243413,right,both,ambiguous-switch,62,-18,right,right,0.31
SAM1990WRNO,2020-02-03-12-05-58,6,15,0.6264767824968511,left,probe,ambiguous-switch,-1,-12,left,left,0.467
SAM1990WRNO,2020-02-03-12-05-58,6,16,0.6000135336140946,left,both,ambiguous-switch,63,-12,left,left,0.203
SAM1990WRNO,2020-02-03-12-05-58,6,17,0.5947159262255696,left,probe,biased-switch,-1,-18,left,left,0.254
SAM1990WRNO,2020-02-03-12-05-58,6,18,0.6299029038703109,left,both,biased-switch,60,-18,left,left,0.273
SAM1990WRNO,2020-02-03-12-05-58,6,19,0.550495792065202,right,probe,biased-switch,-1,6,right,right,0.242
SAM1990WRNO,2020-02-03-12-05-58,6,20,0.6866481850236567,right,both,biased-switch,60,6,right,right,0.23
SAM1990WRNO,2020-02-03-12-05-58,6,21,0.5411641613558439,right,probe,biased-switch,-1,-12,right,right,0.229
SAM1990WRNO,2020-02-03-12-05-58,6,22,0.5087288638081139,right,both,biased-switch,54,-12,right,right,0.236
SAM1990WRNO,2020-02-03-12-05-58,6,23,0.5104412617274156,left,probe,ambiguous-switch,-1,18,left,left,0.233
SAM1990WRNO,2020-02-03-12-05-58,6,24,0.6307490767301057,left,both,ambiguous-switch,61,18,left,left,0.232
SAM1990WRNO,2020-02-03-12-05-58,6,25,0.572314373428904,right,probe,biased-switch,-1,12,right,right,0.229
SAM1990WRNO,2020-02-03-12-05-58,6,26,0.6003464289152488,right,both,biased-switch,64,12,right,right,0.215
SAM1990WRNO,2020-02-03-12-05-58,6,27,0.5713426534524987,left,probe,ambiguous-switch,-1,6,left,left,0.26
SAM1990WRNO,2020-02-03-12-05-58,6,28,0.5046940468160211,left,both,ambiguous-switch,56,6,left,left,0.258
SAM1990WRNO,2020-02-03-12-05-58,6,29,0.6558064164544781,left,probe,ambiguous-switch,-1,3,left,left,0.239
SAM1990WRNO,2020-02-03-12-05-58,6,30,0.6272922187898045,left,both,ambiguous-switch,56,3,left,left,0.198
SAM1990WRNO,2020-02-03-12-05-58,6,31,0.5592443145654041,right,probe,ambiguous-switch,-1,0,right,right,0.431
SAM1990WRNO,2020-02-03-12-05-58,6,32,0.655067970516176,right,both,ambiguous-switch,65,0,right,right,0.287
SAM1990WRNO,2020-02-03-12-05-58,6,33,0.5178313810569352,left,probe,ambiguous-switch,-1,-3,left,left,0.283
SAM1990WRNO,2020-02-03-12-05-58,6,34,0.6376741034476261,left,both,ambiguous-switch,58,-3,left,left,0.18
SAM1990WRNO,2020-02-03-12-05-58,6,35,0.6406879539655745,left,probe,biased-switch,-1,0,left,left,0.235
SAM1990WRNO,2020-02-03-12-05-58,6,36,0.5786196420973908,left,both,biased-switch,61,0,left,left,0.212
SAM1990WRNO,2020-02-03-12-05-58,6,37,0.6505602276756979,left,probe,ambiguous-switch,-1,12,left,left,0.264
SAM1990WRNO,2020-02-03-12-05-58,6,38,0.5100343185574193,left,both,ambiguous-switch,63,12,left,left,0.353
SAM1990WRNO,2020-02-03-12-05-58,6,39,0.5293075489524525,left,probe,ambiguous-switch,-1,24,left,left,0.266
SAM1990WRNO,2020-02-03-12-05-58,6,40,0.6485580764756739,left,both,ambiguous-switch,54,24,left,left,0.445
SAM1990WRNO,2020-02-03-12-05-58,6,41,0.5715491289470847,left,probe,biased-switch,-1,-6,left,left,0.258
SAM1990WRNO,2020-02-03-12-05-58,6,42,0.6997515619419186,left,both,biased-switch,58,-6,left,left,0.217
SAM1990WRNO,2020-02-03-12-05-58,6,43,0.6520470814687396,right,probe,ambiguous-switch,-1,-6,right,right,0.24
SAM1990WRNO,2020-02-03-12-05-58,6,44,0.6763723201236381,right,both,ambiguous-switch,56,-6,right,right,0.257
SAM1990WRNO,2020-02-03-12-05-58,6,45,0.5092288915516457,right,probe,biased-switch,-1,18,right,right,0.325
SAM1990WRNO,2020-02-03-12-05-58,6,46,0.6854058637245731,right,both,biased-switch,55,18,right,right,0.239
SAM1990WRNO,2020-02-03-12-05-58,6,47,0.6566397324881836,right,probe,biased-switch,-1,24,right,right,0.46
SAM1990WRNO,2020-02-03-12-05-58,6,48,0.6523459466121461,right,both,biased-switch,61,24,right,right,0.305
SAM1990WRNO,2020-02-03-12-05-58,6,49,0.6719033442069668,right,probe,biased-switch,-1,3,right,right,0.253
SAM1990WRNO,2020-02-03-12-05-58,6,50,0.5356676597831356,right,both,biased-switch,60,3,right,right,0.222
SAM1990WRNO,2020-02-03-12-05-58,6,51,0.5110520128752009,right,probe,biased-switch,-1,-3,right,right,0.226
SAM1990WRNO,2020-02-03-12-05-58,6,52,0.5194804443745592,right,both,biased-switch,55,-3,right,right,0.227
SAM1990WRNO,2020-02-03-12-05-58,6,53,0.5840126617879443,left,probe,ambiguous-switch,-1,-18,left,left,0.216
SAM1990WRNO,2020-02-03-12-05-58,6,54,0.5276265998566305,left,both,ambiguous-switch,62,-18,left,left,0.699
SAM1990WRNO,2020-02-03-12-05-58,6,55,0.600830949871987,right,probe,ambiguous-switch,-1,-12,left,left,0.469
SAM1990WRNO,2020-02-03-12-05-58,6,56,0.615055391097915,right,both,ambiguous-switch,57,-12,left,right,0.219
SAM1990WRNO,2020-02-03-12-05-58,6,57,0.6834843938582363,left,probe,biased-switch,-1,-18,left,left,0.243
SAM1990WRNO,2020-02-03-12-05-58,6,58,0.5834946126887888,left,both,biased-switch,55,-18,left,left,0.228
SAM1990WRNO,2020-02-03-12-05-58,6,59,0.6091209037203431,right,probe,biased-switch,-1,6,right,right,0.223
SAM1990WRNO,2020-02-03-12-05-58,6,60,0.6472548185100585,right,both,biased-switch,61,6,right,right,0.255
SAM1990WRNO,2020-02-03-12-05-58,6,61,0.6226278006122666,right,probe,biased-switch,-1,-12,right,right,0.516
SAM1990WRNO,2020-02-03-12-05-58,6,62,0.6249829545767641,right,both,biased-switch,59,-12,right,right,0.235
SAM1990WRNO,2020-02-03-12-05-58,6,63,0.6852858398384214,right,probe,ambiguous-switch,-1,18,right,right,0.237
SAM1990WRNO,2020-02-03-12-05-58,6,64,0.6654506418644639,right,both,ambiguous-switch,65,18,right,right,0.491
SAM1990WRNO,2020-02-03-12-05-58,6,65,0.6110273605321889,left,probe,biased-switch,-1,12,left,left,0.31
SAM1990WRNO,2020-02-03-12-05-58,6,66,0.6028235405353667,left,both,biased-switch,57,12,left,left,0.242
SAM1990WRNO,2020-02-03-12-05-58,6,67,0.5011479552589518,left,probe,ambiguous-switch,-1,6,left,left,0.434
SAM1990WRNO,2020-02-03-12-05-58,6,68,0.6905241538021236,left,both,ambiguous-switch,66,6,left,left,0.237
SAM1990WRNO,2020-02-03-12-05-58,6,69,0.5996770675217074,right,probe,ambiguous-switch,-1,3,right,right,0.232
SAM1990WRNO,2020-02-03-12-05-58,6,70,0.5229824507361267,right,both,ambiguous-switch,62,3,right,right,0.226
SAM1990WRNO,2020-02-03-12-05-58,6,71,0.5620230753290364,right,probe,ambiguous-switch,-1,0,right,right,0.227
SAM1990WRNO,2020-02-03-12-05-58,6,72,0.6713906736677654,right,both,ambiguous-switch,65,0,right,right,0.239
SAM1990WRNO,2020-02-03-12-05-58,6,73,0.5312913272099739,right,probe,ambiguous-switch,-1,-3,right,right,0.248
SAM1990WRNO,2020-02-03-12-05-58,6,74,0.5744925575806086,right,both,ambiguous-switch,55,-3,right,right,0.205
SAM1990WRNO,2020-02-03-12-05-58,6,75,0.6338812728469896,right,probe,biased-switch,-1,0,right,right,0.243
SAM1990WRNO,2020-02-03-12-05-58,6,76,0.6216785466437241,right,both,biased-switch,58,0,right,right,0.213
SAM1990WRNO,2020-02-03-12-05-58,6,77,0.5992163890294238,right,probe,ambiguous-switch,-1,12,right,right,0.213
SAM1990WRNO,2020-02-03-12-05-58,6,78,0.6653632752121581,right,both,ambiguous-switch,58,12,right,right,0.229
SAM1990WRNO,2020-02-03-12-05-58,6,79,0.5493123392621457,right,probe,ambiguous-switch,-1,24,right,right,0.259
SAM1990WRNO,2020-02-03-12-05-58,6,80,0.5406638230905598,right,both,ambiguous-switch,60,24,right,right,0.228
SAM1990WRNO,2020-02-03-12-05-58,7,1,0.6442006845277388,right,probe,biased-switch,-1,6,right,right,0.237
SAM1990WRNO,2020-02-03-12-05-58,7,2,0.5266501013556987,right,both,biased-switch,60,6,right,right,0.236
SAM1990WRNO,2020-02-03-12-05-58,7,3,0.6157264056252164,right,probe,ambiguous-switch,-1,18,right,right,0.278
SAM1990WRNO,2020-02-03-12-05-58,7,4,0.607253996892659,right,both,ambiguous-switch,65,18,right,right,0.233
SAM1990WRNO,2020-02-03-12-05-58,7,5,0.6808524707990198,left,probe,biased-switch,-1,-3,left,left,0.231
SAM1990WRNO,2020-02-03-12-05-58,7,6,0.533122889266029,left,both,biased-switch,58,-3,left,left,0.216
SAM1990WRNO,2020-02-03-12-05-58,7,7,0.5508827823238059,left,probe,ambiguous-switch,-1,0,left,left,0.236
SAM1990WRNO,2020-02-03-12-05-58,7,8,0.6496640730147307,left,both,ambiguous-switch,63,0,left,left,0.22
SAM1990WRNO,2020-02-03-12-05-58,7,9,0.5925861163943018,right,probe,biased-switch,-1,-18,right,right,0.088
SAM1990WRNO,2020-02-03-12-05-58,7,10,0.6294894861890011,right,both,biased-switch,59,-18,right,right,0.246
SAM1990WRNO,2020-02-03-12-05-58,7,11,0.6909300452622706,right,probe,ambiguous-switch,-1,6,right,right,0.433
SAM1990WRNO,2020-02-03-12-05-58,7,12,0.6204549429146777,right,both,ambiguous-switch,66,6,right,right,0.239
SAM1990WRNO,2020-02-03-12-05-58,7,13,0.5851728440608857,right,probe,ambiguous-switch,-1,24,right,right,0.312
SAM1990WRNO,2020-02-03-12-05-58,7,14,0.6548078211702579,right,both,ambiguous-switch,58,24,right,right,0.255
SAM1990WRNO,2020-02-03-12-05-58,7,15,0.6436473154428284,left,probe,biased-switch,-1,3,left,left,0.29
SAM1990WRNO,2020-02-03-12-05-58,7,16,0.6711334730023865,left,both,biased-switch,59,3,left,left,0.232
SAM1990WRNO,2020-02-03-12-05-58,7,17,0.5081455888162263,right,probe,ambiguous-switch,-1,-6,right,right,0.226
SAM1990WRNO,2020-02-03-12-05-58,7,18,0.5090645116045414,right,both,ambiguous-switch,62,-6,right,right,0.24
SAM1990WRNO,2020-02-03-12-05-58,7,19,0.6197016399803081,right,probe,biased-switch,-1,24,right,right,0.288
SAM1990WRNO,2020-02-03-12-05-58,7,20,0.589041583798907,right,both,biased-switch,54,24,right,right,0.244
SAM1990WRNO,2020-02-03-12-05-58,7,21,0.5514084956792688,left,probe,biased-switch,-1,-6,left,left,0.226
SAM1990WRNO,2020-02-03-12-05-58,7,22,0.5111449270428872,left,both,biased-switch,62,-6,left,left,0.245
SAM1990WRNO,2020-02-03-12-05-58,7,23,0.5225641423052383,left,probe,biased-switch,-1,0,left,left,0.251
SAM1990WRNO,2020-02-03-12-05-58,7,24,0.6603774634731591,left,both,biased-switch,57,0,left,left,0.21
SAM1990WRNO,2020-02-03-12-05-58,7,25,0.5255318131544688,right,probe,ambiguous-switch,-1,12,right,right,0.226
SAM1990WRNO,2020-02-03-12-05-58,7,26,0.5723704147569929,right,both,ambiguous-switch,64,12,right,right,0.192
SAM1990WRNO,2020-02-03-12-05-58,7,27,0.5572858176902121,left,probe,ambiguous-switch,-1,-3,left,left,0.28
SAM1990WRNO,2020-02-03-12-05-58,7,28,0.6592752254631598,left,both,ambiguous-switch,56,-3,left,left,0.269
SAM1990WRNO,2020-02-03-12-05-58,7,29,0.53541117479479,left,probe,ambiguous-switch,-1,-12,left,left,0.23
SAM1990WRNO,2020-02-03-12-05-58,7,30,0.5957857696738585,left,both,ambiguous-switch,58,-12,left,left,0.23
SAM1990WRNO,2020-02-03-12-05-58,7,31,0.5943997417663442,right,probe,ambiguous-switch,-1,3,right,right,0.236
SAM1990WRNO,2020-02-03-12-05-58,7,32,0.5425107005443498,right,both,ambiguous-switch,54,3,right,right,0.227
SAM1990WRNO,2020-02-03-12-05-58,7,33,0.5906596689841936,left,probe,biased-switch,-1,-12,left,left,0.249
SAM1990WRNO,2020-02-03-12-05-58,7,34,0.5611128416197942,left,both,biased-switch,58,-12,left,left,0.226
SAM1990WRNO,2020-02-03-12-05-58,7,35,0.5355205507202762,right,probe,ambiguous-switch,-1,-18,right,right,0.225
SAM1990WRNO,2020-02-03-12-05-58,7,36,0.565603173769273,right,both,ambiguous-switch,64,-18,right,right,0.31
SAM1990WRNO,2020-02-03-12-05-58,7,37,0.5498968743657632,left,probe,biased-switch,-1,12,left,left,0.235
SAM1990WRNO,2020-02-03-12-05-58,7,38,0.5804511451283798,left,both,biased-switch,62,12,left,left,0.218
SAM1990WRNO,2020-02-03-12-05-58,7,39,0.6991487594126553,left,probe,biased-switch,-1,18,left,left,0.645
SAM1990WRNO,2020-02-03-12-05-58,7,40,0.676183126821771,left,both,biased-switch,65,18,left,left,0.328
SAM1990WRNO,2020-02-03-12-05-58,7,41,0.5798906451329449,left,probe,biased-switch,-1,6,left,left,0.246
SAM1990WRNO,2020-02-03-12-05-58,7,42,0.6395943936937127,left,both,biased-switch,57,6,left,left,0.356
SAM1990WRNO,2020-02-03-12-05-58,7,43,0.6883939298977121,left,probe,ambiguous-switch,-1,18,left,left,0.241
SAM1990WRNO,2020-02-03-12-05-58,7,44,0.6978764182581423,left,both,ambiguous-switch,62,18,left,left,0.257
SAM1990WRNO,2020-02-03-12-05-58,7,45,0.5686036507162089,left,probe,biased-switch,-1,-3,left,left,0.22
SAM1990WRNO,2020-02-03-12-05-58,7,46,0.6295840760916318,left,both,biased-switch,64,-3,left,left,0.275
SAM1990WRNO,2020-02-03-12-05-58,7,47,0.6558388323864959,right,probe,ambiguous-switch,-1,0,right,right,0.18
SAM1990WRNO,2020-02-03-12-05-58,7,48,0.63859317059412,right,both,ambiguous-switch,65,0,right,right,0.259
SAM1990WRNO,2020-02-03-12-05-58,7,49,0.6372075701341213,right,probe,biased-switch,-1,-18,right,right,0.254
SAM1990WRNO,2020-02-03-12-05-58,7,50,0.6958091553514023,right,both,biased-switch,65,-18,right,right,0.212
SAM1990WRNO,2020-02-03-12-05-58,7,51,0.5755014283415113,left,probe,ambiguous-switch,-1,6,left,left,0.209
SAM1990WRNO,2020-02-03-12-05-58,7,52,0.6256932995540668,left,both,ambiguous-switch,60,6,left,left,0.266
SAM1990WRNO,2020-02-03-12-05-58,7,53,0.6644181478238129,right,probe,ambiguous-switch,-1,24,right,right,0.246
SAM1990WRNO,2020-02-03-12-05-58,7,54,0.6304280743301323,right,both,ambiguous-switch,60,24,right,right,0.077
SAM1990WRNO,2020-02-03-12-05-58,7,55,0.6149854772742162,left,probe,biased-switch,-1,3,left,left,0.245
SAM1990WRNO,2020-02-03-12-05-58,7,56,0.6138128028322933,left,both,biased-switch,57,3,left,left,0.266
SAM1990WRNO,2020-02-03-12-05-58,7,57,0.6889327004546435,left,probe,ambiguous-switch,-1,-6,left,left,0.404
SAM1990WRNO,2020-02-03-12-05-58,7,58,0.5821522081897283,left,both,ambiguous-switch,57,-6,left,left,0.245
SAM1990WRNO,2020-02-03-12-05-58,7,59,0.6625377065513259,right,probe,biased-switch,-1,24,right,right,0.265
SAM1990WRNO,2020-02-03-12-05-58,7,60,0.5376975943794818,right,both,biased-switch,61,24,right,right,0.349
SAM1990WRNO,2020-02-03-12-05-58,7,61,0.5794998923610251,right,probe,biased-switch,-1,-6,right,right,0.258
SAM1990WRNO,2020-02-03-12-05-58,7,62,0.5779280537495475,right,both,biased-switch,57,-6,right,right,0.217
SAM1990WRNO,2020-02-03-12-05-58,7,63,0.6874051321235113,left,probe,biased-switch,-1,0,left,left,0.243
SAM1990WRNO,2020-02-03-12-05-58,7,64,0.5870483145300113,left,both,biased-switch,55,0,left,left,0.534
SAM1990WRNO,2020-02-03-12-05-58,7,65,0.5591153061003791,right,probe,ambiguous-switch,-1,12,right,right,0.302
SAM1990WRNO,2020-02-03-12-05-58,7,66,0.6822021758920671,right,both,ambiguous-switch,55,12,right,right,0.256
SAM1990WRNO,2020-02-03-12-05-58,7,67,0.5481675693072221,left,probe,ambiguous-switch,-1,-3,left,left,0.275
SAM1990WRNO,2020-02-03-12-05-58,7,68,0.6737152306378459,left,both,ambiguous-switch,64,-3,left,left,0.221
SAM1990WRNO,2020-02-03-12-05-58,7,69,0.5943361903782064,left,probe,ambiguous-switch,-1,-12,left,left,0.289
SAM1990WRNO,2020-02-03-12-05-58,7,70,0.6704937437195388,left,both,ambiguous-switch,59,-12,left,left,0.21
SAM1990WRNO,2020-02-03-12-05-58,7,71,0.5982993388379418,left,probe,ambiguous-switch,-1,3,left,left,0.231
SAM1990WRNO,2020-02-03-12-05-58,7,72,0.5149674572250793,left,both,ambiguous-switch,58,3,left,left,0.236
SAM1990WRNO,2020-02-03-12-05-58,7,73,0.5339843423014499,right,probe,biased-switch,-1,-12,right,right,0.181
SAM1990WRNO,2020-02-03-12-05-58,7,74,0.519465217315136,right,both,biased-switch,65,-12,right,right,0.238
SAM1990WRNO,2020-02-03-12-05-58,7,75,0.5082824059797204,left,probe,ambiguous-switch,-1,-18,left,left,0.192
SAM1990WRNO,2020-02-03-12-05-58,7,76,0.5748346824589002,left,both,ambiguous-switch,61,-18,left,left,0.231
SAM1990WRNO,2020-02-03-12-05-58,7,77,0.6235942653616713,left,probe,biased-switch,-1,12,left,left,0.242
SAM1990WRNO,2020-02-03-12-05-58,7,78,0.509656372283948,left,both,biased-switch,66,12,left,left,0.194
SAM1990WRNO,2020-02-03-12-05-58,7,79,0.6696472994947608,left,probe,biased-switch,-1,18,left,left,0.23
SAM1990WRNO,2020-02-03-12-05-58,7,80,0.5496993648500625,left,both,biased-switch,57,18,left,left,0.231
SAM1990WRNO,2020-02-03-12-05-58,8,1,0.6042350059817339,right,probe,ambiguous-switch,-1,24,right,right,0.258
SAM1990WRNO,2020-02-03-12-05-58,8,2,0.6700406843802902,right,both,ambiguous-switch,60,24,right,right,0.221
SAM1990WRNO,2020-02-03-12-05-58,8,3,0.6468564945295574,right,probe,biased-switch,-1,-18,right,right,0.237
SAM1990WRNO,2020-02-03-12-05-58,8,4,0.5920371231024446,right,both,biased-switch,55,-18,right,right,0.267
SAM1990WRNO,2020-02-03-12-05-58,8,5,0.5711552886261301,right,probe,ambiguous-switch,-1,-6,right,right,0.142
SAM1990WRNO,2020-02-03-12-05-58,8,6,0.5104111200200291,right,both,ambiguous-switch,60,-6,right,right,0.164
SAM1990WRNO,2020-02-03-12-05-58,8,7,0.545759024583128,right,probe,biased-switch,-1,-6,right,right,0.19
SAM1990WRNO,2020-02-03-12-05-58,8,8,0.5641137602817639,right,both,biased-switch,66,-6,right,right,0.237
SAM1990WRNO,2020-02-03-12-05-58,8,9,0.5240031725282615,right,probe,ambiguous-switch,-1,-12,right,right,0.235
SAM1990WRNO,2020-02-03-12-05-58,8,10,0.5744698061378771,right,both,ambiguous-switch,61,-12,right,right,0.244
SAM1990WRNO,2020-02-03-12-05-58,8,11,0.6288909622806791,left,probe,ambiguous-switch,-1,6,left,left,0.208
SAM1990WRNO,2020-02-03-12-05-58,8,12,0.6715091166230727,left,both,ambiguous-switch,59,6,left,left,0.249
SAM1990WRNO,2020-02-03-12-05-58,8,13,0.5321554148044132,left,probe,biased-switch,-1,24,left,left,0.234
SAM1990WRNO,2020-02-03-12-05-58,8,14,0.5084021422776225,left,both,biased-switch,65,24,left,left,0.202
SAM1990WRNO,2020-02-03-12-05-58,8,15,0.6236077853481581,right,probe,ambiguous-switch,-1,12,right,right,0.46
SAM1990WRNO,2020-02-03-12-05-58,8,16,0.6544629074872531,right,both,ambiguous-switch,58,12,right,right,0.251
SAM1990WRNO,2020-02-03-12-05-58,8,17,0.614393030286727,left,probe,biased-switch,-1,-12,left,left,0.226
SAM1990WRNO,2020-02-03-12-05-58,8,18,0.5824963224677385,left,both,biased-switch,58,-12,left,left,0.262
SAM1990WRNO,2020-02-03-12-05-58,8,19,0.5847535509878926,right,probe,ambiguous-switch,-1,3,right,right,0.275
SAM1990WRNO,2020-02-03-12-05-58,8,20,0.6282067648258647,right,both,ambiguous-switch,64,3,right,right,0.226
SAM1990WRNO,2020-02-03-12-05-58,8,21,0.5690782522043809,right,probe,biased-switch,-1,6,right,right,0.218
SAM1990WRNO,2020-02-03-12-05-58,8,22,0.6936850416265476,right,both,biased-switch,60,6,right,right,0.19
SAM1990WRNO,2020-02-03-12-05-58,8,23,0.5543983198375007,left,probe,biased-switch,-1,0,left,left,0.294
SAM1990WRNO,2020-02-03-12-05-58,8,24,0.5118332026071889,left,both,biased-switch,63,0,left,left,0.231
SAM1990WRNO,2020-02-03-12-05-58,8,25,0.6613432762568396,right,probe,biased-switch,-1,3,right,right,0.202
SAM1990WRNO,2020-02-03-12-05-58,8,26,0.5101524431998448,right,both,biased-switch,55,3,right,right,0.232
SAM1990WRNO,2020-02-03-12-05-58,8,27,0.5749158774504312,left,probe,biased-switch,-1,-3,left,left,0.229
SAM1990WRNO,2020-02-03-12-05-58,8,28,0.5399180455595303,left,both,biased-switch,58,-3,left,left,0.185
SAM1990WRNO,2020-02-03-12-05-58,8,29,0.5652571645291851,left,probe,ambiguous-switch,-1,-18,left,left,0.213
SAM1990WRNO,2020-02-03-12-05-58,8,30,0.5627103879000479,left,both,ambiguous-switch,62,-18,left,left,0.245
SAM1990WRNO,2020-02-03-12-05-58,8,31,0.6306449476659474,left,probe,biased-switch,-1,18,left,left,0.262
SAM1990WRNO,2020-02-03-12-05-58,8,32,0.5183454921314011,left,both,biased-switch,59,18,left,left,0.209
SAM1990WRNO,2020-02-03-12-05-58,8,33,0.6612751022021546,right,probe,biased-switch,-1,12,right,right,0.562
SAM1990WRNO,2020-02-03-12-05-58,8,34,0.6411019034521418,right,both,biased-switch,66,12,right,right,0.183
SAM1990WRNO,2020-02-03-12-05-58,8,35,0.5906247028048387,left,probe,ambiguous-switch,-1,-3,left,left,0.581
SAM1990WRNO,2020-02-03-12-05-58,8,36,0.5514368965706935,left,both,ambiguous-switch,64,-3,left,left,0.325
SAM1990WRNO,2020-02-03-12-05-58,8,37,0.6154868680116318,right,probe,ambiguous-switch,-1,0,right,right,0.49
SAM1990WRNO,2020-02-03-12-05-58,8,38,0.6455898328186154,right,both,ambiguous-switch,62,0,right,right,0.252
SAM1990WRNO,2020-02-03-12-05-58,8,39,0.5643138550603762,right,probe,ambiguous-switch,-1,18,right,right,0.223
SAM1990WRNO,2020-02-03-12-05-58,8,40,0.5050395846734314,right,both,ambiguous-switch,65,18,right,right,0.168
SAM1990WRNO,2020-02-03-12-05-58,8,41,0.6033656894494083,left,probe,ambiguous-switch,-1,24,left,left,0.257
SAM1990WRNO,2020-02-03-12-05-58,8,42,0.5173221714696612,left,both,ambiguous-switch,56,24,left,left,0.238
SAM1990WRNO,2020-02-03-12-05-58,8,43,0.5815842108915675,right,probe,biased-switch,-1,-18,right,right,0.218
SAM1990WRNO,2020-02-03-12-05-58,8,44,0.6789181167801238,right,both,biased-switch,64,-18,right,right,0.222
SAM1990WRNO,2020-02-03-12-05-58,8,45,0.5307343520194916,left,probe,ambiguous-switch,-1,-6,left,left,0.237
SAM1990WRNO,2020-02-03-12-05-58,8,46,0.5667908987502516,left,both,ambiguous-switch,62,-6,left,left,0.234
SAM1990WRNO,2020-02-03-12-05-58,8,47,0.6358326523368049,left,probe,biased-switch,-1,-6,left,left,0.222
SAM1990WRNO,2020-02-03-12-05-58,8,48,0.6646106317843106,left,both,biased-switch,55,-6,left,left,0.237
SAM1990WRNO,2020-02-03-12-05-58,8,49,0.5395641701200535,left,probe,ambiguous-switch,-1,-12,left,left,0.273
SAM1990WRNO,2020-02-03-12-05-58,8,50,0.6540233509027472,left,both,ambiguous-switch,64,-12,left,left,0.211
SAM1990WRNO,2020-02-03-12-05-58,8,51,0.6395247307639382,right,probe,ambiguous-switch,-1,6,right,right,0.167
SAM1990WRNO,2020-02-03-12-05-58,8,52,0.6815369688674138,right,both,ambiguous-switch,63,6,right,right,0.244
SAM1990WRNO,2020-02-03-12-05-58,8,53,0.5183602846056906,right,probe,biased-switch,-1,24,right,right,0.28
SAM1990WRNO,2020-02-03-12-05-58,8,54,0.5168280606573117,right,both,biased-switch,61,24,right,right,0.226
SAM1990WRNO,2020-02-03-12-05-58,8,55,0.6157418713428155,right,probe,ambiguous-switch,-1,12,right,right,0.162
SAM1990WRNO,2020-02-03-12-05-58,8,56,0.5190916379860169,right,both,ambiguous-switch,63,12,right,right,0.234
SAM1990WRNO,2020-02-03-12-05-58,8,57,0.6704412767159498,right,probe,biased-switch,-1,-12,right,right,0.238
SAM1990WRNO,2020-02-03-12-05-58,8,58,0.6722467202668669,right,both,biased-switch,58,-12,right,right,0.05
SAM1990WRNO,2020-02-03-12-05-58,8,59,0.5631708293612194,right,probe,ambiguous-switch,-1,3,right,right,0.212
SAM1990WRNO,2020-02-03-12-05-58,8,60,0.5722425340199955,right,both,ambiguous-switch,56,3,right,right,0.235
SAM1990WRNO,2020-02-03-12-05-58,8,61,0.6683134831204208,right,probe,biased-switch,-1,6,right,right,0.267
SAM1990WRNO,2020-02-03-12-05-58,8,62,0.6224689757400707,right,both,biased-switch,63,6,right,right,0.24
SAM1990WRNO,2020-02-03-12-05-58,8,63,0.6364288183631056,right,probe,biased-switch,-1,0,right,right,0.263
SAM1990WRNO,2020-02-03-12-05-58,8,64,0.6863719075293986,right,both,biased-switch,61,0,right,right,0.251
SAM1990WRNO,2020-02-03-12-05-58,8,65,0.5521240487296647,right,probe,biased-switch,-1,3,right,right,0.215
SAM1990WRNO,2020-02-03-12-05-58,8,66,0.6415259064526603,right,both,biased-switch,61,3,right,right,0.279
SAM1990WRNO,2020-02-03-12-05-58,8,67,0.5728122756510242,left,probe,biased-switch,-1,-3,left,left,0.242
SAM1990WRNO,2020-02-03-12-05-58,8,68,0.6104409761760734,left,both,biased-switch,59,-3,left,left,0.24
SAM1990WRNO,2020-02-03-12-05-58,8,69,0.5652650588602683,left,probe,ambiguous-switch,-1,-18,left,left,0.389
SAM1990WRNO,2020-02-03-12-05-58,8,70,0.5541879974913051,left,both,ambiguous-switch,58,-18,left,left,0.23
SAM1990WRNO,2020-02-03-12-05-58,8,71,0.5563251937895699,left,probe,biased-switch,-1,18,left,left,0.19
SAM1990WRNO,2020-02-03-12-05-58,8,72,0.5613353920532221,left,both,biased-switch,59,18,left,left,0.274
SAM1990WRNO,2020-02-03-12-05-58,8,73,0.6452324727143695,left,probe,biased-switch,-1,12,left,left,0.28
SAM1990WRNO,2020-02-03-12-05-58,8,74,0.6991993639382513,left,both,biased-switch,64,12,left,left,0.219
SAM1990WRNO,2020-02-03-12-05-58,8,75,0.6882677430410525,left,probe,ambiguous-switch,-1,-3,left,left,0.296
SAM1990WRNO,2020-02-03-12-05-58,8,76,0.6865806237869374,left,both,ambiguous-switch,63,-3,left,left,0.92
SAM1990WRNO,2020-02-03-12-05-58,8,77,0.5223136285468831,left,probe,ambiguous-switch,-1,0,left,left,0.221
SAM1990WRNO,2020-02-03-12-05-58,8,78,0.6298546539599384,left,both,ambiguous-switch,62,0,left,left,0.248
SAM1990WRNO,2020-02-03-12-05-58,8,79,0.6858163742229567,left,probe,ambiguous-switch,-1,18,left,left,0.225
SAM1990WRNO,2020-02-03-12-05-58,8,80,0.6406282301367168,left,both,ambiguous-switch,59,18,left,left,0.4
SAM1990WRNO,2020-02-03-12-05-58,9,1,0.6465537618534901,right,probe,ambiguous-switch,-1,-12,right,right,0.244
SAM1990WRNO,2020-02-03-12-05-58,9,2,0.5679818668143657,right,both,ambiguous-switch,64,-12,right,right,0.242
SAM1990WRNO,2020-02-03-12-05-58,9,3,0.6117536312232195,left,probe,biased-switch,-1,24,left,left,0.111
SAM1990WRNO,2020-02-03-12-05-58,9,4,0.6310745057069951,left,both,biased-switch,56,24,left,left,0.205
SAM1990WRNO,2020-02-03-12-05-58,9,5,0.513475939969954,right,probe,ambiguous-switch,-1,0,right,right,0.226
SAM1990WRNO,2020-02-03-12-05-58,9,6,0.5428545009992213,right,both,ambiguous-switch,61,0,right,right,0.204
SAM1990WRNO,2020-02-03-12-05-58,9,7,0.5870587999853055,right,probe,ambiguous-switch,-1,3,right,right,0.238
SAM1990WRNO,2020-02-03-12-05-58,9,8,0.6943734018849239,right,both,ambiguous-switch,63,3,right,right,0.26
SAM1990WRNO,2020-02-03-12-05-58,9,9,0.602768279783065,right,probe,ambiguous-switch,-1,6,right,right,0.249
SAM1990WRNO,2020-02-03-12-05-58,9,10,0.6208008252879818,right,both,ambiguous-switch,61,6,right,right,0.252
SAM1990WRNO,2020-02-03-12-05-58,9,11,0.6175670970599962,left,probe,ambiguous-switch,-1,12,left,left,0.253
SAM1990WRNO,2020-02-03-12-05-58,9,12,0.5425998951168578,left,both,ambiguous-switch,56,12,left,left,0.19
SAM1990WRNO,2020-02-03-12-05-58,9,13,0.6804380840522374,left,probe,ambiguous-switch,-1,-3,left,left,0.219
SAM1990WRNO,2020-02-03-12-05-58,9,14,0.6045214274922613,left,both,ambiguous-switch,62,-3,left,left,0.21
SAM1990WRNO,2020-02-03-12-05-58,9,15,0.5181791430205358,right,probe,biased-switch,-1,-3,right,right,0.258
SAM1990WRNO,2020-02-03-12-05-58,9,16,0.6863582120731182,right,both,biased-switch,65,-3,right,right,0.208
SAM1990WRNO,2020-02-03-12-05-58,9,17,0.5758538301296768,left,probe,biased-switch,-1,-6,left,left,0.182
SAM1990WRNO,2020-02-03-12-05-58,9,18,0.6970829838870729,left,both,biased-switch,65,-6,left,left,0.219
SAM1990WRNO,2020-02-03-12-05-58,9,19,0.5956523265310932,left,probe,biased-switch,-1,12,left,left,0.243
SAM1990WRNO,2020-02-03-12-05-58,9,20,0.5825970168432117,left,both,biased-switch,56,12,left,left,0.233
SAM1990WRNO,2020-02-03-12-05-58,9,21,0.5533938936318907,left,probe,biased-switch,-1,0,left,left,0.206
SAM1990WRNO,2020-02-03-12-05-58,9,22,0.5440672965033732,left,both,biased-switch,58,0,left,left,0.208
SAM1990WRNO,2020-02-03-12-05-58,9,23,0.6569944561675638,right,probe,biased-switch,-1,6,right,right,0.233
SAM1990WRNO,2020-02-03-12-05-58,9,24,0.6793077025074243,right,both,biased-switch,59,6,right,right,0.191
SAM1990WRNO,2020-02-03-12-05-58,9,25,0.562765803309017,right,probe,biased-switch,-1,18,right,right,0.23
SAM1990WRNO,2020-02-03-12-05-58,9,26,0.6460508125230924,right,both,biased-switch,57,18,right,right,0.3
SAM1990WRNO,2020-02-03-12-05-58,9,27,0.6024683898102127,left,probe,ambiguous-switch,-1,-18,left,left,0.256
SAM1990WRNO,2020-02-03-12-05-58,9,28,0.6467238274532905,left,both,ambiguous-switch,62,-18,left,left,0.232
SAM1990WRNO,2020-02-03-12-05-58,9,29,0.6985560208930535,left,probe,biased-switch,-1,-12,left,left,0.21
SAM1990WRNO,2020-02-03-12-05-58,9,30,0.551942120702992,left,both,biased-switch,61,-12,left,left,0.281
SAM1990WRNO,2020-02-03-12-05-58,9,31,0.6190543960321042,left,probe,biased-switch,-1,-18,left,left,0.22
SAM1990WRNO,2020-02-03-12-05-58,9,32,0.5977616270818221,left,both,biased-switch,61,-18,left,left,0.248
SAM1990WRNO,2020-02-03-12-05-58,9,33,0.6414840307185662,left,probe,ambiguous-switch,-1,18,left,left,0.31
SAM1990WRNO,2020-02-03-12-05-58,9,34,0.6022048269565412,left,both,ambiguous-switch,61,18,left,left,0.211
SAM1990WRNO,2020-02-03-12-05-58,9,35,0.6902677376183737,left,probe,biased-switch,-1,3,left,left,0.234
SAM1990WRNO,2020-02-03-12-05-58,9,36,0.5469926615421433,left,both,biased-switch,63,3,left,left,0.342
SAM1990WRNO,2020-02-03-12-05-58,9,37,0.6856867311563712,left,probe,ambiguous-switch,-1,-6,left,left,0.071
SAM1990WRNO,2020-02-03-12-05-58,9,38,0.6744100158586807,left,both,ambiguous-switch,61,-6,left,left,0.295
SAM1990WRNO,2020-02-03-12-05-58,9,39,0.6439696882432802,left,probe,ambiguous-switch,-1,24,left,left,0.277
SAM1990WRNO,2020-02-03-12-05-58,9,40,0.6206822393818241,left,both,ambiguous-switch,60,24,left,left,0.418
SAM1990WRNO,2020-02-03-12-05-58,9,41,0.6379836168837891,left,probe,ambiguous-switch,-1,-12,left,left,0.224
SAM1990WRNO,2020-02-03-12-05-58,9,42,0.5574178031154244,left,both,ambiguous-switch,55,-12,left,left,0.116
SAM1990WRNO,2020-02-03-12-05-58,9,43,0.671624273199174,left,probe,biased-switch,-1,24,left,left,0.214
SAM1990WRNO,2020-02-03-12-05-58,9,44,0.6336346385047597,left,both,biased-switch,58,24,left,left,0.491
SAM1990WRNO,2020-02-03-12-05-58,9,45,0.6155155620567251,right,probe,ambiguous-switch,-1,0,right,right,0.239
SAM1990WRNO,2020-02-03-12-05-58,9,46,0.5664630519883347,right,both,ambiguous-switch,62,0,right,right,0.175
SAM1990WRNO,2020-02-03-12-05-58,9,47,0.6277104136295808,left,probe,ambiguous-switch,-1,3,left,left,0.22
SAM1990WRNO,2020-02-03-12-05-58,9,48,0.6946222795017045,left,both,ambiguous-switch,54,3,left,left,0.239
SAM1990WRNO,2020-02-03-12-05-58,9,49,0.6748371362900627,right,probe,ambiguous-switch,-1,6,right,right,0.272
SAM1990WRNO,2020-02-03-12-05-58,9,50,0.6730411285334891,right,both,ambiguous-switch,62,6,right,right,0.032
SAM1990WRNO,2020-02-03-12-05-58,9,51,0.5595322549619501,right,probe,ambiguous-switch,-1,12,right,right,0.319
SAM1990WRNO,2020-02-03-12-05-58,9,52,0.5309272623286334,right,both,ambiguous-switch,63,12,right,right,0.215
SAM1990WRNO,2020-02-03-12-05-58,9,53,0.6764852764796997,left,probe,ambiguous-switch,-1,-3,left,left,0.231
SAM1990WRNO,2020-02-03-12-05-58,9,54,0.5044892269816192,left,both,ambiguous-switch,55,-3,left,left,0.215
SAM1990WRNO,2020-02-03-12-05-58,9,55,0.6674613750236068,left,probe,biased-switch,-1,-3,left,left,0.306
SAM1990WRNO,2020-02-03-12-05-58,9,56,0.5681958577299293,left,both,biased-switch,64,-3,left,left,0.257
SAM1990WRNO,2020-02-03-12-05-58,9,57,0.6082759501417864,left,probe,biased-switch,-1,-6,left,left,0.232
SAM1990WRNO,2020-02-03-12-05-58,9,58,0.5157496432295855,left,both,biased-switch,61,-6,left,left,0.248
SAM1990WRNO,2020-02-03-12-05-58,9,59,0.5561415182259154,left,probe,biased-switch,-1,12,left,left,0.254
SAM1990WRNO,2020-02-03-12-05-58,9,60,0.6882863097017805,left,both,biased-switch,59,12,left,left,0.146
SAM1990WRNO,2020-02-03-12-05-58,9,61,0.5416053575504067,left,probe,biased-switch,-1,0,left,left,0.269
SAM1990WRNO,2020-02-03-12-05-58,9,62,0.5948802787134044,left,both,biased-switch,64,0,left,left,0.2
SAM1990WRNO,2020-02-03-12-05-58,9,63,0.6077387992642725,left,probe,biased-switch,-1,6,left,left,0.212
SAM1990WRNO,2020-02-03-12-05-58,9,64,0.5937562378168079,left,both,biased-switch,65,6,left,left,0.218
SAM1990WRNO,2020-02-03-12-05-58,9,65,0.6435405084699845,left,probe,biased-switch,-1,18,left,left,0.228
SAM1990WRNO,2020-02-03-12-05-58,9,66,0.6193309517584832,left,both,biased-switch,64,18,left,left,0.218
SAM1990WRNO,2020-02-03-12-05-58,9,67,0.6794732416211805,right,probe,ambiguous-switch,-1,-18,right,right,0.25
SAM1990WRNO,2020-02-03-12-05-58,9,68,0.6412809676456583,right,both,ambiguous-switch,64,-18,right,right,0.219
SAM1990WRNO,2020-02-03-12-05-58,9,69,0.5426883743272424,left,probe,biased-switch,-1,-12,left,left,0.231
SAM1990WRNO,2020-02-03-12-05-58,9,70,0.5388060357132334,left,both,biased-switch,59,-12,left,left,0.249
SAM1990WRNO,2020-02-03-12-05-58,9,71,0.627576236269787,left,probe,biased-switch,-1,-18,left,left,0.231
SAM1990WRNO,2020-02-03-12-05-58,9,72,0.5775744345629338,left,both,biased-switch,66,-18,left,left,0.511
SAM1990WRNO,2020-02-03-12-05-58,9,73,0.6537232982100816,left,probe,ambiguous-switch,-1,18,left,left,0.271
SAM1990WRNO,2020-02-03-12-05-58,9,74,0.5044378180042296,left,both,ambiguous-switch,62,18,left,left,0.318
SAM1990WRNO,2020-02-03-12-05-58,9,75,0.5440034366193816,left,probe,biased-switch,-1,3,left,left,0.386
SAM1990WRNO,2020-02-03-12-05-58,9,76,0.6258767074980802,left,both,biased-switch,54,3,left,left,0.193
SAM1990WRNO,2020-02-03-12-05-58,9,77,0.5680861178767004,right,probe,ambiguous-switch,-1,-6,right,right,0.251
SAM1990WRNO,2020-02-03-12-05-58,9,78,0.6721291345538714,right,both,ambiguous-switch,63,-6,right,right,0.268
SAM1990WRNO,2020-02-03-12-05-58,9,79,0.6652843827957012,left,probe,ambiguous-switch,-1,24,left,left,0.151
SAM1990WRNO,2020-02-03-12-05-58,9,80,0.6615782558475856,left,both,ambiguous-switch,58,24,left,left,0.268
SAM1990WRNO,2020-02-03-12-05-58,10,1,0.5333696393915293,left,probe,ambiguous-switch,-1,-6,left,left,0.233
SAM1990WRNO,2020-02-03-12-05-58,10,2,0.5398148276733916,left,both,ambiguous-switch,61,-6,left,left,0.236
SAM1990WRNO,2020-02-03-12-05-58,10,3,0.6655528927295531,right,probe,ambiguous-switch,-1,-18,right,right,0.359
SAM1990WRNO,2020-02-03-12-05-58,10,4,0.657217671984603,right,both,ambiguous-switch,60,-18,right,right,0.262
SAM1990WRNO,2020-02-03-12-05-58,10,5,0.5093673444066744,left,probe,ambiguous-switch,-1,3,left,left,0.189
SAM1990WRNO,2020-02-03-12-05-58,10,6,0.6132684670552795,left,both,ambiguous-switch,59,3,left,left,0.111
SAM1990WRNO,2020-02-03-12-05-58,10,7,0.53376107622773,left,probe,biased-switch,-1,12,left,left,0.349
SAM1990WRNO,2020-02-03-12-05-58,10,8,0.5767393830062298,left,both,biased-switch,55,12,left,left,0.233
SAM1990WRNO,2020-02-03-12-05-58,10,9,0.5824532045319654,left,probe,ambiguous-switch,-1,24,left,left,0.481
SAM1990WRNO,2020-02-03-12-05-58,10,10,0.5866921906669164,left,both,ambiguous-switch,61,24,left,left,0.271
SAM1990WRNO,2020-02-03-12-05-58,10,11,0.6311920373088711,right,probe,biased-switch,-1,18,right,right,0.2
SAM1990WRNO,2020-02-03-12-05-58,10,12,0.6359297812884667,right,both,biased-switch,56,18,right,right,0.213
SAM1990WRNO,2020-02-03-12-05-58,10,13,0.6529015061166004,right,probe,biased-switch,-1,3,right,right,0.243
SAM1990WRNO,2020-02-03-12-05-58,10,14,0.511999111529971,right,both,biased-switch,61,3,right,right,0.472
SAM1990WRNO,2020-02-03-12-05-58,10,15,0.6216372722009863,right,probe,biased-switch,-1,0,right,right,0.638
SAM1990WRNO,2020-02-03-12-05-58,10,16,0.6355832261320116,right,both,biased-switch,55,0,right,right,0.19
SAM1990WRNO,2020-02-03-12-05-58,10,17,0.6019714183484597,right,probe,ambiguous-switch,-1,12,right,right,0.244
SAM1990WRNO,2020-02-03-12-05-58,10,18,0.636108776487968,right,both,ambiguous-switch,60,12,right,right,0.104
SAM1990WRNO,2020-02-03-12-05-58,10,19,0.6609060685532793,right,probe,biased-switch,-1,-3,right,right,1.388
SAM1990WRNO,2020-02-03-12-05-58,10,20,0.555226103888691,right,both,biased-switch,59,-3,right,right,0.244
SAM1990WRNO,2020-02-03-12-05-58,10,21,0.6518101797031606,left,probe,biased-switch,-1,6,left,left,0.188
SAM1990WRNO,2020-02-03-12-05-58,10,22,0.6202989953798503,left,both,biased-switch,63,6,left,left,0.209
SAM1990WRNO,2020-02-03-12-05-58,10,23,0.6112145940475103,left,probe,biased-switch,-1,-18,left,left,0.228
SAM1990WRNO,2020-02-03-12-05-58,10,24,0.6556042035986092,left,both,biased-switch,60,-18,left,left,0.292
SAM1990WRNO,2020-02-03-12-05-58,10,25,0.5717450711907528,left,probe,ambiguous-switch,-1,-3,left,left,0.233
SAM1990WRNO,2020-02-03-12-05-58,10,26,0.5366818487439086,left,both,ambiguous-switch,64,-3,left,left,0.223
SAM1990WRNO,2020-02-03-12-05-58,10,27,0.5337415020532789,left,probe,ambiguous-switch,-1,-12,left,left,0.718
SAM1990WRNO,2020-02-03-12-05-58,10,28,0.6076604007982847,left,both,ambiguous-switch,62,-12,left,left,0.236
SAM1990WRNO,2020-02-03-12-05-58,10,29,0.6999879667850564,left,probe,biased-switch,-1,-12,left,left,0.263
SAM1990WRNO,2020-02-03-12-05-58,10,30,0.5088006254392581,left,both,biased-switch,64,-12,left,left,0.222
SAM1990WRNO,2020-02-03-12-05-58,10,31,0.6444802610112808,right,probe,ambiguous-switch,-1,0,right,right,0.215
SAM1990WRNO,2020-02-03-12-05-58,10,32,0.6001657621150699,right,both,ambiguous-switch,65,0,right,right,0.263
SAM1990WRNO,2020-02-03-12-05-58,10,33,0.6516564568148913,left,probe,biased-switch,-1,-6,left,left,0.312
SAM1990WRNO,2020-02-03-12-05-58,10,34,0.6185970670956125,left,both,biased-switch,62,-6,left,left,0.267
SAM1990WRNO,2020-02-03-12-05-58,10,35,0.6598190567348603,right,probe,ambiguous-switch,-1,6,right,right,0.227
SAM1990WRNO,2020-02-03-12-05-58,10,36,0.5937536743163679,right,both,ambiguous-switch,64,6,right,right,0.224
SAM1990WRNO,2020-02-03-12-05-58,10,37,0.514265468907743,right,probe,ambiguous-switch,-1,18,right,right,0.265
SAM1990WRNO,2020-02-03-12-05-58,10,38,0.5689580986275042,right,both,ambiguous-switch,58,18,right,right,0.253
SAM1990WRNO,2020-02-03-12-05-58,10,39,0.5700459284002775,right,probe,biased-switch,-1,24,right,right,0.285
SAM1990WRNO,2020-02-03-12-05-58,10,40,0.5764589968375328,right,both,biased-switch,61,24,right,right,0.052
SAM1990WRNO,2020-02-03-12-05-58,10,41,0.5706011751555538,right,probe,ambiguous-switch,-1,-6,right,right,0.254
SAM1990WRNO,2020-02-03-12-05-58,10,42,0.6454881062450195,right,both,ambiguous-switch,65,-6,right,right,0.277
SAM1990WRNO,2020-02-03-12-05-58,10,43,0.6761898802060643,left,probe,ambiguous-switch,-1,-18,left,left,0.234
SAM1990WRNO,2020-02-03-12-05-58,10,44,0.5421043066965842,left,both,ambiguous-switch,65,-18,left,left,0.274
SAM1990WRNO,2020-02-03-12-05-58,10,45,0.6841112695913782,right,probe,ambiguous-switch,-1,3,right,right,0.244
SAM1990WRNO,2020-02-03-12-05-58,10,46,0.6630254914561745,right,both,ambiguous-switch,57,3,right,right,0.248
SAM1990WRNO,2020-02-03-12-05-58,10,47,0.5994505710222598,right,probe,biased-switch,-1,12,right,right,0.33
SAM1990WRNO,2020-02-03-12-05-58,10,48,0.5724159414785754,right,both,biased-switch,61,12,right,right,0.385
SAM1990WRNO,2020-02-03-12-05-58,10,49,0.6008439049347526,right,probe,ambiguous-switch,-1,24,right,right,0.345
SAM1990WRNO,2020-02-03-12-05-58,10,50,0.5679860029203971,right,both,ambiguous-switch,55,24,right,right,0.3
SAM1990WRNO,2020-02-03-12-05-58,10,51,0.5283905505716742,left,probe,biased-switch,-1,18,left,left,0.2
SAM1990WRNO,2020-02-03-12-05-58,10,52,0.5113899276245434,left,both,biased-switch,64,18,left,left,0.205
SAM1990WRNO,2020-02-03-12-05-58,10,53,0.5616631681799802,right,probe,biased-switch,-1,3,right,right,0.283
SAM1990WRNO,2020-02-03-12-05-58,10,54,0.6696683915511454,right,both,biased-switch,65,3,right,right,0.278
SAM1990WRNO,2020-02-03-12-05-58,10,55,0.5521165650844472,left,probe,biased-switch,-1,0,left,left,0.264
SAM1990WRNO,2020-02-03-12-05-58,10,56,0.5239754951421562,left,both,biased-switch,63,0,left,left,0.234
SAM1990WRNO,2020-02-03-12-05-58,10,57,0.6494597002628859,left,probe,ambiguous-switch,-1,12,left,left,0.232
SAM1990WRNO,2020-02-03-12-05-58,10,58,0.55428114497422,left,both,ambiguous-switch,59,12,left,left,0.243
SAM1990WRNO,2020-02-03-12-05-58,10,59,0.5372065805647936,right,probe,biased-switch,-1,-3,right,right,0.327
SAM1990WRNO,2020-02-03-12-05-58,10,60,0.5604549859955594,right,both,biased-switch,55,-3,right,right,0.227
SAM1990WRNO,2020-02-03-12-05-58,10,61,0.6635965382259785,right,probe,biased-switch,-1,6,right,right,0.374
SAM1990WRNO,2020-02-03-12-05-58,10,62,0.6007182151037631,right,both,biased-switch,63,6,right,right,0.308
SAM1990WRNO,2020-02-03-12-05-58,10,63,0.6616218517181507,right,probe,biased-switch,-1,-18,right,right,0.355
SAM1990WRNO,2020-02-03-12-05-58,10,64,0.6389989802432836,right,both,biased-switch,65,-18,right,right,0.227
SAM1990WRNO,2020-02-03-12-05-58,10,65,0.6049456761673454,right,probe,ambiguous-switch,-1,-3,right,right,0.244
SAM1990WRNO,2020-02-03-12-05-58,10,66,0.6049424568340857,right,both,ambiguous-switch,63,-3,right,right,0.267
SAM1990WRNO,2020-02-03-12-05-58,10,67,0.5422174230515029,left,probe,ambiguous-switch,-1,-12,left,left,0.301
SAM1990WRNO,2020-02-03-12-05-58,10,68,0.513125074983408,left,both,ambiguous-switch,59,-12,left,left,0.236
SAM1990WRNO,2020-02-03-12-05-58,10,69,0.6266640001654837,right,probe,biased-switch,-1,-12,right,right,0.278
SAM1990WRNO,2020-02-03-12-05-58,10,70,0.5861438306387332,right,both,biased-switch,60,-12,right,right,0.249
SAM1990WRNO,2020-02-03-12-05-58,10,71,0.5581348096901466,right,probe,ambiguous-switch,-1,0,right,right,0.285
SAM1990WRNO,2020-02-03-12-05-58,10,72,0.5013219933938323,right,both,ambiguous-switch,54,0,right,right,0.351
SAM1990WRNO,2020-02-03-12-05-58,10,73,0.656194592521818,left,probe,biased-switch,-1,-6,left,left,0.213
SAM1990WRNO,2020-02-03-12-05-58,10,74,0.5043869170232799,left,both,biased-switch,60,-6,left,left,0.257
SAM1990WRNO,2020-02-03-12-05-58,10,75,0.5694847213099911,left,probe,ambiguous-switch,-1,6,left,left,0.262
SAM1990WRNO,2020-02-03-12-05-58,10,76,0.6919927842508355,left,both,ambiguous-switch,55,6,left,left,0.246
SAM1990WRNO,2020-02-03-12-05-58,10,77,0.5054300445839772,left,probe,ambiguous-switch,-1,18,left,left,0.235
SAM1990WRNO,2020-02-03-12-05-58,10,78,0.6382586034061337,left,both,ambiguous-switch,57,18,left,left,0.23
SAM1990WRNO,2020-02-03-12-05-58,10,79,0.6923245812179123,left,probe,biased-switch,-1,24,left,left,0.305
SAM1990WRNO,2020-02-03-12-05-58,10,80,0.6265559358290891,left,both,biased-switch,59,24,left,left,0.231
