Participant,Session,Block,Trial,OnsetDelay,ProbeLocation,WhatIsReported,Condition,TriggerTime,ProbeSOA,PrimeDirection,Response,RT
DEK2001WRNO,2020-02-03-13-00-23,1,1,0.5014341718457488,right,probe,ambiguous-switch,-1,-18,left,left,0.417
DEK2001WRNO,2020-02-03-13-00-23,1,2,0.539608740160484,right,both,ambiguous-switch,56,-18,left,left,0.234
DEK2001WRNO,2020-02-03-13-00-23,1,3,0.6646589619308185,right,probe,biased-switch,-1,-12,left,left,0.235
DEK2001WRNO,2020-02-03-13-00-23,1,4,0.5047148696180744,right,both,biased-switch,59,-12,left,left,0.289
DEK2001WRNO,2020-02-03-13-00-23,1,5,0.5572109037646601,left,probe,ambiguous-switch,-1,-3,left,left,0.193
DEK2001WRNO,2020-02-03-13-00-23,1,6,0.5611664296368544,left,both,ambiguous-switch,57,-3,left,left,0.213
DEK2001WRNO,2020-02-03-13-00-23,1,7,0.6115676732318256,left,probe,biased-switch,-1,-18,left,left,0.205
DEK2001WRNO,2020-02-03-13-00-23,1,8,0.6774435996200446,left,both,biased-switch,58,-18,left,left,0.258
DEK2001WRNO,2020-02-03-13-00-23,1,9,0.6651650945678679,right,probe,ambiguous-switch,-1,0,left,left,0.203
DEK2001WRNO,2020-02-03-13-00-23,1,10,0.6879152502303164,right,both,ambiguous-switch,61,0,left,left,0.19
DEK2001WRNO,2020-02-03-13-00-23,1,11,0.5980117179873176,right,probe,ambiguous-switch,-1,-6,left,left,0.174
DEK2001WRNO,2020-02-03-13-00-23,1,12,0.506155736933763,right,both,ambiguous-switch,57,-6,left,left,0.145
DEK2001WRNO,2020-02-03-13-00-23,1,13,0.6307351910148,left,probe,biased-switch,-1,0,left,left,0.225
DEK2001WRNO,2020-02-03-13-00-23,1,14,0.5331176276430977,left,both,biased-switch,59,0,left,left,0.167
DEK2001WRNO,2020-02-03-13-00-23,1,15,0.6085003245270627,left,probe,biased-switch,-1,-6,left,left,0.097
DEK2001WRNO,2020-02-03-13-00-23,1,16,0.686035314121112,left,both,biased-switch,65,-6,left,left,0.235
DEK2001WRNO,2020-02-03-13-00-23,1,17,0.5002572096916311,left,probe,biased-switch,-1,3,left,left,0.22
DEK2001WRNO,2020-02-03-13-00-23,1,18,0.6645310215457007,left,both,biased-switch,66,3,left,left,0.297
DEK2001WRNO,2020-02-03-13-00-23,1,19,0.5103509711281806,right,probe,biased-switch,-1,6,left,left,0.154
DEK2001WRNO,2020-02-03-13-00-23,1,20,0.6251756215894683,right,both,biased-switch,57,6,left,right,0.213
DEK2001WRNO,2020-02-03-13-00-23,1,21,0.6276442598052281,right,probe,ambiguous-switch,-1,6,left,left,0.201
DEK2001WRNO,2020-02-03-13-00-23,1,22,0.5824611996037626,right,both,ambiguous-switch,59,6,left,right,0.184
DEK2001WRNO,2020-02-03-13-00-23,1,23,0.5158796038643391,left,probe,ambiguous-switch,-1,24,left,left,0.224
DEK2001WRNO,2020-02-03-13-00-23,1,24,0.528481738255892,left,both,ambiguous-switch,66,24,left,left,0.215
DEK2001WRNO,2020-02-03-13-00-23,1,25,0.6716729680434192,left,probe,ambiguous-switch,-1,12,left,left,0.247
DEK2001WRNO,2020-02-03-13-00-23,1,26,0.6433890048625879,left,both,ambiguous-switch,64,12,left,left,0.222
DEK2001WRNO,2020-02-03-13-00-23,1,27,0.5001397690723957,left,probe,biased-switch,-1,12,left,left,0.23
DEK2001WRNO,2020-02-03-13-00-23,1,28,0.5859047190631423,left,both,biased-switch,56,12,left,right,0.22
DEK2001WRNO,2020-02-03-13-00-23,1,29,0.5998064965105309,left,probe,biased-switch,-1,-3,left,left,0.24
DEK2001WRNO,2020-02-03-13-00-23,1,30,0.6435019933352057,left,both,biased-switch,60,-3,left,left,0.196
DEK2001WRNO,2020-02-03-13-00-23,1,31,0.5412539792674009,left,probe,ambiguous-switch,-1,-12,left,left,0.28
DEK2001WRNO,2020-02-03-13-00-23,1,32,0.6377344244292029,left,both,ambiguous-switch,57,-12,left,left,0.27
DEK2001WRNO,2020-02-03-13-00-23,1,33,0.6130652320263719,left,probe,ambiguous-switch,-1,3,left,left,0.199
DEK2001WRNO,2020-02-03-13-00-23,1,34,0.6064835661902439,left,both,ambiguous-switch,66,3,left,left,0.217
DEK2001WRNO,2020-02-03-13-00-23,1,35,0.5650406936847259,right,probe,ambiguous-switch,-1,18,left,left,0.217
DEK2001WRNO,2020-02-03-13-00-23,1,36,0.6764093730990084,right,both,ambiguous-switch,60,18,left,left,0.269
DEK2001WRNO,2020-02-03-13-00-23,1,37,0.6352987590133434,left,probe,biased-switch,-1,24,left,left,0.138
DEK2001WRNO,2020-02-03-13-00-23,1,38,0.6899144915815606,left,both,biased-switch,55,24,left,left,0.264
DEK2001WRNO,2020-02-03-13-00-23,1,39,0.5288937312348045,right,probe,biased-switch,-1,18,left,left,0.219
DEK2001WRNO,2020-02-03-13-00-23,1,40,0.6441683852825344,right,both,biased-switch,55,18,left,right,0.218
DEK2001WRNO,2020-02-03-13-00-23,1,41,0.5826119629085784,left,probe,ambiguous-switch,-1,-18,right,right,0.286
DEK2001WRNO,2020-02-03-13-00-23,1,42,0.5055515865664592,left,both,ambiguous-switch,58,-18,right,right,0.249
DEK2001WRNO,2020-02-03-13-00-23,1,43,0.6655360375835263,left,probe,biased-switch,-1,-12,right,right,0.187
DEK2001WRNO,2020-02-03-13-00-23,1,44,0.6868523628083067,left,both,biased-switch,59,-12,right,right,0.198
DEK2001WRNO,2020-02-03-13-00-23,1,45,0.6168309065878044,right,probe,ambiguous-switch,-1,-3,right,right,0.566
DEK2001WRNO,2020-02-03-13-00-23,1,46,0.6592038470244385,right,both,ambiguous-switch,58,-3,right,right,0.214
DEK2001WRNO,2020-02-03-13-00-23,1,47,0.5761903416551196,right,probe,biased-switch,-1,-18,right,right,0.238
DEK2001WRNO,2020-02-03-13-00-23,1,48,0.6266918875429198,right,both,biased-switch,56,-18,right,right,0.394
DEK2001WRNO,2020-02-03-13-00-23,1,49,0.6340853682287014,right,probe,ambiguous-switch,-1,0,right,right,0.356
DEK2001WRNO,2020-02-03-13-00-23,1,50,0.6669628277739031,right,both,ambiguous-switch,56,0,right,right,0.294
DEK2001WRNO,2020-02-03-13-00-23,1,51,0.6594486408453806,left,probe,ambiguous-switch,-1,-6,right,right,0.329
DEK2001WRNO,2020-02-03-13-00-23,1,52,0.6697287954101978,left,both,ambiguous-switch,63,-6,right,left,0.293
DEK2001WRNO,2020-02-03-13-00-23,1,53,0.5081933108140849,right,probe,biased-switch,-1,0,right,right,0.245
DEK2001WRNO,2020-02-03-13-00-23,1,54,0.6244931457863898,right,both,biased-switch,59,0,right,left,0.258
DEK2001WRNO,2020-02-03-13-00-23,1,55,0.5064815286662121,left,probe,biased-switch,-1,-6,right,right,0.246
DEK2001WRNO,2020-02-03-13-00-23,1,56,0.6447975841034138,left,both,biased-switch,60,-6,right,right,0.126
DEK2001WRNO,2020-02-03-13-00-23,1,57,0.6125787950626275,left,probe,biased-switch,-1,3,right,right,0.207
DEK2001WRNO,2020-02-03-13-00-23,1,58,0.6701918322307635,left,both,biased-switch,56,3,right,left,0.218
DEK2001WRNO,2020-02-03-13-00-23,1,59,0.6487166509762782,right,probe,biased-switch,-1,6,right,right,0.236
DEK2001WRNO,2020-02-03-13-00-23,1,60,0.6574510575420482,right,both,biased-switch,65,6,right,left,0.192
DEK2001WRNO,2020-02-03-13-00-23,1,61,0.6516294346863563,left,probe,ambiguous-switch,-1,6,right,right,0.244
DEK2001WRNO,2020-02-03-13-00-23,1,62,0.6850923886250107,left,both,ambiguous-switch,56,6,right,right,0.225
DEK2001WRNO,2020-02-03-13-00-23,1,63,0.5104828070690456,right,probe,ambiguous-switch,-1,24,right,right,0.253
DEK2001WRNO,2020-02-03-13-00-23,1,64,0.6795061678344034,right,both,ambiguous-switch,63,24,right,right,0.209
DEK2001WRNO,2020-02-03-13-00-23,1,65,0.5153055529864042,right,probe,ambiguous-switch,-1,12,right,right,0.201
DEK2001WRNO,2020-02-03-13-00-23,1,66,0.6504608579634181,right,both,ambiguous-switch,61,12,right,left,0.197
DEK2001WRNO,2020-02-03-13-00-23,1,67,0.5055179066918293,left,probe,biased-switch,-1,12,right,right,0.288
DEK2001WRNO,2020-02-03-13-00-23,1,68,0.615095006864749,left,both,biased-switch,63,12,right,right,0.222
DEK2001WRNO,2020-02-03-13-00-23,1,69,0.6727626246090508,left,probe,biased-switch,-1,-3,right,right,0.168
DEK2001WRNO,2020-02-03-13-00-23,1,70,0.6143431006907136,left,both,biased-switch,55,-3,right,left,0.246
DEK2001WRNO,2020-02-03-13-00-23,1,71,0.5096419569880362,left,probe,ambiguous-switch,-1,-12,right,right,0.203
DEK2001WRNO,2020-02-03-13-00-23,1,72,0.5488508431933368,left,both,ambiguous-switch,58,-12,right,right,0.24
DEK2001WRNO,2020-02-03-13-00-23,1,73,0.6665746307585361,right,probe,ambiguous-switch,-1,3,right,right,0.243
DEK2001WRNO,2020-02-03-13-00-23,1,74,0.6880542586079174,right,both,ambiguous-switch,59,3,right,right,0.243
DEK2001WRNO,2020-02-03-13-00-23,1,75,0.6157939062215767,left,probe,ambiguous-switch,-1,18,right,right,0.236
DEK2001WRNO,2020-02-03-13-00-23,1,76,0.6899517411523663,left,both,ambiguous-switch,65,18,right,right,0.22
DEK2001WRNO,2020-02-03-13-00-23,1,77,0.6018324991581556,right,probe,biased-switch,-1,24,right,right,0.246
DEK2001WRNO,2020-02-03-13-00-23,1,78,0.5929853129108548,right,both,biased-switch,58,24,right,right,0.236
DEK2001WRNO,2020-02-03-13-00-23,1,79,0.5704313434987534,left,probe,biased-switch,-1,18,right,right,0.289
DEK2001WRNO,2020-02-03-13-00-23,1,80,0.5743402356241255,left,both,biased-switch,54,18,right,left,0.277
DEK2001WRNO,2020-02-03-13-00-23,2,1,0.5919858204221626,left,probe,ambiguous-switch,-1,-12,right,right,0.286
DEK2001WRNO,2020-02-03-13-00-23,2,2,0.6360856990500369,left,both,ambiguous-switch,65,-12,right,right,0.221
DEK2001WRNO,2020-02-03-13-00-23,2,3,0.6545034999664618,right,probe,biased-switch,-1,24,right,right,0.272
DEK2001WRNO,2020-02-03-13-00-23,2,4,0.677977505954343,right,both,biased-switch,57,24,right,right,0.227
DEK2001WRNO,2020-02-03-13-00-23,2,5,0.5705858225009992,left,probe,biased-switch,-1,-6,right,right,0.241
DEK2001WRNO,2020-02-03-13-00-23,2,6,0.5043879124053945,left,both,biased-switch,55,-6,right,right,0.272
DEK2001WRNO,2020-02-03-13-00-23,2,7,0.6082705690487239,right,probe,biased-switch,-1,-18,right,right,0.256
DEK2001WRNO,2020-02-03-13-00-23,2,8,0.6291444658660537,right,both,biased-switch,65,-18,right,right,0.269
DEK2001WRNO,2020-02-03-13-00-23,2,9,0.6398270840687998,left,probe,ambiguous-switch,-1,12,right,right,0.204
DEK2001WRNO,2020-02-03-13-00-23,2,10,0.5600996362627901,left,both,ambiguous-switch,60,12,right,left,0.256
DEK2001WRNO,2020-02-03-13-00-23,2,11,0.5364124495935282,left,probe,ambiguous-switch,-1,-18,right,right,0.909
DEK2001WRNO,2020-02-03-13-00-23,2,12,0.5511765997116238,left,both,ambiguous-switch,57,-18,right,right,0.351
DEK2001WRNO,2020-02-03-13-00-23,2,13,0.6829702233600943,right,probe,ambiguous-switch,-1,6,right,right,0.352
DEK2001WRNO,2020-02-03-13-00-23,2,14,0.6472525919804184,right,both,ambiguous-switch,55,6,right,left,0.161
DEK2001WRNO,2020-02-03-13-00-23,2,15,0.6584363249176097,right,probe,biased-switch,-1,6,left,left,0.224
DEK2001WRNO,2020-02-03-13-00-23,2,16,0.6576550535617719,right,both,biased-switch,56,6,left,right,0.299
DEK2001WRNO,2020-02-03-13-00-23,2,17,0.5683091893212444,right,probe,ambiguous-switch,-1,24,right,right,0.198
DEK2001WRNO,2020-02-03-13-00-23,2,18,0.5902461308377458,right,both,ambiguous-switch,59,24,right,left,0.213
DEK2001WRNO,2020-02-03-13-00-23,2,19,0.611118105829994,left,probe,ambiguous-switch,-1,-3,right,right,0.185
DEK2001WRNO,2020-02-03-13-00-23,2,20,0.5264056700970853,left,both,ambiguous-switch,57,-3,right,right,0.261
DEK2001WRNO,2020-02-03-13-00-23,2,21,0.6435925452119399,left,probe,biased-switch,-1,12,right,right,0.225
DEK2001WRNO,2020-02-03-13-00-23,2,22,0.5335603881325162,left,both,biased-switch,61,12,right,left,0.03
DEK2001WRNO,2020-02-03-13-00-23,2,23,0.6639260502590038,left,probe,ambiguous-switch,-1,0,right,right,0.189
DEK2001WRNO,2020-02-03-13-00-23,2,24,0.622530829411727,left,both,ambiguous-switch,54,0,right,right,0.207
DEK2001WRNO,2020-02-03-13-00-23,2,25,0.6463088440645288,left,probe,biased-switch,-1,18,right,right,0.189
DEK2001WRNO,2020-02-03-13-00-23,2,26,0.6863352477190972,left,both,biased-switch,59,18,right,right,0.068
DEK2001WRNO,2020-02-03-13-00-23,2,27,0.5541267084766328,left,probe,biased-switch,-1,-3,right,right,0.205
DEK2001WRNO,2020-02-03-13-00-23,2,28,0.6261118434374855,left,both,biased-switch,57,-3,right,left,0.278
DEK2001WRNO,2020-02-03-13-00-23,2,29,0.5474757980894561,right,probe,ambiguous-switch,-1,3,left,left,0.191
DEK2001WRNO,2020-02-03-13-00-23,2,30,0.6677607587778728,right,both,ambiguous-switch,64,3,left,left,0.153
DEK2001WRNO,2020-02-03-13-00-23,2,31,0.5839843827512732,right,probe,ambiguous-switch,-1,-6,left,left,0.205
DEK2001WRNO,2020-02-03-13-00-23,2,32,0.6717704443070491,right,both,ambiguous-switch,64,-6,left,left,0.21
DEK2001WRNO,2020-02-03-13-00-23,2,33,0.6562375809219549,right,probe,biased-switch,-1,3,left,left,0.291
DEK2001WRNO,2020-02-03-13-00-23,2,34,0.5463582838436811,right,both,biased-switch,66,3,left,right,0.304
DEK2001WRNO,2020-02-03-13-00-23,2,35,0.607360578065594,right,probe,biased-switch,-1,0,left,left,0.199
DEK2001WRNO,2020-02-03-13-00-23,2,36,0.5188786449812441,right,both,biased-switch,58,0,left,right,0.21
DEK2001WRNO,2020-02-03-13-00-23,2,37,0.5674762585804264,right,probe,ambiguous-switch,-1,18,left,left,0.075
DEK2001WRNO,2020-02-03-13-00-23,2,38,0.5084049733277763,right,both,ambiguous-switch,65,18,left,left,0.267
DEK2001WRNO,2020-02-03-13-00-23,2,39,0.6157766372440938,right,probe,biased-switch,-1,-12,left,left,0.13
DEK2001WRNO,2020-02-03-13-00-23,2,40,0.5158116268665974,right,both,biased-switch,54,-12,left,left,0.145
DEK2001WRNO,2020-02-03-13-00-23,2,41,0.5410784193837066,right,probe,ambiguous-switch,-1,-12,left,left,0.177
DEK2001WRNO,2020-02-03-13-00-23,2,42,0.6013913872436383,right,both,ambiguous-switch,63,-12,left,left,0.194
DEK2001WRNO,2020-02-03-13-00-23,2,43,0.6500750477940763,right,probe,biased-switch,-1,24,left,left,0.329
DEK2001WRNO,2020-02-03-13-00-23,2,44,0.5236154052507686,right,both,biased-switch,63,24,left,left,0.661
DEK2001WRNO,2020-02-03-13-00-23,2,45,0.5439309199301006,right,probe,biased-switch,-1,-6,left,left,0.192
DEK2001WRNO,2020-02-03-13-00-23,2,46,0.5249396365473549,right,both,biased-switch,63,-6,left,left,0.233
DEK2001WRNO,2020-02-03-13-00-23,2,47,0.6145660297282326,right,probe,biased-switch,-1,-18,left,left,0.221
DEK2001WRNO,2020-02-03-13-00-23,2,48,0.5050662539650729,right,both,biased-switch,64,-18,left,left,0.112
DEK2001WRNO,2020-02-03-13-00-23,2,49,0.5641133696859331,left,probe,ambiguous-switch,-1,12,left,left,0.201
DEK2001WRNO,2020-02-03-13-00-23,2,50,0.551130335265629,left,both,ambiguous-switch,66,12,left,left,0.124
DEK2001WRNO,2020-02-03-13-00-23,2,51,0.6326547598740715,right,probe,ambiguous-switch,-1,-18,left,left,0.231
DEK2001WRNO,2020-02-03-13-00-23,2,52,0.6034700310831469,right,both,ambiguous-switch,55,-18,left,left,0.223
DEK2001WRNO,2020-02-03-13-00-23,2,53,0.5376166307868822,left,probe,ambiguous-switch,-1,6,left,left,0.21
DEK2001WRNO,2020-02-03-13-00-23,2,54,0.5669743513678999,left,both,ambiguous-switch,55,6,left,left,0.235
DEK2001WRNO,2020-02-03-13-00-23,2,55,0.6594404270275039,right,probe,biased-switch,-1,6,left,left,0.163
DEK2001WRNO,2020-02-03-13-00-23,2,56,0.6079424418228528,right,both,biased-switch,65,6,left,right,0.311
DEK2001WRNO,2020-02-03-13-00-23,2,57,0.6350912243335326,right,probe,ambiguous-switch,-1,24,left,left,0.188
DEK2001WRNO,2020-02-03-13-00-23,2,58,0.5082708167433632,right,both,ambiguous-switch,60,24,left,left,0.091
DEK2001WRNO,2020-02-03-13-00-23,2,59,0.6647791376900956,right,probe,ambiguous-switch,-1,-3,left,left,0.257
DEK2001WRNO,2020-02-03-13-00-23,2,60,0.6788691853617154,right,both,ambiguous-switch,63,-3,left,left,0.198
DEK2001WRNO,2020-02-03-13-00-23,2,61,0.532046597431935,left,probe,biased-switch,-1,12,left,left,0.168
DEK2001WRNO,2020-02-03-13-00-23,2,62,0.5143027934643214,left,both,biased-switch,63,12,left,left,0.215
DEK2001WRNO,2020-02-03-13-00-23,2,63,0.6761906060113637,left,probe,ambiguous-switch,-1,0,left,left,0.211
DEK2001WRNO,2020-02-03-13-00-23,2,64,0.686531833377725,left,both,ambiguous-switch,60,0,left,left,0.203
DEK2001WRNO,2020-02-03-13-00-23,2,65,0.5738613389515804,left,probe,biased-switch,-1,18,left,left,0.197
DEK2001WRNO,2020-02-03-13-00-23,2,66,0.5857983576995793,left,both,biased-switch,54,18,left,left,0.259
DEK2001WRNO,2020-02-03-13-00-23,2,67,0.6615607541850104,left,probe,biased-switch,-1,-3,left,left,0.187
DEK2001WRNO,2020-02-03-13-00-23,2,68,0.6028604814524294,left,both,biased-switch,62,-3,left,right,0.408
DEK2001WRNO,2020-02-03-13-00-23,2,69,0.5027706299768229,right,probe,ambiguous-switch,-1,3,left,left,0.312
DEK2001WRNO,2020-02-03-13-00-23,2,70,0.6774980662507046,right,both,ambiguous-switch,64,3,left,right,0.228
DEK2001WRNO,2020-02-03-13-00-23,2,71,0.5002238006205322,right,probe,ambiguous-switch,-1,-6,left,left,0.242
DEK2001WRNO,2020-02-03-13-00-23,2,72,0.5002146120112896,right,both,ambiguous-switch,58,-6,left,left,0.294
DEK2001WRNO,2020-02-03-13-00-23,2,73,0.6560942259756891,right,probe,biased-switch,-1,3,left,left,0.151
DEK2001WRNO,2020-02-03-13-00-23,2,74,0.5972519229300915,right,both,biased-switch,62,3,left,right,0.226
DEK2001WRNO,2020-02-03-13-00-23,2,75,0.6584707441949119,left,probe,biased-switch,-1,0,left,left,0.303
DEK2001WRNO,2020-02-03-13-00-23,2,76,0.6316220354945375,left,both,biased-switch,54,0,left,right,0.231
DEK2001WRNO,2020-02-03-13-00-23,2,77,0.6817548025505166,right,probe,ambiguous-switch,-1,18,left,left,0.257
DEK2001WRNO,2020-02-03-13-00-23,2,78,0.698695557888102,right,both,ambiguous-switch,58,18,left,right,0.228
DEK2001WRNO,2020-02-03-13-00-23,2,79,0.6919566876853281,right,probe,biased-switch,-1,-12,right,right,0.323
DEK2001WRNO,2020-02-03-13-00-23,2,80,0.5475767656588895,right,both,biased-switch,62,-12,right,right,0.272
DEK2001WRNO,2020-02-03-13-00-23,3,1,0.6077160897078655,right,probe,biased-switch,-1,12,right,right,0.235
DEK2001WRNO,2020-02-03-13-00-23,3,2,0.659548944409825,right,both,biased-switch,62,12,right,right,0.216
DEK2001WRNO,2020-02-03-13-00-23,3,3,0.6756155779877075,right,probe,biased-switch,-1,18,left,left,0.202
DEK2001WRNO,2020-02-03-13-00-23,3,4,0.5145572159849247,right,both,biased-switch,56,18,left,right,0.218
DEK2001WRNO,2020-02-03-13-00-23,3,5,0.5278091988068244,left,probe,ambiguous-switch,-1,12,right,right,0.235
DEK2001WRNO,2020-02-03-13-00-23,3,6,0.6590598937089372,left,both,ambiguous-switch,63,12,right,left,0.192
DEK2001WRNO,2020-02-03-13-00-23,3,7,0.6557548691818001,left,probe,biased-switch,-1,-6,left,left,0.218
DEK2001WRNO,2020-02-03-13-00-23,3,8,0.5573051748623756,left,both,biased-switch,62,-6,left,right,0.276
DEK2001WRNO,2020-02-03-13-00-23,3,9,0.5859264356353016,left,probe,ambiguous-switch,-1,3,left,left,0.271
DEK2001WRNO,2020-02-03-13-00-23,3,10,0.696990750006405,left,both,ambiguous-switch,58,3,left,left,0.174
DEK2001WRNO,2020-02-03-13-00-23,3,11,0.6538973653074147,left,probe,ambiguous-switch,-1,-6,left,left,0.208
DEK2001WRNO,2020-02-03-13-00-23,3,12,0.6773215893556626,left,both,ambiguous-switch,65,-6,left,left,0.238
DEK2001WRNO,2020-02-03-13-00-23,3,13,0.5949873288186999,right,probe,biased-switch,-1,-3,left,left,0.145
DEK2001WRNO,2020-02-03-13-00-23,3,14,0.5460106143753438,right,both,biased-switch,64,-3,left,left,0.2
DEK2001WRNO,2020-02-03-13-00-23,3,15,0.535258669597175,left,probe,ambiguous-switch,-1,0,left,left,0.146
DEK2001WRNO,2020-02-03-13-00-23,3,16,0.5536303433541295,left,both,ambiguous-switch,58,0,left,left,0.277
DEK2001WRNO,2020-02-03-13-00-23,3,17,0.6947301038178381,left,probe,biased-switch,-1,6,left,left,0.239
DEK2001WRNO,2020-02-03-13-00-23,3,18,0.6095363090696141,left,both,biased-switch,61,6,left,right,0.394
DEK2001WRNO,2020-02-03-13-00-23,3,19,0.5659966767075432,left,probe,ambiguous-switch,-1,-18,left,left,0.164
DEK2001WRNO,2020-02-03-13-00-23,3,20,0.5843789691116902,left,both,ambiguous-switch,63,-18,left,right,0.241
DEK2001WRNO,2020-02-03-13-00-23,3,21,0.6520154092035781,left,probe,biased-switch,-1,-12,left,left,0.125
DEK2001WRNO,2020-02-03-13-00-23,3,22,0.636325321624391,left,both,biased-switch,56,-12,left,right,0.25
DEK2001WRNO,2020-02-03-13-00-23,3,23,0.5485106362045127,left,probe,ambiguous-switch,-1,18,right,right,0.193
DEK2001WRNO,2020-02-03-13-00-23,3,24,0.6042150363963338,left,both,ambiguous-switch,56,18,right,right,0.086
DEK2001WRNO,2020-02-03-13-00-23,3,25,0.5020052562146067,left,probe,ambiguous-switch,-1,6,right,right,0.157
DEK2001WRNO,2020-02-03-13-00-23,3,26,0.5727283704798145,left,both,ambiguous-switch,55,6,right,left,0.354
DEK2001WRNO,2020-02-03-13-00-23,3,27,0.604456952907225,right,probe,biased-switch,-1,0,right,right,0.326
DEK2001WRNO,2020-02-03-13-00-23,3,28,0.6685436650722067,right,both,biased-switch,61,0,right,left,0.009
DEK2001WRNO,2020-02-03-13-00-23,3,29,0.5437246815552154,left,probe,ambiguous-switch,-1,-12,right,right,0.22
DEK2001WRNO,2020-02-03-13-00-23,3,30,0.6139310904995051,left,both,ambiguous-switch,61,-12,right,right,0.169
DEK2001WRNO,2020-02-03-13-00-23,3,31,0.6618822628333623,right,probe,biased-switch,-1,3,right,right,0.235
DEK2001WRNO,2020-02-03-13-00-23,3,32,0.5717616953165725,right,both,biased-switch,58,3,right,left,0.254
DEK2001WRNO,2020-02-03-13-00-23,3,33,0.6344873756829306,right,probe,ambiguous-switch,-1,-3,left,left,0.203
DEK2001WRNO,2020-02-03-13-00-23,3,34,0.5604669992285042,right,both,ambiguous-switch,61,-3,left,left,0.221
DEK2001WRNO,2020-02-03-13-00-23,3,35,0.6501280052299232,right,probe,biased-switch,-1,24,left,left,0.188
DEK2001WRNO,2020-02-03-13-00-23,3,36,0.5167071463849974,right,both,biased-switch,55,24,left,left,0.247
DEK2001WRNO,2020-02-03-13-00-23,3,37,0.6809746032473607,right,probe,ambiguous-switch,-1,24,left,left,0.245
DEK2001WRNO,2020-02-03-13-00-23,3,38,0.6877357618330897,right,both,ambiguous-switch,55,24,left,left,0.181
DEK2001WRNO,2020-02-03-13-00-23,3,39,0.5738288404880907,right,probe,biased-switch,-1,-18,left,left,0.205
DEK2001WRNO,2020-02-03-13-00-23,3,40,0.668187781871876,right,both,biased-switch,62,-18,left,left,0.18
DEK2001WRNO,2020-02-03-13-00-23,3,41,0.5455984561214678,right,probe,biased-switch,-1,12,left,left,0.203
DEK2001WRNO,2020-02-03-13-00-23,3,42,0.6847926002248009,right,both,biased-switch,64,12,left,left,0.198
DEK2001WRNO,2020-02-03-13-00-23,3,43,0.5660950073942659,right,probe,biased-switch,-1,18,left,left,0.222
DEK2001WRNO,2020-02-03-13-00-23,3,44,0.6176761201731202,right,both,biased-switch,66,18,left,left,0.124
DEK2001WRNO,2020-02-03-13-00-23,3,45,0.5269198199444881,right,probe,ambiguous-switch,-1,12,left,left,1.041
DEK2001WRNO,2020-02-03-13-00-23,3,46,0.5095544908287147,right,both,ambiguous-switch,56,12,left,left,0.234
DEK2001WRNO,2020-02-03-13-00-23,3,47,0.512419364434113,right,probe,biased-switch,-1,-6,left,left,0.189
DEK2001WRNO,2020-02-03-13-00-23,3,48,0.5380672809339409,right,both,biased-switch,60,-6,left,right,0.361
DEK2001WRNO,2020-02-03-13-00-23,3,49,0.5758996365935214,left,probe,ambiguous-switch,-1,3,left,left,0.228
DEK2001WRNO,2020-02-03-13-00-23,3,50,0.552080521537329,left,both,ambiguous-switch,56,3,left,left,0.166
DEK2001WRNO,2020-02-03-13-00-23,3,51,0.5541448454003552,right,probe,ambiguous-switch,-1,-6,left,left,0.263
DEK2001WRNO,2020-02-03-13-00-23,3,52,0.5001320565034995,right,both,ambiguous-switch,62,-6,left,left,0.927
DEK2001WRNO,2020-02-03-13-00-23,3,53,0.6410701279691167,right,probe,biased-switch,-1,-3,left,left,0.215
DEK2001WRNO,2020-02-03-13-00-23,3,54,0.5340846209751365,right,both,biased-switch,58,-3,left,left,0.203
DEK2001WRNO,2020-02-03-13-00-23,3,55,0.5147023423461844,right,probe,ambiguous-switch,-1,0,left,left,0.233
DEK2001WRNO,2020-02-03-13-00-23,3,56,0.6275046979461464,right,both,ambiguous-switch,54,0,left,right,0.274
DEK2001WRNO,2020-02-03-13-00-23,3,57,0.623828139084786,right,probe,biased-switch,-1,6,left,left,0.211
DEK2001WRNO,2020-02-03-13-00-23,3,58,0.5824149714760455,right,both,biased-switch,59,6,left,right,0.22
DEK2001WRNO,2020-02-03-13-00-23,3,59,0.6014850519533645,right,probe,ambiguous-switch,-1,-18,left,left,0.262
DEK2001WRNO,2020-02-03-13-00-23,3,60,0.5338255430542105,right,both,ambiguous-switch,63,-18,left,right,0.246
DEK2001WRNO,2020-02-03-13-00-23,3,61,0.6256314530502319,left,probe,biased-switch,-1,-12,left,left,0.265
DEK2001WRNO,2020-02-03-13-00-23,3,62,0.5677521463771511,left,both,biased-switch,54,-12,left,left,0.264
DEK2001WRNO,2020-02-03-13-00-23,3,63,0.5715962597637118,left,probe,ambiguous-switch,-1,18,left,left,0.386
DEK2001WRNO,2020-02-03-13-00-23,3,64,0.6934457440583794,left,both,ambiguous-switch,65,18,left,left,0.177
DEK2001WRNO,2020-02-03-13-00-23,3,65,0.6322077020936896,left,probe,ambiguous-switch,-1,6,left,left,0.215
DEK2001WRNO,2020-02-03-13-00-23,3,66,0.6968229106822057,left,both,ambiguous-switch,58,6,left,right,0.194
DEK2001WRNO,2020-02-03-13-00-23,3,67,0.6399068020519957,right,probe,biased-switch,-1,0,left,left,0.223
DEK2001WRNO,2020-02-03-13-00-23,3,68,0.6545402990150239,right,both,biased-switch,54,0,left,right,0.171
DEK2001WRNO,2020-02-03-13-00-23,3,69,0.5879737843766062,right,probe,ambiguous-switch,-1,-12,right,right,0.229
DEK2001WRNO,2020-02-03-13-00-23,3,70,0.574440215624029,right,both,ambiguous-switch,63,-12,right,right,0.243
DEK2001WRNO,2020-02-03-13-00-23,3,71,0.6974116988692338,right,probe,biased-switch,-1,3,right,right,0.191
DEK2001WRNO,2020-02-03-13-00-23,3,72,0.5297061773455749,right,both,biased-switch,57,3,right,left,0.227
DEK2001WRNO,2020-02-03-13-00-23,3,73,0.6955835309522669,right,probe,ambiguous-switch,-1,-3,left,left,0.199
DEK2001WRNO,2020-02-03-13-00-23,3,74,0.6798620294599276,right,both,ambiguous-switch,65,-3,left,right,0.224
DEK2001WRNO,2020-02-03-13-00-23,3,75,0.625743682342836,right,probe,biased-switch,-1,24,right,right,0.196
DEK2001WRNO,2020-02-03-13-00-23,3,76,0.5947624554441083,right,both,biased-switch,55,24,right,right,0.259
DEK2001WRNO,2020-02-03-13-00-23,3,77,0.5218280177085866,left,probe,ambiguous-switch,-1,24,left,left,0.174
DEK2001WRNO,2020-02-03-13-00-23,3,78,0.6640567538084673,left,both,ambiguous-switch,55,24,left,right,0.182
DEK2001WRNO,2020-02-03-13-00-23,3,79,0.6581351700632003,left,probe,biased-switch,-1,-18,right,right,0.243
DEK2001WRNO,2020-02-03-13-00-23,3,80,0.598522096148366,left,both,biased-switch,56,-18,right,right,0.119
DEK2001WRNO,2020-02-03-13-00-23,4,1,0.626829485626512,left,probe,biased-switch,-1,-18,right,right,0.246
DEK2001WRNO,2020-02-03-13-00-23,4,2,0.6134581440814466,left,both,biased-switch,62,-18,right,right,0.107
DEK2001WRNO,2020-02-03-13-00-23,4,3,0.5199445743970297,left,probe,biased-switch,-1,3,right,right,0.141
DEK2001WRNO,2020-02-03-13-00-23,4,4,0.683522290173244,left,both,biased-switch,66,3,right,right,0.28
DEK2001WRNO,2020-02-03-13-00-23,4,5,0.6299162213434567,left,probe,biased-switch,-1,18,right,right,0.281
DEK2001WRNO,2020-02-03-13-00-23,4,6,0.5797871536137176,left,both,biased-switch,59,18,right,right,0.253
DEK2001WRNO,2020-02-03-13-00-23,4,7,0.6154658178337747,right,probe,biased-switch,-1,24,right,right,0.152
DEK2001WRNO,2020-02-03-13-00-23,4,8,0.5785174541092906,right,both,biased-switch,66,24,right,right,0.277
DEK2001WRNO,2020-02-03-13-00-23,4,9,0.5597675006787061,left,probe,biased-switch,-1,-6,right,right,0.143
DEK2001WRNO,2020-02-03-13-00-23,4,10,0.6005644280475938,left,both,biased-switch,63,-6,right,right,0.146
DEK2001WRNO,2020-02-03-13-00-23,4,11,0.5407120489291994,right,probe,ambiguous-switch,-1,-12,right,right,0.247
DEK2001WRNO,2020-02-03-13-00-23,4,12,0.5519980484903122,right,both,ambiguous-switch,60,-12,right,right,0.269
DEK2001WRNO,2020-02-03-13-00-23,4,13,0.690826946007767,right,probe,biased-switch,-1,0,right,right,0.155
DEK2001WRNO,2020-02-03-13-00-23,4,14,0.6837307188280318,right,both,biased-switch,62,0,right,left,0.115
DEK2001WRNO,2020-02-03-13-00-23,4,15,0.5974421669123877,left,probe,biased-switch,-1,-12,right,right,0.285
DEK2001WRNO,2020-02-03-13-00-23,4,16,0.592225407505815,left,both,biased-switch,60,-12,right,right,0.195
DEK2001WRNO,2020-02-03-13-00-23,4,17,0.6265860389237462,right,probe,biased-switch,-1,12,right,right,0.292
DEK2001WRNO,2020-02-03-13-00-23,4,18,0.68091227305587,right,both,biased-switch,62,12,right,left,0.174
DEK2001WRNO,2020-02-03-13-00-23,4,19,0.6246515898672629,left,probe,ambiguous-switch,-1,-6,left,left,0.237
DEK2001WRNO,2020-02-03-13-00-23,4,20,0.6885549033538432,left,both,ambiguous-switch,61,-6,left,right,0.461
DEK2001WRNO,2020-02-03-13-00-23,4,21,0.6503044183416863,left,probe,biased-switch,-1,-3,right,right,0.325
DEK2001WRNO,2020-02-03-13-00-23,4,22,0.6512867232878006,left,both,biased-switch,62,-3,right,left,0.17
DEK2001WRNO,2020-02-03-13-00-23,4,23,0.6010227688869971,right,probe,ambiguous-switch,-1,3,right,right,0.221
DEK2001WRNO,2020-02-03-13-00-23,4,24,0.567948979949787,right,both,ambiguous-switch,61,3,right,left,0.172
DEK2001WRNO,2020-02-03-13-00-23,4,25,0.521401910289038,left,probe,ambiguous-switch,-1,0,right,right,0.143
DEK2001WRNO,2020-02-03-13-00-23,4,26,0.6620626037566855,left,both,ambiguous-switch,66,0,right,left,0.19
DEK2001WRNO,2020-02-03-13-00-23,4,27,0.5847658305412506,right,probe,biased-switch,-1,6,right,right,0.224
DEK2001WRNO,2020-02-03-13-00-23,4,28,0.5977615991735685,right,both,biased-switch,57,6,right,right,0.172
DEK2001WRNO,2020-02-03-13-00-23,4,29,0.5833188853247953,right,probe,ambiguous-switch,-1,12,right,right,0.222
DEK2001WRNO,2020-02-03-13-00-23,4,30,0.6452803931038172,right,both,ambiguous-switch,66,12,right,left,0.172
DEK2001WRNO,2020-02-03-13-00-23,4,31,0.6765330555373232,left,probe,ambiguous-switch,-1,18,right,right,0.218
DEK2001WRNO,2020-02-03-13-00-23,4,32,0.5411472330920571,left,both,ambiguous-switch,60,18,right,right,0.37
DEK2001WRNO,2020-02-03-13-00-23,4,33,0.6993617261029026,right,probe,ambiguous-switch,-1,-18,left,left,0.174
DEK2001WRNO,2020-02-03-13-00-23,4,34,0.5977936635038953,right,both,ambiguous-switch,65,-18,left,left,0.161
DEK2001WRNO,2020-02-03-13-00-23,4,35,0.6134239561548148,left,probe,ambiguous-switch,-1,24,left,left,0.251
DEK2001WRNO,2020-02-03-13-00-23,4,36,0.5718984553926898,left,both,ambiguous-switch,58,24,left,left,0.235
DEK2001WRNO,2020-02-03-13-00-23,4,37,0.6094333484941976,right,probe,ambiguous-switch,-1,-3,left,left,0.201
DEK2001WRNO,2020-02-03-13-00-23,4,38,0.5840479196889006,right,both,ambiguous-switch,63,-3,left,left,0.063
DEK2001WRNO,2020-02-03-13-00-23,4,39,0.5048578307080889,left,probe,ambiguous-switch,-1,6,left,left,0.201
DEK2001WRNO,2020-02-03-13-00-23,4,40,0.6271108775618601,left,both,ambiguous-switch,64,6,left,left,0.159
DEK2001WRNO,2020-02-03-13-00-23,4,41,0.6649193932101909,right,probe,biased-switch,-1,-18,left,left,0.201
DEK2001WRNO,2020-02-03-13-00-23,4,42,0.5036638073680679,right,both,biased-switch,59,-18,left,left,0.25
DEK2001WRNO,2020-02-03-13-00-23,4,43,0.6569201969168459,left,probe,biased-switch,-1,3,left,left,0.269
DEK2001WRNO,2020-02-03-13-00-23,4,44,0.6345361620225402,left,both,biased-switch,60,3,left,right,0.2
DEK2001WRNO,2020-02-03-13-00-23,4,45,0.5640254855985435,left,probe,biased-switch,-1,18,left,left,0.193
DEK2001WRNO,2020-02-03-13-00-23,4,46,0.5640457119496086,left,both,biased-switch,56,18,left,left,0.143
DEK2001WRNO,2020-02-03-13-00-23,4,47,0.5685235765928749,left,probe,biased-switch,-1,24,left,left,0.618
DEK2001WRNO,2020-02-03-13-00-23,4,48,0.6229103799596384,left,both,biased-switch,58,24,left,left,0.242
DEK2001WRNO,2020-02-03-13-00-23,4,49,0.628420132723053,right,probe,biased-switch,-1,-6,left,left,0.397
DEK2001WRNO,2020-02-03-13-00-23,4,50,0.5581052273370758,right,both,biased-switch,63,-6,left,left,0.213
DEK2001WRNO,2020-02-03-13-00-23,4,51,0.6486905443593791,right,probe,ambiguous-switch,-1,-12,left,left,0.25
DEK2001WRNO,2020-02-03-13-00-23,4,52,0.545287289125644,right,both,ambiguous-switch,55,-12,left,right,0.233
DEK2001WRNO,2020-02-03-13-00-23,4,53,0.6106316277236454,left,probe,biased-switch,-1,0,right,right,0.241
DEK2001WRNO,2020-02-03-13-00-23,4,54,0.6374891962065921,left,both,biased-switch,63,0,right,left,0.053
DEK2001WRNO,2020-02-03-13-00-23,4,55,0.6691700472749137,right,probe,biased-switch,-1,-12,right,right,0.217
DEK2001WRNO,2020-02-03-13-00-23,4,56,0.6529040776354292,right,both,biased-switch,63,-12,right,right,0.195
DEK2001WRNO,2020-02-03-13-00-23,4,57,0.5080756204038749,right,probe,biased-switch,-1,12,right,right,0.235
DEK2001WRNO,2020-02-03-13-00-23,4,58,0.535571332640173,right,both,biased-switch,65,12,right,right,0.244
DEK2001WRNO,2020-02-03-13-00-23,4,59,0.6384160495289533,right,probe,ambiguous-switch,-1,-6,right,right,0.154
DEK2001WRNO,2020-02-03-13-00-23,4,60,0.6375434521382292,right,both,ambiguous-switch,55,-6,right,right,0.234
DEK2001WRNO,2020-02-03-13-00-23,4,61,0.5901830543274001,right,probe,biased-switch,-1,-3,right,right,0.244
DEK2001WRNO,2020-02-03-13-00-23,4,62,0.5829551124046907,right,both,biased-switch,56,-3,right,right,0.196
DEK2001WRNO,2020-02-03-13-00-23,4,63,0.5950630618896017,left,probe,ambiguous-switch,-1,3,left,left,0.236
DEK2001WRNO,2020-02-03-13-00-23,4,64,0.6576924723433142,left,both,ambiguous-switch,55,3,left,left,0.2
DEK2001WRNO,2020-02-03-13-00-23,4,65,0.6088727171543781,left,probe,ambiguous-switch,-1,0,right,right,0.293
DEK2001WRNO,2020-02-03-13-00-23,4,66,0.6344968045543623,left,both,ambiguous-switch,55,0,right,right,0.181
DEK2001WRNO,2020-02-03-13-00-23,4,67,0.5422116561556819,left,probe,biased-switch,-1,6,right,right,0.235
DEK2001WRNO,2020-02-03-13-00-23,4,68,0.6160096561772056,left,both,biased-switch,61,6,right,left,0.406
DEK2001WRNO,2020-02-03-13-00-23,4,69,0.6049852293007435,left,probe,ambiguous-switch,-1,12,left,left,0.298
DEK2001WRNO,2020-02-03-13-00-23,4,70,0.6869509598334962,left,both,ambiguous-switch,63,12,left,left,0.235
DEK2001WRNO,2020-02-03-13-00-23,4,71,0.6966782280644375,left,probe,ambiguous-switch,-1,18,right,right,0.189
DEK2001WRNO,2020-02-03-13-00-23,4,72,0.5707743557365612,left,both,ambiguous-switch,65,18,right,right,0.254
DEK2001WRNO,2020-02-03-13-00-23,4,73,0.6711142528623096,left,probe,ambiguous-switch,-1,-18,right,right,0.251
DEK2001WRNO,2020-02-03-13-00-23,4,74,0.559998787275931,left,both,ambiguous-switch,63,-18,right,right,0.245
DEK2001WRNO,2020-02-03-13-00-23,4,75,0.5847525003678672,right,probe,ambiguous-switch,-1,24,right,right,0.196
DEK2001WRNO,2020-02-03-13-00-23,4,76,0.6474953203499625,right,both,ambiguous-switch,56,24,right,right,0.32
DEK2001WRNO,2020-02-03-13-00-23,4,77,0.6142376433364006,left,probe,ambiguous-switch,-1,-3,right,right,0.296
DEK2001WRNO,2020-02-03-13-00-23,4,78,0.6434213613165494,left,both,ambiguous-switch,58,-3,right,right,0.229
DEK2001WRNO,2020-02-03-13-00-23,4,79,0.5188759512097662,left,probe,ambiguous-switch,-1,6,right,right,0.227
DEK2001WRNO,2020-02-03-13-00-23,4,80,0.6517500738984703,left,both,ambiguous-switch,61,6,right,right,0.373
DEK2001WRNO,2020-02-03-13-00-23,5,1,0.6632424516322303,right,probe,ambiguous-switch,-1,6,right,right,0.286
DEK2001WRNO,2020-02-03-13-00-23,5,2,0.5179046098050442,right,both,ambiguous-switch,61,6,right,left,1.231
DEK2001WRNO,2020-02-03-13-00-23,5,3,0.6968744491354154,right,probe,biased-switch,-1,-6,right,right,0.298
DEK2001WRNO,2020-02-03-13-00-23,5,4,0.5556565113400396,right,both,biased-switch,65,-6,right,right,0.233
DEK2001WRNO,2020-02-03-13-00-23,5,5,0.6458564508732488,right,probe,ambiguous-switch,-1,-12,right,right,0.421
DEK2001WRNO,2020-02-03-13-00-23,5,6,0.5742318270320473,right,both,ambiguous-switch,54,-12,right,right,0.231
DEK2001WRNO,2020-02-03-13-00-23,5,7,0.5920133221742253,left,probe,ambiguous-switch,-1,18,right,right,0.551
DEK2001WRNO,2020-02-03-13-00-23,5,8,0.5603819023087933,left,both,ambiguous-switch,58,18,right,right,0.215
DEK2001WRNO,2020-02-03-13-00-23,5,9,0.6167707599267162,left,probe,ambiguous-switch,-1,12,right,right,0.193
DEK2001WRNO,2020-02-03-13-00-23,5,10,0.6561208441361608,left,both,ambiguous-switch,65,12,right,right,0.201
DEK2001WRNO,2020-02-03-13-00-23,5,11,0.685205702070147,right,probe,biased-switch,-1,-12,right,right,0.247
DEK2001WRNO,2020-02-03-13-00-23,5,12,0.524434472309931,right,both,biased-switch,54,-12,right,right,0.536
DEK2001WRNO,2020-02-03-13-00-23,5,13,0.5544082173608739,right,probe,ambiguous-switch,-1,3,right,right,0.244
DEK2001WRNO,2020-02-03-13-00-23,5,14,0.6449041616908222,right,both,ambiguous-switch,57,3,right,right,0.209
DEK2001WRNO,2020-02-03-13-00-23,5,15,0.5433947894124292,left,probe,biased-switch,-1,-3,right,right,0.268
DEK2001WRNO,2020-02-03-13-00-23,5,16,0.6717398203607818,left,both,biased-switch,54,-3,right,right,0.124
DEK2001WRNO,2020-02-03-13-00-23,5,17,0.6926861238235696,left,probe,biased-switch,-1,-18,right,right,0.191
DEK2001WRNO,2020-02-03-13-00-23,5,18,0.6492149611700239,left,both,biased-switch,59,-18,right,right,0.213
DEK2001WRNO,2020-02-03-13-00-23,5,19,0.6295594313349573,left,probe,biased-switch,-1,18,right,right,0.164
DEK2001WRNO,2020-02-03-13-00-23,5,20,0.5447621119972481,left,both,biased-switch,56,18,right,right,0.158
DEK2001WRNO,2020-02-03-13-00-23,5,21,0.5558834667314346,right,probe,ambiguous-switch,-1,-3,right,right,0.224
DEK2001WRNO,2020-02-03-13-00-23,5,22,0.6021802446343979,right,both,ambiguous-switch,54,-3,right,right,0.196
DEK2001WRNO,2020-02-03-13-00-23,5,23,0.6508716956636552,right,probe,biased-switch,-1,6,right,right,0.201
DEK2001WRNO,2020-02-03-13-00-23,5,24,0.6013554227359886,right,both,biased-switch,59,6,right,left,0.215
DEK2001WRNO,2020-02-03-13-00-23,5,25,0.5562984936019233,left,probe,biased-switch,-1,12,right,right,0.178
DEK2001WRNO,2020-02-03-13-00-23,5,26,0.5905905424251869,left,both,biased-switch,65,12,right,left,0.115
DEK2001WRNO,2020-02-03-13-00-23,5,27,0.5248471335276385,left,probe,ambiguous-switch,-1,-18,left,left,0.039
DEK2001WRNO,2020-02-03-13-00-23,5,28,0.6393796442454104,left,both,ambiguous-switch,59,-18,left,right,0.295
DEK2001WRNO,2020-02-03-13-00-23,5,29,0.6229899454692011,left,probe,ambiguous-switch,-1,24,left,left,0.224
DEK2001WRNO,2020-02-03-13-00-23,5,30,0.6451696122113374,left,both,ambiguous-switch,56,24,left,right,0.205
DEK2001WRNO,2020-02-03-13-00-23,5,31,0.5935421986977266,left,probe,ambiguous-switch,-1,0,left,left,0.201
DEK2001WRNO,2020-02-03-13-00-23,5,32,0.562071080276686,left,both,ambiguous-switch,57,0,left,right,0.187
DEK2001WRNO,2020-02-03-13-00-23,5,33,0.6195695836201113,right,probe,biased-switch,-1,3,left,left,0.231
DEK2001WRNO,2020-02-03-13-00-23,5,34,0.64903986451492,right,both,biased-switch,65,3,left,right,0.254
DEK2001WRNO,2020-02-03-13-00-23,5,35,0.5937213646240019,left,probe,biased-switch,-1,0,left,left,0.173
DEK2001WRNO,2020-02-03-13-00-23,5,36,0.6916303669439936,left,both,biased-switch,57,0,left,right,0.249
DEK2001WRNO,2020-02-03-13-00-23,5,37,0.6802242709253952,left,probe,ambiguous-switch,-1,-6,left,left,0.19
DEK2001WRNO,2020-02-03-13-00-23,5,38,0.6125442918149929,left,both,ambiguous-switch,55,-6,left,left,0.2
DEK2001WRNO,2020-02-03-13-00-23,5,39,0.5769333135054425,left,probe,biased-switch,-1,24,left,left,0.223
DEK2001WRNO,2020-02-03-13-00-23,5,40,0.5503283102011257,left,both,biased-switch,64,24,left,right,0.165
DEK2001WRNO,2020-02-03-13-00-23,5,41,0.6691701037528828,right,probe,ambiguous-switch,-1,6,left,left,0.156
DEK2001WRNO,2020-02-03-13-00-23,5,42,0.5580151226948825,right,both,ambiguous-switch,57,6,left,right,0.209
DEK2001WRNO,2020-02-03-13-00-23,5,43,0.603539088565232,left,probe,biased-switch,-1,-6,right,right,0.481
DEK2001WRNO,2020-02-03-13-00-23,5,44,0.5750427161573651,left,both,biased-switch,58,-6,right,right,0.27
DEK2001WRNO,2020-02-03-13-00-23,5,45,0.5180509266754574,left,probe,ambiguous-switch,-1,-12,right,right,0.233
DEK2001WRNO,2020-02-03-13-00-23,5,46,0.651539872442725,left,both,ambiguous-switch,57,-12,right,right,0.158
DEK2001WRNO,2020-02-03-13-00-23,5,47,0.5271537483001364,right,probe,ambiguous-switch,-1,18,right,right,0.272
DEK2001WRNO,2020-02-03-13-00-23,5,48,0.5596762438110946,right,both,ambiguous-switch,62,18,right,left,0.396
DEK2001WRNO,2020-02-03-13-00-23,5,49,0.6109865832760556,left,probe,ambiguous-switch,-1,12,left,left,0.25
DEK2001WRNO,2020-02-03-13-00-23,5,50,0.6401446783639062,left,both,ambiguous-switch,61,12,left,left,0.158
DEK2001WRNO,2020-02-03-13-00-23,5,51,0.5626343127438971,right,probe,biased-switch,-1,-12,left,left,0.153
DEK2001WRNO,2020-02-03-13-00-23,5,52,0.5295930226450724,right,both,biased-switch,59,-12,left,left,0.106
DEK2001WRNO,2020-02-03-13-00-23,5,53,0.5670791776426837,right,probe,ambiguous-switch,-1,3,left,left,0.119
DEK2001WRNO,2020-02-03-13-00-23,5,54,0.6178813182810767,right,both,ambiguous-switch,55,3,left,left,0.077
DEK2001WRNO,2020-02-03-13-00-23,5,55,0.6215775148780038,left,probe,biased-switch,-1,-3,left,left,0.289
DEK2001WRNO,2020-02-03-13-00-23,5,56,0.5488034469865554,left,both,biased-switch,55,-3,left,left,0.924
DEK2001WRNO,2020-02-03-13-00-23,5,57,0.6162888653616782,right,probe,biased-switch,-1,-18,left,left,0.297
DEK2001WRNO,2020-02-03-13-00-23,5,58,0.6685849601076606,right,both,biased-switch,65,-18,left,left,0.226
DEK2001WRNO,2020-02-03-13-00-23,5,59,0.5704085767138176,left,probe,biased-switch,-1,18,left,left,0.224
DEK2001WRNO,2020-02-03-13-00-23,5,60,0.5225611967441355,left,both,biased-switch,65,18,left,left,0.242
DEK2001WRNO,2020-02-03-13-00-23,5,61,0.5258877887719312,left,probe,ambiguous-switch,-1,-3,left,left,0.21
DEK2001WRNO,2020-02-03-13-00-23,5,62,0.6845143480946078,left,both,ambiguous-switch,56,-3,left,left,0.149
DEK2001WRNO,2020-02-03-13-00-23,5,63,0.5697027566043192,left,probe,biased-switch,-1,6,left,left,0.209
DEK2001WRNO,2020-02-03-13-00-23,5,64,0.5955093605440344,left,both,biased-switch,57,6,left,right,0.203
DEK2001WRNO,2020-02-03-13-00-23,5,65,0.6910642774375791,right,probe,biased-switch,-1,12,left,left,0.187
DEK2001WRNO,2020-02-03-13-00-23,5,66,0.6651070316269022,right,both,biased-switch,59,12,left,right,0.296
DEK2001WRNO,2020-02-03-13-00-23,5,67,0.6019080934512404,left,probe,ambiguous-switch,-1,-18,left,left,0.255
DEK2001WRNO,2020-02-03-13-00-23,5,68,0.5248753098377613,left,both,ambiguous-switch,58,-18,left,left,0.35
DEK2001WRNO,2020-02-03-13-00-23,5,69,0.5309545771963918,left,probe,ambiguous-switch,-1,24,left,left,0.234
DEK2001WRNO,2020-02-03-13-00-23,5,70,0.63384571288798,left,both,ambiguous-switch,55,24,left,left,0.221
DEK2001WRNO,2020-02-03-13-00-23,5,71,0.5267196507606628,left,probe,ambiguous-switch,-1,0,left,left,0.215
DEK2001WRNO,2020-02-03-13-00-23,5,72,0.695026794959521,left,both,ambiguous-switch,63,0,left,left,0.201
DEK2001WRNO,2020-02-03-13-00-23,5,73,0.5084404570125994,left,probe,biased-switch,-1,3,left,left,0.338
DEK2001WRNO,2020-02-03-13-00-23,5,74,0.6152187537216858,left,both,biased-switch,63,3,left,right,0.251
DEK2001WRNO,2020-02-03-13-00-23,5,75,0.541475328100237,right,probe,biased-switch,-1,0,left,left,0.189
DEK2001WRNO,2020-02-03-13-00-23,5,76,0.5822014413540479,right,both,biased-switch,66,0,left,right,0.221
DEK2001WRNO,2020-02-03-13-00-23,5,77,0.6544794023853748,right,probe,ambiguous-switch,-1,-6,left,left,0.213
DEK2001WRNO,2020-02-03-13-00-23,5,78,0.6336109403101906,right,both,ambiguous-switch,54,-6,left,right,0.259
DEK2001WRNO,2020-02-03-13-00-23,5,79,0.5914800186854281,left,probe,biased-switch,-1,24,left,left,0.218
DEK2001WRNO,2020-02-03-13-00-23,5,80,0.5099549827710135,left,both,biased-switch,60,24,left,left,0.186
DEK2001WRNO,2020-02-03-13-00-23,6,1,0.5866314909785568,left,probe,ambiguous-switch,-1,-6,left,left,0.21
DEK2001WRNO,2020-02-03-13-00-23,6,2,0.6612459124670971,left,both,ambiguous-switch,66,-6,left,left,0.159
DEK2001WRNO,2020-02-03-13-00-23,6,3,0.6065821402237251,left,probe,biased-switch,-1,-3,left,left,0.21
DEK2001WRNO,2020-02-03-13-00-23,6,4,0.6074964685092129,left,both,biased-switch,57,-3,left,left,0.155
DEK2001WRNO,2020-02-03-13-00-23,6,5,0.6660626217865058,right,probe,biased-switch,-1,-12,left,left,0.174
DEK2001WRNO,2020-02-03-13-00-23,6,6,0.5562701181155256,right,both,biased-switch,56,-12,left,left,0.223
DEK2001WRNO,2020-02-03-13-00-23,6,7,0.5846034173950123,left,probe,ambiguous-switch,-1,-18,left,left,0.203
DEK2001WRNO,2020-02-03-13-00-23,6,8,0.5970029378375868,left,both,ambiguous-switch,65,-18,left,left,0.169
DEK2001WRNO,2020-02-03-13-00-23,6,9,0.5096625413053769,left,probe,ambiguous-switch,-1,12,left,left,0.228
DEK2001WRNO,2020-02-03-13-00-23,6,10,0.587740698724625,left,both,ambiguous-switch,60,12,left,left,0.259
DEK2001WRNO,2020-02-03-13-00-23,6,11,0.5092741204276802,right,probe,ambiguous-switch,-1,-12,left,left,0.262
DEK2001WRNO,2020-02-03-13-00-23,6,12,0.5949472189512297,right,both,ambiguous-switch,64,-12,left,left,0.1
DEK2001WRNO,2020-02-03-13-00-23,6,13,0.5092736773536146,left,probe,biased-switch,-1,-6,left,left,0.143
DEK2001WRNO,2020-02-03-13-00-23,6,14,0.6653786933346121,left,both,biased-switch,60,-6,left,left,0.079
DEK2001WRNO,2020-02-03-13-00-23,6,15,0.630404292584285,left,probe,ambiguous-switch,-1,0,left,left,0.232
DEK2001WRNO,2020-02-03-13-00-23,6,16,0.6661751798852332,left,both,ambiguous-switch,63,0,left,left,0.111
DEK2001WRNO,2020-02-03-13-00-23,6,17,0.6479805832639729,left,probe,ambiguous-switch,-1,3,left,left,0.208
DEK2001WRNO,2020-02-03-13-00-23,6,18,0.6454308169725774,left,both,ambiguous-switch,61,3,left,left,0.114
DEK2001WRNO,2020-02-03-13-00-23,6,19,0.6232613066220449,right,probe,biased-switch,-1,24,left,left,0.246
DEK2001WRNO,2020-02-03-13-00-23,6,20,0.6538376576984231,right,both,biased-switch,58,24,left,left,0.317
DEK2001WRNO,2020-02-03-13-00-23,6,21,0.6232599160008787,left,probe,biased-switch,-1,3,left,left,0.171
DEK2001WRNO,2020-02-03-13-00-23,6,22,0.5179387334856111,left,both,biased-switch,63,3,left,right,0.198
DEK2001WRNO,2020-02-03-13-00-23,6,23,0.6231174949025808,left,probe,biased-switch,-1,-18,left,left,0.196
DEK2001WRNO,2020-02-03-13-00-23,6,24,0.5012047890383059,left,both,biased-switch,55,-18,left,left,0.204
DEK2001WRNO,2020-02-03-13-00-23,6,25,0.5393085809884242,left,probe,biased-switch,-1,12,left,left,0.26
DEK2001WRNO,2020-02-03-13-00-23,6,26,0.541150881529076,left,both,biased-switch,57,12,left,right,0.226
DEK2001WRNO,2020-02-03-13-00-23,6,27,0.6544459422970925,left,probe,biased-switch,-1,18,right,right,0.341
DEK2001WRNO,2020-02-03-13-00-23,6,28,0.6487868420681215,left,both,biased-switch,59,18,right,left,0.196
DEK2001WRNO,2020-02-03-13-00-23,6,29,0.6444850017956076,left,probe,ambiguous-switch,-1,6,left,left,0.569
DEK2001WRNO,2020-02-03-13-00-23,6,30,0.5019236429053984,left,both,ambiguous-switch,55,6,left,right,0.385
DEK2001WRNO,2020-02-03-13-00-23,6,31,0.6365758555231873,right,probe,biased-switch,-1,6,right,right,0.248
DEK2001WRNO,2020-02-03-13-00-23,6,32,0.6569173310800339,right,both,biased-switch,66,6,right,right,0.226
DEK2001WRNO,2020-02-03-13-00-23,6,33,0.5696038629642067,right,probe,ambiguous-switch,-1,18,right,right,0.253
DEK2001WRNO,2020-02-03-13-00-23,6,34,0.5549512598938283,right,both,ambiguous-switch,56,18,right,right,0.312
DEK2001WRNO,2020-02-03-13-00-23,6,35,0.6360276325601981,left,probe,biased-switch,-1,0,right,right,0.598
DEK2001WRNO,2020-02-03-13-00-23,6,36,0.5287706470226846,left,both,biased-switch,66,0,right,left,0.288
DEK2001WRNO,2020-02-03-13-00-23,6,37,0.5364772523317431,right,probe,ambiguous-switch,-1,24,right,right,0.263
DEK2001WRNO,2020-02-03-13-00-23,6,38,0.5136051720738192,right,both,ambiguous-switch,64,24,right,right,0.767
DEK2001WRNO,2020-02-03-13-00-23,6,39,0.6254708717366002,left,probe,ambiguous-switch,-1,-3,right,right,0.396
DEK2001WRNO,2020-02-03-13-00-23,6,40,0.6919890547895673,left,both,ambiguous-switch,64,-3,right,right,0.285
DEK2001WRNO,2020-02-03-13-00-23,6,41,0.6836870701727573,right,probe,ambiguous-switch,-1,-6,right,right,0.198
DEK2001WRNO,2020-02-03-13-00-23,6,42,0.6176801762507991,right,both,ambiguous-switch,54,-6,right,right,0.267
DEK2001WRNO,2020-02-03-13-00-23,6,43,0.6995596559424632,right,probe,biased-switch,-1,-3,right,right,0.278
DEK2001WRNO,2020-02-03-13-00-23,6,44,0.5195674739183187,right,both,biased-switch,65,-3,right,right,0.617
DEK2001WRNO,2020-02-03-13-00-23,6,45,0.6893659686315694,left,probe,biased-switch,-1,-12,right,right,0.365
DEK2001WRNO,2020-02-03-13-00-23,6,46,0.6037632175587424,left,both,biased-switch,57,-12,right,right,0.279
DEK2001WRNO,2020-02-03-13-00-23,6,47,0.639926001239879,left,probe,ambiguous-switch,-1,-18,right,right,0.584
DEK2001WRNO,2020-02-03-13-00-23,6,48,0.6194039730832077,left,both,ambiguous-switch,57,-18,right,right,0.272
DEK2001WRNO,2020-02-03-13-00-23,6,49,0.6751854327764153,left,probe,ambiguous-switch,-1,12,right,right,0.286
DEK2001WRNO,2020-02-03-13-00-23,6,50,0.5088070851039036,left,both,ambiguous-switch,63,12,right,right,0.199
DEK2001WRNO,2020-02-03-13-00-23,6,51,0.5837007548265074,right,probe,ambiguous-switch,-1,-12,right,right,0.309
DEK2001WRNO,2020-02-03-13-00-23,6,52,0.697574487461095,right,both,ambiguous-switch,63,-12,right,right,0.293
DEK2001WRNO,2020-02-03-13-00-23,6,53,0.5610092554017391,right,probe,biased-switch,-1,-6,right,right,0.316
DEK2001WRNO,2020-02-03-13-00-23,6,54,0.5593340327669178,right,both,biased-switch,59,-6,right,right,0.267
DEK2001WRNO,2020-02-03-13-00-23,6,55,0.5652264799385078,left,probe,ambiguous-switch,-1,0,right,right,0.421
DEK2001WRNO,2020-02-03-13-00-23,6,56,0.5213982294777761,left,both,ambiguous-switch,64,0,right,right,0.229
DEK2001WRNO,2020-02-03-13-00-23,6,57,0.6145504622752046,right,probe,ambiguous-switch,-1,3,right,right,0.267
DEK2001WRNO,2020-02-03-13-00-23,6,58,0.5089623843493939,right,both,ambiguous-switch,64,3,right,left,0.206
DEK2001WRNO,2020-02-03-13-00-23,6,59,0.5723073393518978,left,probe,biased-switch,-1,24,right,right,0.298
DEK2001WRNO,2020-02-03-13-00-23,6,60,0.5825591829496882,left,both,biased-switch,60,24,right,left,0.22
DEK2001WRNO,2020-02-03-13-00-23,6,61,0.5824597552708931,right,probe,biased-switch,-1,3,right,right,0.275
DEK2001WRNO,2020-02-03-13-00-23,6,62,0.6444046648753138,right,both,biased-switch,60,3,right,left,0.228
DEK2001WRNO,2020-02-03-13-00-23,6,63,0.586457783263751,right,probe,biased-switch,-1,-18,left,left,0.203
DEK2001WRNO,2020-02-03-13-00-23,6,64,0.5727287554497016,right,both,biased-switch,55,-18,left,left,0.195
DEK2001WRNO,2020-02-03-13-00-23,6,65,0.5453303594557016,left,probe,biased-switch,-1,12,left,left,0.269
DEK2001WRNO,2020-02-03-13-00-23,6,66,0.5092660169601474,left,both,biased-switch,61,12,left,right,2.035
DEK2001WRNO,2020-02-03-13-00-23,6,67,0.5709815950366119,left,probe,biased-switch,-1,18,left,left,0.2
DEK2001WRNO,2020-02-03-13-00-23,6,68,0.5967880236598249,left,both,biased-switch,58,18,left,left,0.296
DEK2001WRNO,2020-02-03-13-00-23,6,69,0.54231808282349,left,probe,ambiguous-switch,-1,6,left,left,0.286
DEK2001WRNO,2020-02-03-13-00-23,6,70,0.5716172041711772,left,both,ambiguous-switch,55,6,left,left,0.133
DEK2001WRNO,2020-02-03-13-00-23,6,71,0.6244705296758362,left,probe,biased-switch,-1,6,left,left,0.233
DEK2001WRNO,2020-02-03-13-00-23,6,72,0.6929447458069039,left,both,biased-switch,59,6,left,right,0.19
DEK2001WRNO,2020-02-03-13-00-23,6,73,0.5554466319406116,right,probe,ambiguous-switch,-1,18,left,left,0.215
DEK2001WRNO,2020-02-03-13-00-23,6,74,0.6618555926597935,right,both,ambiguous-switch,59,18,left,left,0.237
DEK2001WRNO,2020-02-03-13-00-23,6,75,0.5843238080993066,right,probe,biased-switch,-1,0,left,left,0.237
DEK2001WRNO,2020-02-03-13-00-23,6,76,0.6361813467037529,right,both,biased-switch,56,0,left,right,0.235
DEK2001WRNO,2020-02-03-13-00-23,6,77,0.6965196467239765,left,probe,ambiguous-switch,-1,24,left,left,0.141
DEK2001WRNO,2020-02-03-13-00-23,6,78,0.5894109238925193,left,both,ambiguous-switch,65,24,left,left,0.202
DEK2001WRNO,2020-02-03-13-00-23,6,79,0.6210327043545978,right,probe,ambiguous-switch,-1,-3,left,left,0.007
DEK2001WRNO,2020-02-03-13-00-23,6,80,0.6684131819529594,right,both,ambiguous-switch,66,-3,left,left,0.167
DEK2001WRNO,2020-02-03-13-00-23,7,1,0.6791181633032393,right,probe,ambiguous-switch,-1,3,left,left,0.252
DEK2001WRNO,2020-02-03-13-00-23,7,2,0.5653352947696261,right,both,ambiguous-switch,62,3,left,left,0.186
DEK2001WRNO,2020-02-03-13-00-23,7,3,0.5221886578446621,right,probe,ambiguous-switch,-1,-18,left,left,0.22
DEK2001WRNO,2020-02-03-13-00-23,7,4,0.5131227968026864,right,both,ambiguous-switch,62,-18,left,left,0.315
DEK2001WRNO,2020-02-03-13-00-23,7,5,0.5821108606442065,left,probe,ambiguous-switch,-1,6,left,left,0.189
DEK2001WRNO,2020-02-03-13-00-23,7,6,0.5249772688352438,left,both,ambiguous-switch,64,6,left,left,2.951
DEK2001WRNO,2020-02-03-13-00-23,7,7,0.5805055449691567,left,probe,biased-switch,-1,12,left,left,0.359
DEK2001WRNO,2020-02-03-13-00-23,7,8,0.670272315937908,left,both,biased-switch,59,12,left,left,0.176
DEK2001WRNO,2020-02-03-13-00-23,7,9,0.6758529543726101,right,probe,ambiguous-switch,-1,18,left,left,0.161
DEK2001WRNO,2020-02-03-13-00-23,7,10,0.6825859424657763,right,both,ambiguous-switch,55,18,left,left,0.186
DEK2001WRNO,2020-02-03-13-00-23,7,11,0.6723723006736146,left,probe,biased-switch,-1,24,left,left,0.168
DEK2001WRNO,2020-02-03-13-00-23,7,12,0.6640901456454706,left,both,biased-switch,63,24,left,left,0.18
DEK2001WRNO,2020-02-03-13-00-23,7,13,0.6829274487696988,right,probe,biased-switch,-1,6,left,left,0.113
DEK2001WRNO,2020-02-03-13-00-23,7,14,0.6929957873312219,right,both,biased-switch,59,6,left,right,0.237
DEK2001WRNO,2020-02-03-13-00-23,7,15,0.6084786769001624,right,probe,biased-switch,-1,-6,left,left,0.19
DEK2001WRNO,2020-02-03-13-00-23,7,16,0.5391448873076701,right,both,biased-switch,59,-6,left,right,0.27
DEK2001WRNO,2020-02-03-13-00-23,7,17,0.5704718172118158,right,probe,biased-switch,-1,0,right,right,0.139
DEK2001WRNO,2020-02-03-13-00-23,7,18,0.5607567943443548,right,both,biased-switch,60,0,right,left,0.06
DEK2001WRNO,2020-02-03-13-00-23,7,19,0.6575296933621704,left,probe,ambiguous-switch,-1,0,right,right,0.049
DEK2001WRNO,2020-02-03-13-00-23,7,20,0.561588948815483,left,both,ambiguous-switch,56,0,right,right,0.234
DEK2001WRNO,2020-02-03-13-00-23,7,21,0.637058560303466,left,probe,ambiguous-switch,-1,-3,right,right,0.225
DEK2001WRNO,2020-02-03-13-00-23,7,22,0.6876805605248786,left,both,ambiguous-switch,56,-3,right,right,0.24
DEK2001WRNO,2020-02-03-13-00-23,7,23,0.5436118391757842,right,probe,biased-switch,-1,-12,right,right,0.244
DEK2001WRNO,2020-02-03-13-00-23,7,24,0.6168015485325288,right,both,biased-switch,54,-12,right,right,0.203
DEK2001WRNO,2020-02-03-13-00-23,7,25,0.6897839919031317,left,probe,biased-switch,-1,3,right,right,0.244
DEK2001WRNO,2020-02-03-13-00-23,7,26,0.5994338767780527,left,both,biased-switch,64,3,right,right,0.158
DEK2001WRNO,2020-02-03-13-00-23,7,27,0.5086540042333669,left,probe,biased-switch,-1,18,right,right,0.255
DEK2001WRNO,2020-02-03-13-00-23,7,28,0.5425075262240782,left,both,biased-switch,58,18,right,right,0.213
DEK2001WRNO,2020-02-03-13-00-23,7,29,0.6173048152441548,right,probe,ambiguous-switch,-1,-6,right,right,0.212
DEK2001WRNO,2020-02-03-13-00-23,7,30,0.5461527127177144,right,both,ambiguous-switch,55,-6,right,right,0.167
DEK2001WRNO,2020-02-03-13-00-23,7,31,0.5764587552168546,right,probe,biased-switch,-1,-18,right,right,0.22
DEK2001WRNO,2020-02-03-13-00-23,7,32,0.5069668061228525,right,both,biased-switch,55,-18,right,right,0.205
DEK2001WRNO,2020-02-03-13-00-23,7,33,0.6517513592434604,left,probe,biased-switch,-1,-3,right,right,0.225
DEK2001WRNO,2020-02-03-13-00-23,7,34,0.5267621487375929,left,both,biased-switch,57,-3,right,right,0.159
DEK2001WRNO,2020-02-03-13-00-23,7,35,0.6079136870420225,left,probe,ambiguous-switch,-1,-12,right,right,0.444
DEK2001WRNO,2020-02-03-13-00-23,7,36,0.6874543741243464,left,both,ambiguous-switch,62,-12,right,right,0.22
DEK2001WRNO,2020-02-03-13-00-23,7,37,0.5924984080320737,right,probe,ambiguous-switch,-1,24,right,right,0.226
DEK2001WRNO,2020-02-03-13-00-23,7,38,0.6623267908823208,right,both,ambiguous-switch,62,24,right,right,0.042
DEK2001WRNO,2020-02-03-13-00-23,7,39,0.6199078568132166,left,probe,ambiguous-switch,-1,12,right,right,0.236
DEK2001WRNO,2020-02-03-13-00-23,7,40,0.6677037970079538,left,both,ambiguous-switch,57,12,right,right,0.198
DEK2001WRNO,2020-02-03-13-00-23,7,41,0.5401852793534109,right,probe,ambiguous-switch,-1,3,right,right,0.361
DEK2001WRNO,2020-02-03-13-00-23,7,42,0.6261761995979693,right,both,ambiguous-switch,63,3,right,right,0.266
DEK2001WRNO,2020-02-03-13-00-23,7,43,0.5990957504876001,left,probe,ambiguous-switch,-1,-18,right,right,0.301
DEK2001WRNO,2020-02-03-13-00-23,7,44,0.5721036686077422,left,both,ambiguous-switch,66,-18,right,right,0.276
DEK2001WRNO,2020-02-03-13-00-23,7,45,0.5089940474700402,left,probe,ambiguous-switch,-1,6,right,right,0.227
DEK2001WRNO,2020-02-03-13-00-23,7,46,0.5057302489834276,left,both,ambiguous-switch,55,6,right,left,0.187
DEK2001WRNO,2020-02-03-13-00-23,7,47,0.5124368967086165,left,probe,biased-switch,-1,12,left,left,0.071
DEK2001WRNO,2020-02-03-13-00-23,7,48,0.50088348098286,left,both,biased-switch,61,12,left,right,0.22
DEK2001WRNO,2020-02-03-13-00-23,7,49,0.684445847704197,left,probe,ambiguous-switch,-1,18,right,right,0.276
DEK2001WRNO,2020-02-03-13-00-23,7,50,0.6404185273102974,left,both,ambiguous-switch,54,18,right,right,0.295
DEK2001WRNO,2020-02-03-13-00-23,7,51,0.5679988395640551,right,probe,biased-switch,-1,24,right,right,0.238
DEK2001WRNO,2020-02-03-13-00-23,7,52,0.6595584661878724,right,both,biased-switch,60,24,right,right,0.023
DEK2001WRNO,2020-02-03-13-00-23,7,53,0.6615016893185597,right,probe,biased-switch,-1,6,right,right,0.202
DEK2001WRNO,2020-02-03-13-00-23,7,54,0.6278330134841192,right,both,biased-switch,57,6,right,right,1.091
DEK2001WRNO,2020-02-03-13-00-23,7,55,0.6300740521046124,right,probe,biased-switch,-1,-6,right,right,0.265
DEK2001WRNO,2020-02-03-13-00-23,7,56,0.5750036382847907,right,both,biased-switch,63,-6,right,right,0.219
DEK2001WRNO,2020-02-03-13-00-23,7,57,0.6254686144082164,right,probe,biased-switch,-1,0,right,right,0.159
DEK2001WRNO,2020-02-03-13-00-23,7,58,0.6726562672224404,right,both,biased-switch,57,0,right,right,0.24
DEK2001WRNO,2020-02-03-13-00-23,7,59,0.5816440841389422,left,probe,ambiguous-switch,-1,0,right,right,0.213
DEK2001WRNO,2020-02-03-13-00-23,7,60,0.6537198448932005,left,both,ambiguous-switch,65,0,right,right,0.079
DEK2001WRNO,2020-02-03-13-00-23,7,61,0.6400073133530797,right,probe,ambiguous-switch,-1,-3,right,right,5.745
DEK2001WRNO,2020-02-03-13-00-23,7,62,0.6302844120207844,right,both,ambiguous-switch,63,-3,right,right,0.234
DEK2001WRNO,2020-02-03-13-00-23,7,63,0.5105514715748357,left,probe,biased-switch,-1,-12,right,right,0.284
DEK2001WRNO,2020-02-03-13-00-23,7,64,0.5884403825871211,left,both,biased-switch,63,-12,right,right,0.181
DEK2001WRNO,2020-02-03-13-00-23,7,65,0.5124453589671855,right,probe,biased-switch,-1,3,right,right,0.357
DEK2001WRNO,2020-02-03-13-00-23,7,66,0.6366380581501893,right,both,biased-switch,60,3,right,right,0.899
DEK2001WRNO,2020-02-03-13-00-23,7,67,0.5134652932094439,left,probe,biased-switch,-1,18,right,right,0.226
DEK2001WRNO,2020-02-03-13-00-23,7,68,0.5778012772816985,left,both,biased-switch,61,18,right,right,0.279
DEK2001WRNO,2020-02-03-13-00-23,7,69,0.693878466987959,left,probe,ambiguous-switch,-1,-6,right,right,0.209
DEK2001WRNO,2020-02-03-13-00-23,7,70,0.6690715709037867,left,both,ambiguous-switch,58,-6,right,right,0.234
DEK2001WRNO,2020-02-03-13-00-23,7,71,0.6749651108536133,left,probe,biased-switch,-1,-18,right,right,0.392
DEK2001WRNO,2020-02-03-13-00-23,7,72,0.5678133820697526,left,both,biased-switch,56,-18,right,right,0.238
DEK2001WRNO,2020-02-03-13-00-23,7,73,0.5654748420142278,left,probe,biased-switch,-1,-3,right,right,0.218
DEK2001WRNO,2020-02-03-13-00-23,7,74,0.6670257955927796,left,both,biased-switch,60,-3,right,right,0.256
DEK2001WRNO,2020-02-03-13-00-23,7,75,0.521320795256055,left,probe,ambiguous-switch,-1,-12,right,right,0.167
DEK2001WRNO,2020-02-03-13-00-23,7,76,0.5208695528066497,left,both,ambiguous-switch,65,-12,right,right,0.234
DEK2001WRNO,2020-02-03-13-00-23,7,77,0.5843291476856396,right,probe,ambiguous-switch,-1,24,right,right,0.31
DEK2001WRNO,2020-02-03-13-00-23,7,78,0.5100957809492451,right,both,ambiguous-switch,59,24,right,right,0.274
DEK2001WRNO,2020-02-03-13-00-23,7,79,0.6186229739451483,right,probe,ambiguous-switch,-1,12,right,right,0.361
DEK2001WRNO,2020-02-03-13-00-23,7,80,0.6082197301852235,right,both,ambiguous-switch,60,12,right,right,0.041
DEK2001WRNO,2020-02-03-13-00-23,8,1,0.6771939780373496,right,probe,ambiguous-switch,-1,0,right,right,0.218
DEK2001WRNO,2020-02-03-13-00-23,8,2,0.624796638897254,right,both,ambiguous-switch,59,0,right,right,0.266
DEK2001WRNO,2020-02-03-13-00-23,8,3,0.5649106136686122,right,probe,ambiguous-switch,-1,3,right,right,0.078
DEK2001WRNO,2020-02-03-13-00-23,8,4,0.5367508914814493,right,both,ambiguous-switch,65,3,right,right,0.199
DEK2001WRNO,2020-02-03-13-00-23,8,5,0.6682356674818607,left,probe,ambiguous-switch,-1,-6,right,right,0.236
DEK2001WRNO,2020-02-03-13-00-23,8,6,0.6602471794848149,left,both,ambiguous-switch,55,-6,right,right,0.15
DEK2001WRNO,2020-02-03-13-00-23,8,7,0.5501493077321489,left,probe,biased-switch,-1,3,right,right,0.749
DEK2001WRNO,2020-02-03-13-00-23,8,8,0.5092633356799107,left,both,biased-switch,65,3,right,right,0.264
DEK2001WRNO,2020-02-03-13-00-23,8,9,0.5645485616522513,right,probe,biased-switch,-1,-18,right,right,0.185
DEK2001WRNO,2020-02-03-13-00-23,8,10,0.6552197960928161,right,both,biased-switch,63,-18,right,right,0.24
DEK2001WRNO,2020-02-03-13-00-23,8,11,0.6909585075069421,right,probe,ambiguous-switch,-1,-12,right,right,0.099
DEK2001WRNO,2020-02-03-13-00-23,8,12,0.6436428090564019,right,both,ambiguous-switch,64,-12,right,right,0.283
DEK2001WRNO,2020-02-03-13-00-23,8,13,0.5611324340539025,right,probe,ambiguous-switch,-1,-18,right,right,0.145
DEK2001WRNO,2020-02-03-13-00-23,8,14,0.5422372668969544,right,both,ambiguous-switch,56,-18,right,right,0.079
DEK2001WRNO,2020-02-03-13-00-23,8,15,0.5583663048736596,left,probe,ambiguous-switch,-1,18,right,right,0.242
DEK2001WRNO,2020-02-03-13-00-23,8,16,0.6601450731488886,left,both,ambiguous-switch,58,18,right,right,0.167
DEK2001WRNO,2020-02-03-13-00-23,8,17,0.5625217640280314,right,probe,biased-switch,-1,0,right,right,0.299
DEK2001WRNO,2020-02-03-13-00-23,8,18,0.5030932330991635,right,both,biased-switch,57,0,right,left,0.521
DEK2001WRNO,2020-02-03-13-00-23,8,19,0.5024420088938286,right,probe,biased-switch,-1,6,left,left,0.272
DEK2001WRNO,2020-02-03-13-00-23,8,20,0.6922644627976768,right,both,biased-switch,56,6,left,right,0.281
DEK2001WRNO,2020-02-03-13-00-23,8,21,0.6070960555985266,left,probe,biased-switch,-1,-6,right,right,0.295
DEK2001WRNO,2020-02-03-13-00-23,8,22,0.6626521755235263,left,both,biased-switch,63,-6,right,right,0.158
DEK2001WRNO,2020-02-03-13-00-23,8,23,0.5628303707890898,right,probe,biased-switch,-1,18,right,right,0.192
DEK2001WRNO,2020-02-03-13-00-23,8,24,0.6229913861257079,right,both,biased-switch,58,18,right,right,0.136
DEK2001WRNO,2020-02-03-13-00-23,8,25,0.6206296279091345,left,probe,ambiguous-switch,-1,-3,right,right,0.061
DEK2001WRNO,2020-02-03-13-00-23,8,26,0.5704191903289526,left,both,ambiguous-switch,64,-3,right,right,0.245
DEK2001WRNO,2020-02-03-13-00-23,8,27,0.5639770718598464,right,probe,biased-switch,-1,12,left,left,0.264
DEK2001WRNO,2020-02-03-13-00-23,8,28,0.6037609763412827,right,both,biased-switch,54,12,left,right,0.116
DEK2001WRNO,2020-02-03-13-00-23,8,29,0.5647375412236718,left,probe,ambiguous-switch,-1,6,right,right,0.263
DEK2001WRNO,2020-02-03-13-00-23,8,30,0.5195339354742026,left,both,ambiguous-switch,60,6,right,right,0.181
DEK2001WRNO,2020-02-03-13-00-23,8,31,0.6941463726671377,left,probe,ambiguous-switch,-1,24,right,right,0.269
DEK2001WRNO,2020-02-03-13-00-23,8,32,0.6513115331833597,left,both,ambiguous-switch,58,24,right,right,0.158
DEK2001WRNO,2020-02-03-13-00-23,8,33,0.5172248953361642,right,probe,biased-switch,-1,24,right,right,0.255
DEK2001WRNO,2020-02-03-13-00-23,8,34,0.595334933176536,right,both,biased-switch,59,24,right,right,0.323
DEK2001WRNO,2020-02-03-13-00-23,8,35,0.6385923874086655,right,probe,biased-switch,-1,-3,right,right,0.308
DEK2001WRNO,2020-02-03-13-00-23,8,36,0.6034967457312349,right,both,biased-switch,59,-3,right,left,0.271
DEK2001WRNO,2020-02-03-13-00-23,8,37,0.5270840302834927,right,probe,biased-switch,-1,-12,left,left,0.42
DEK2001WRNO,2020-02-03-13-00-23,8,38,0.6081780832367008,right,both,biased-switch,54,-12,left,left,0.033
DEK2001WRNO,2020-02-03-13-00-23,8,39,0.5708687651303799,right,probe,ambiguous-switch,-1,12,left,left,0.228
DEK2001WRNO,2020-02-03-13-00-23,8,40,0.5911853262377617,right,both,ambiguous-switch,64,12,left,left,0.277
DEK2001WRNO,2020-02-03-13-00-23,8,41,0.6196492034233059,right,probe,ambiguous-switch,-1,0,left,left,0.232
DEK2001WRNO,2020-02-03-13-00-23,8,42,0.6206162703616741,right,both,ambiguous-switch,55,0,left,left,0.192
DEK2001WRNO,2020-02-03-13-00-23,8,43,0.5384767639362521,left,probe,ambiguous-switch,-1,3,left,left,0.425
DEK2001WRNO,2020-02-03-13-00-23,8,44,0.5693599995494608,left,both,ambiguous-switch,59,3,left,right,0.349
DEK2001WRNO,2020-02-03-13-00-23,8,45,0.5866988232536009,right,probe,ambiguous-switch,-1,-6,left,left,0.372
DEK2001WRNO,2020-02-03-13-00-23,8,46,0.6128186646116546,right,both,ambiguous-switch,55,-6,left,left,0.315
DEK2001WRNO,2020-02-03-13-00-23,8,47,0.5693074489773627,left,probe,biased-switch,-1,3,left,left,0.393
DEK2001WRNO,2020-02-03-13-00-23,8,48,0.5793751510932197,left,both,biased-switch,63,3,left,left,0.572
DEK2001WRNO,2020-02-03-13-00-23,8,49,0.6531903140645626,right,probe,biased-switch,-1,-18,left,left,0.268
DEK2001WRNO,2020-02-03-13-00-23,8,50,0.5139088262849899,right,both,biased-switch,59,-18,left,left,0.173
DEK2001WRNO,2020-02-03-13-00-23,8,51,0.5853162209560673,right,probe,ambiguous-switch,-1,-12,left,left,0.202
DEK2001WRNO,2020-02-03-13-00-23,8,52,0.5976681758305384,right,both,ambiguous-switch,54,-12,left,left,0.637
DEK2001WRNO,2020-02-03-13-00-23,8,53,0.6956974456824723,left,probe,ambiguous-switch,-1,-18,left,left,0.265
DEK2001WRNO,2020-02-03-13-00-23,8,54,0.6214760317635629,left,both,ambiguous-switch,58,-18,left,left,0.221
DEK2001WRNO,2020-02-03-13-00-23,8,55,0.5594776826097989,left,probe,ambiguous-switch,-1,18,left,left,0.217
DEK2001WRNO,2020-02-03-13-00-23,8,56,0.6059214656962594,left,both,ambiguous-switch,63,18,left,left,0.217
DEK2001WRNO,2020-02-03-13-00-23,8,57,0.5389891345214649,left,probe,biased-switch,-1,0,left,left,0.358
DEK2001WRNO,2020-02-03-13-00-23,8,58,0.6728433598241972,left,both,biased-switch,55,0,left,left,0.219
DEK2001WRNO,2020-02-03-13-00-23,8,59,0.5492181144678654,left,probe,biased-switch,-1,6,left,left,0.147
DEK2001WRNO,2020-02-03-13-00-23,8,60,0.6488152107132038,left,both,biased-switch,61,6,left,right,0.255
DEK2001WRNO,2020-02-03-13-00-23,8,61,0.5210542461061887,right,probe,biased-switch,-1,-6,left,left,0.21
DEK2001WRNO,2020-02-03-13-00-23,8,62,0.5690226193914723,right,both,biased-switch,61,-6,left,left,0.221
DEK2001WRNO,2020-02-03-13-00-23,8,63,0.6669220291721348,left,probe,biased-switch,-1,18,left,left,0.249
DEK2001WRNO,2020-02-03-13-00-23,8,64,0.6427567237583036,left,both,biased-switch,65,18,left,left,0.221
DEK2001WRNO,2020-02-03-13-00-23,8,65,0.677301760430337,left,probe,ambiguous-switch,-1,-3,left,left,0.201
DEK2001WRNO,2020-02-03-13-00-23,8,66,0.6615034410328402,left,both,ambiguous-switch,55,-3,left,left,0.22
DEK2001WRNO,2020-02-03-13-00-23,8,67,0.6029401687689218,left,probe,biased-switch,-1,12,left,left,0.216
DEK2001WRNO,2020-02-03-13-00-23,8,68,0.5143580189838539,left,both,biased-switch,61,12,left,right,0.2
DEK2001WRNO,2020-02-03-13-00-23,8,69,0.5175515196842027,left,probe,ambiguous-switch,-1,6,left,left,0.512
DEK2001WRNO,2020-02-03-13-00-23,8,70,0.5870597918070412,left,both,ambiguous-switch,65,6,left,left,0.182
DEK2001WRNO,2020-02-03-13-00-23,8,71,0.6463507883515763,left,probe,ambiguous-switch,-1,24,left,left,0.217
DEK2001WRNO,2020-02-03-13-00-23,8,72,0.503590674846044,left,both,ambiguous-switch,54,24,left,left,0.243
DEK2001WRNO,2020-02-03-13-00-23,8,73,0.5000921444577242,left,probe,biased-switch,-1,24,left,left,0.32
DEK2001WRNO,2020-02-03-13-00-23,8,74,0.6012010066644794,left,both,biased-switch,60,24,left,left,0.22
DEK2001WRNO,2020-02-03-13-00-23,8,75,0.6453566752861966,left,probe,biased-switch,-1,-3,left,left,0.378
DEK2001WRNO,2020-02-03-13-00-23,8,76,0.6573166642926348,left,both,biased-switch,56,-3,left,right,0.531
DEK2001WRNO,2020-02-03-13-00-23,8,77,0.6123863069628113,left,probe,biased-switch,-1,-12,left,left,0.963
DEK2001WRNO,2020-02-03-13-00-23,8,78,0.5365846519280961,left,both,biased-switch,60,-12,left,left,0.245
DEK2001WRNO,2020-02-03-13-00-23,8,79,0.6803307318446834,right,probe,ambiguous-switch,-1,12,left,left,0.47
DEK2001WRNO,2020-02-03-13-00-23,8,80,0.5950031382130339,right,both,ambiguous-switch,63,12,left,left,0.295
DEK2001WRNO,2020-02-03-13-00-23,9,1,0.6587678614426016,right,probe,ambiguous-switch,-1,-3,left,left,0.244
DEK2001WRNO,2020-02-03-13-00-23,9,2,0.6680943885626971,right,both,ambiguous-switch,56,-3,left,left,0.472
DEK2001WRNO,2020-02-03-13-00-23,9,3,0.5842117765023505,right,probe,ambiguous-switch,-1,-6,left,left,0.634
DEK2001WRNO,2020-02-03-13-00-23,9,4,0.5989518495886118,right,both,ambiguous-switch,54,-6,left,left,0.817
DEK2001WRNO,2020-02-03-13-00-23,9,5,0.5428557963036367,right,probe,ambiguous-switch,-1,0,left,left,1.134
DEK2001WRNO,2020-02-03-13-00-23,9,6,0.5504247499762334,right,both,ambiguous-switch,62,0,left,right,0.257
DEK2001WRNO,2020-02-03-13-00-23,9,7,0.5769763771625691,right,probe,biased-switch,-1,3,left,left,0.316
DEK2001WRNO,2020-02-03-13-00-23,9,8,0.6832325975915927,right,both,biased-switch,64,3,left,right,0.32
DEK2001WRNO,2020-02-03-13-00-23,9,9,0.5659350473710782,right,probe,biased-switch,-1,12,right,right,0.33
DEK2001WRNO,2020-02-03-13-00-23,9,10,0.6898843912132565,right,both,biased-switch,55,12,right,left,0.241
DEK2001WRNO,2020-02-03-13-00-23,9,11,0.5838652161819089,left,probe,biased-switch,-1,-6,right,right,3.006
DEK2001WRNO,2020-02-03-13-00-23,9,12,0.6853329348174748,left,both,biased-switch,62,-6,right,right,0.207
DEK2001WRNO,2020-02-03-13-00-23,9,13,0.5941673040023459,right,probe,biased-switch,-1,-18,right,right,0.299
DEK2001WRNO,2020-02-03-13-00-23,9,14,0.6603596372580648,right,both,biased-switch,57,-18,right,right,0.768
DEK2001WRNO,2020-02-03-13-00-23,9,15,0.64273009761278,left,probe,ambiguous-switch,-1,-18,right,right,0.285
DEK2001WRNO,2020-02-03-13-00-23,9,16,0.6344634568730175,left,both,ambiguous-switch,56,-18,right,right,0.104
DEK2001WRNO,2020-02-03-13-00-23,9,17,0.5358069411451652,left,probe,ambiguous-switch,-1,18,right,right,0.233
DEK2001WRNO,2020-02-03-13-00-23,9,18,0.5250766698374906,left,both,ambiguous-switch,55,18,right,right,0.328
DEK2001WRNO,2020-02-03-13-00-23,9,19,0.68176144729217,left,probe,ambiguous-switch,-1,-12,right,right,0.194
DEK2001WRNO,2020-02-03-13-00-23,9,20,0.5669850804724429,left,both,ambiguous-switch,60,-12,right,right,0.24
DEK2001WRNO,2020-02-03-13-00-23,9,21,0.5890256851085194,right,probe,biased-switch,-1,18,right,right,0.169
DEK2001WRNO,2020-02-03-13-00-23,9,22,0.5065937691234665,right,both,biased-switch,57,18,right,right,0.302
DEK2001WRNO,2020-02-03-13-00-23,9,23,0.6649983463072515,left,probe,biased-switch,-1,0,right,right,0.47
DEK2001WRNO,2020-02-03-13-00-23,9,24,0.6669096615162039,left,both,biased-switch,60,0,right,left,0.471
DEK2001WRNO,2020-02-03-13-00-23,9,25,0.5792811888813371,right,probe,ambiguous-switch,-1,24,right,right,0.478
DEK2001WRNO,2020-02-03-13-00-23,9,26,0.6160947038334226,right,both,ambiguous-switch,62,24,right,right,0.205
DEK2001WRNO,2020-02-03-13-00-23,9,27,0.613744042285264,left,probe,biased-switch,-1,6,right,right,0.266
DEK2001WRNO,2020-02-03-13-00-23,9,28,0.5473652629920464,left,both,biased-switch,63,6,right,left,0.621
DEK2001WRNO,2020-02-03-13-00-23,9,29,0.504341827734817,left,probe,biased-switch,-1,24,right,right,0.978
DEK2001WRNO,2020-02-03-13-00-23,9,30,0.6080805924253028,left,both,biased-switch,56,24,right,right,0.238
DEK2001WRNO,2020-02-03-13-00-23,9,31,0.5580240365302551,left,probe,biased-switch,-1,-12,left,left,0.205
DEK2001WRNO,2020-02-03-13-00-23,9,32,0.6175922418078688,left,both,biased-switch,63,-12,left,left,1.046
DEK2001WRNO,2020-02-03-13-00-23,9,33,0.6112405156841443,right,probe,biased-switch,-1,-3,left,left,0.056
DEK2001WRNO,2020-02-03-13-00-23,9,34,0.6494587158697646,right,both,biased-switch,65,-3,left,left,0.331
DEK2001WRNO,2020-02-03-13-00-23,9,35,0.512910842343199,right,probe,ambiguous-switch,-1,6,left,left,0.122
DEK2001WRNO,2020-02-03-13-00-23,9,36,0.5219911476146302,right,both,ambiguous-switch,66,6,left,left,0.238
DEK2001WRNO,2020-02-03-13-00-23,9,37,0.5276236221478275,left,probe,ambiguous-switch,-1,3,right,right,0.283
DEK2001WRNO,2020-02-03-13-00-23,9,38,0.5573694693206745,left,both,ambiguous-switch,63,3,right,right,0.233
DEK2001WRNO,2020-02-03-13-00-23,9,39,0.5657080851449471,left,probe,ambiguous-switch,-1,12,right,right,0.21
DEK2001WRNO,2020-02-03-13-00-23,9,40,0.5322171134641769,left,both,ambiguous-switch,58,12,right,right,0.198
DEK2001WRNO,2020-02-03-13-00-23,9,41,0.664331865515036,right,probe,ambiguous-switch,-1,-3,right,right,0.391
DEK2001WRNO,2020-02-03-13-00-23,9,42,0.5782756959538262,right,both,ambiguous-switch,59,-3,right,right,0.322
DEK2001WRNO,2020-02-03-13-00-23,9,43,0.6325140212086149,right,probe,ambiguous-switch,-1,-6,right,right,0.273
DEK2001WRNO,2020-02-03-13-00-23,9,44,0.5232369310762962,right,both,ambiguous-switch,64,-6,right,right,0.56
DEK2001WRNO,2020-02-03-13-00-23,9,45,0.6818899664169319,right,probe,ambiguous-switch,-1,0,right,right,0.32
DEK2001WRNO,2020-02-03-13-00-23,9,46,0.6876963311426728,right,both,ambiguous-switch,65,0,right,right,0.254
DEK2001WRNO,2020-02-03-13-00-23,9,47,0.5399096790739536,left,probe,biased-switch,-1,3,right,right,0.841
DEK2001WRNO,2020-02-03-13-00-23,9,48,0.5241952699491013,left,both,biased-switch,61,3,right,left,0.213
DEK2001WRNO,2020-02-03-13-00-23,9,49,0.6110136727043866,left,probe,biased-switch,-1,12,left,left,0.259
DEK2001WRNO,2020-02-03-13-00-23,9,50,0.5665629444850289,left,both,biased-switch,55,12,left,right,0.205
DEK2001WRNO,2020-02-03-13-00-23,9,51,0.6414790286477864,left,probe,biased-switch,-1,-6,right,right,0.275
DEK2001WRNO,2020-02-03-13-00-23,9,52,0.6306032524442365,left,both,biased-switch,63,-6,right,right,0.324
DEK2001WRNO,2020-02-03-13-00-23,9,53,0.5995822123819455,left,probe,biased-switch,-1,-18,right,right,0.364
DEK2001WRNO,2020-02-03-13-00-23,9,54,0.5608107751827188,left,both,biased-switch,60,-18,right,right,0.186
DEK2001WRNO,2020-02-03-13-00-23,9,55,0.6890055377747529,left,probe,ambiguous-switch,-1,-18,right,right,0.218
DEK2001WRNO,2020-02-03-13-00-23,9,56,0.5519447816905003,left,both,ambiguous-switch,64,-18,right,right,0.183
DEK2001WRNO,2020-02-03-13-00-23,9,57,0.5444358365342277,right,probe,ambiguous-switch,-1,18,right,right,0.332
DEK2001WRNO,2020-02-03-13-00-23,9,58,0.5404962096544014,right,both,ambiguous-switch,57,18,right,left,0.299
DEK2001WRNO,2020-02-03-13-00-23,9,59,0.6375191575583462,right,probe,ambiguous-switch,-1,-12,left,left,0.339
DEK2001WRNO,2020-02-03-13-00-23,9,60,0.6198529353116545,right,both,ambiguous-switch,63,-12,left,left,0.273
DEK2001WRNO,2020-02-03-13-00-23,9,61,0.6600039236770026,left,probe,biased-switch,-1,18,right,right,0.192
DEK2001WRNO,2020-02-03-13-00-23,9,62,0.5620992267078386,left,both,biased-switch,55,18,right,right,0.229
DEK2001WRNO,2020-02-03-13-00-23,9,63,0.6827117033334752,right,probe,biased-switch,-1,0,left,left,0.214
DEK2001WRNO,2020-02-03-13-00-23,9,64,0.6728533909773091,right,both,biased-switch,64,0,left,right,0.304
DEK2001WRNO,2020-02-03-13-00-23,9,65,0.6563753664951835,right,probe,ambiguous-switch,-1,24,right,right,0.358
DEK2001WRNO,2020-02-03-13-00-23,9,66,0.5634488307939672,right,both,ambiguous-switch,58,24,right,right,0.678
DEK2001WRNO,2020-02-03-13-00-23,9,67,0.5735886915034839,right,probe,biased-switch,-1,6,right,right,0.385
DEK2001WRNO,2020-02-03-13-00-23,9,68,0.6865595373423709,right,both,biased-switch,56,6,right,left,0.326
DEK2001WRNO,2020-02-03-13-00-23,9,69,0.5494824117031593,right,probe,biased-switch,-1,24,right,right,0.475
DEK2001WRNO,2020-02-03-13-00-23,9,70,0.5095181703456223,right,both,biased-switch,57,24,right,right,0.358
DEK2001WRNO,2020-02-03-13-00-23,9,71,0.6843788196185235,left,probe,biased-switch,-1,-12,right,right,0.475
DEK2001WRNO,2020-02-03-13-00-23,9,72,0.5449822396082277,left,both,biased-switch,61,-12,right,right,0.306
DEK2001WRNO,2020-02-03-13-00-23,9,73,0.6232138975711792,right,probe,biased-switch,-1,-3,right,right,0.301
DEK2001WRNO,2020-02-03-13-00-23,9,74,0.6108161153492451,right,both,biased-switch,55,-3,right,left,0.181
DEK2001WRNO,2020-02-03-13-00-23,9,75,0.5053171083191159,left,probe,ambiguous-switch,-1,6,right,right,0.215
DEK2001WRNO,2020-02-03-13-00-23,9,76,0.6679764667431458,left,both,ambiguous-switch,56,6,right,left,0.274
DEK2001WRNO,2020-02-03-13-00-23,9,77,0.650735575091757,right,probe,ambiguous-switch,-1,3,right,right,0.273
DEK2001WRNO,2020-02-03-13-00-23,9,78,0.5589678451958376,right,both,ambiguous-switch,63,3,right,right,0.406
DEK2001WRNO,2020-02-03-13-00-23,9,79,0.5982540192735353,right,probe,ambiguous-switch,-1,12,right,right,0.24
DEK2001WRNO,2020-02-03-13-00-23,9,80,0.5203292843711146,right,both,ambiguous-switch,57,12,right,left,0.322
DEK2001WRNO,2020-02-03-13-00-23,10,1,0.6164870613395376,left,probe,biased-switch,-1,12,right,right,0.906
DEK2001WRNO,2020-02-03-13-00-23,10,2,0.6802129049849281,left,both,biased-switch,61,12,right,right,0.218
DEK2001WRNO,2020-02-03-13-00-23,10,3,0.6319915801270197,right,probe,biased-switch,-1,-3,right,right,0.333
DEK2001WRNO,2020-02-03-13-00-23,10,4,0.6110610193218358,right,both,biased-switch,56,-3,right,right,0.491
DEK2001WRNO,2020-02-03-13-00-23,10,5,0.6724783166765693,right,probe,ambiguous-switch,-1,6,right,right,0.373
DEK2001WRNO,2020-02-03-13-00-23,10,6,0.5576692817782108,right,both,ambiguous-switch,64,6,right,right,0.351
DEK2001WRNO,2020-02-03-13-00-23,10,7,0.5199379350458544,left,probe,biased-switch,-1,-12,right,right,0.305
DEK2001WRNO,2020-02-03-13-00-23,10,8,0.6657188571442751,left,both,biased-switch,56,-12,right,right,0.956
DEK2001WRNO,2020-02-03-13-00-23,10,9,0.6021399087126766,right,probe,biased-switch,-1,-6,right,right,0.414
DEK2001WRNO,2020-02-03-13-00-23,10,10,0.6197404898599176,right,both,biased-switch,58,-6,right,left,0.296
DEK2001WRNO,2020-02-03-13-00-23,10,11,0.5888999839426463,right,probe,biased-switch,-1,3,right,right,0.324
DEK2001WRNO,2020-02-03-13-00-23,10,12,0.695331968828425,right,both,biased-switch,61,3,right,left,0.23
DEK2001WRNO,2020-02-03-13-00-23,10,13,0.6489410595841961,right,probe,biased-switch,-1,6,left,left,0.241
DEK2001WRNO,2020-02-03-13-00-23,10,14,0.6352903159550796,right,both,biased-switch,55,6,left,right,0.298
DEK2001WRNO,2020-02-03-13-00-23,10,15,0.5891905240864331,left,probe,ambiguous-switch,-1,3,right,right,0.233
DEK2001WRNO,2020-02-03-13-00-23,10,16,0.5659872004235859,left,both,ambiguous-switch,56,3,right,left,0.186
DEK2001WRNO,2020-02-03-13-00-23,10,17,0.5547232531151515,right,probe,ambiguous-switch,-1,-3,right,right,0.229
DEK2001WRNO,2020-02-03-13-00-23,10,18,0.6038270052930839,right,both,ambiguous-switch,61,-3,right,right,0.246
DEK2001WRNO,2020-02-03-13-00-23,10,19,0.5066209242163159,left,probe,biased-switch,-1,-18,right,right,0.109
DEK2001WRNO,2020-02-03-13-00-23,10,20,0.6808823439512857,left,both,biased-switch,59,-18,right,left,0.229
DEK2001WRNO,2020-02-03-13-00-23,10,21,0.5520138682427413,left,probe,biased-switch,-1,24,right,right,0.054
DEK2001WRNO,2020-02-03-13-00-23,10,22,0.6851001524034579,left,both,biased-switch,65,24,right,right,0.252
DEK2001WRNO,2020-02-03-13-00-23,10,23,0.5672838884801295,left,probe,ambiguous-switch,-1,24,right,right,0.342
DEK2001WRNO,2020-02-03-13-00-23,10,24,0.620531398938241,left,both,ambiguous-switch,59,24,right,left,0.197
DEK2001WRNO,2020-02-03-13-00-23,10,25,0.6203342651337203,right,probe,ambiguous-switch,-1,-6,right,right,0.774
DEK2001WRNO,2020-02-03-13-00-23,10,26,0.550383304116953,right,both,ambiguous-switch,65,-6,right,right,0.509
DEK2001WRNO,2020-02-03-13-00-23,10,27,0.653216708605108,left,probe,ambiguous-switch,-1,-18,right,right,1.292
DEK2001WRNO,2020-02-03-13-00-23,10,28,0.5241535398594154,left,both,ambiguous-switch,56,-18,right,left,0.213
DEK2001WRNO,2020-02-03-13-00-23,10,29,0.6097056831928933,right,probe,biased-switch,-1,0,right,right,0.419
DEK2001WRNO,2020-02-03-13-00-23,10,30,0.6578697340590278,right,both,biased-switch,61,0,right,left,0.246
DEK2001WRNO,2020-02-03-13-00-23,10,31,0.695320560732194,right,probe,ambiguous-switch,-1,0,right,right,0.236
DEK2001WRNO,2020-02-03-13-00-23,10,32,0.6293276786656723,right,both,ambiguous-switch,61,0,right,right,0.288
DEK2001WRNO,2020-02-03-13-00-23,10,33,0.5553534073138238,right,probe,biased-switch,-1,18,right,right,0.284
DEK2001WRNO,2020-02-03-13-00-23,10,34,0.6031373406910767,right,both,biased-switch,56,18,right,right,0.199
DEK2001WRNO,2020-02-03-13-00-23,10,35,0.5694821118025467,right,probe,ambiguous-switch,-1,-12,right,right,0.379
DEK2001WRNO,2020-02-03-13-00-23,10,36,0.6274726157565839,right,both,ambiguous-switch,56,-12,right,right,0.639
DEK2001WRNO,2020-02-03-13-00-23,10,37,0.5010097877435721,right,probe,ambiguous-switch,-1,18,right,right,0.323
DEK2001WRNO,2020-02-03-13-00-23,10,38,0.5329451532523901,right,both,ambiguous-switch,58,18,right,left,0.284
DEK2001WRNO,2020-02-03-13-00-23,10,39,0.581813553416455,right,probe,ambiguous-switch,-1,12,right,right,0.308
DEK2001WRNO,2020-02-03-13-00-23,10,40,0.503338136515283,right,both,ambiguous-switch,61,12,right,left,0.259
DEK2001WRNO,2020-02-03-13-00-23,10,41,0.6734134489894577,right,probe,biased-switch,-1,12,left,left,0.26
DEK2001WRNO,2020-02-03-13-00-23,10,42,0.6181842435739895,right,both,biased-switch,65,12,left,right,0.252
DEK2001WRNO,2020-02-03-13-00-23,10,43,0.5254712989175795,right,probe,biased-switch,-1,-3,right,right,0.289
DEK2001WRNO,2020-02-03-13-00-23,10,44,0.6453405234626256,right,both,biased-switch,58,-3,right,left,0.302
DEK2001WRNO,2020-02-03-13-00-23,10,45,0.5159832331558849,left,probe,ambiguous-switch,-1,6,right,right,0.441
DEK2001WRNO,2020-02-03-13-00-23,10,46,0.6582259893170102,left,both,ambiguous-switch,64,6,right,left,0.255
DEK2001WRNO,2020-02-03-13-00-23,10,47,0.6802035225454912,left,probe,biased-switch,-1,-12,left,left,0.317
DEK2001WRNO,2020-02-03-13-00-23,10,48,0.5996703079421714,left,both,biased-switch,59,-12,left,left,0.279
DEK2001WRNO,2020-02-03-13-00-23,10,49,0.5380005841472472,right,probe,biased-switch,-1,-6,left,left,2.322
DEK2001WRNO,2020-02-03-13-00-23,10,50,0.6922565058214389,right,both,biased-switch,62,-6,left,left,0.269
DEK2001WRNO,2020-02-03-13-00-23,10,51,0.5219027041391535,right,probe,biased-switch,-1,3,left,left,0.226
DEK2001WRNO,2020-02-03-13-00-23,10,52,0.5467216397987784,right,both,biased-switch,66,3,left,left,0.284
DEK2001WRNO,2020-02-03-13-00-23,10,53,0.603391177389793,right,probe,biased-switch,-1,6,left,left,0.222
DEK2001WRNO,2020-02-03-13-00-23,10,54,0.6674666859229508,right,both,biased-switch,56,6,left,right,0.23
DEK2001WRNO,2020-02-03-13-00-23,10,55,0.515958951785395,right,probe,ambiguous-switch,-1,3,left,left,0.343
DEK2001WRNO,2020-02-03-13-00-23,10,56,0.5085654131150689,right,both,ambiguous-switch,55,3,left,left,0.249
DEK2001WRNO,2020-02-03-13-00-23,10,57,0.6478458408374275,left,probe,ambiguous-switch,-1,-3,left,left,0.308
DEK2001WRNO,2020-02-03-13-00-23,10,58,0.6557232604701015,left,both,ambiguous-switch,56,-3,left,left,0.261
DEK2001WRNO,2020-02-03-13-00-23,10,59,0.543436232834761,right,probe,biased-switch,-1,-18,left,left,0.617
DEK2001WRNO,2020-02-03-13-00-23,10,60,0.6811761790849983,right,both,biased-switch,54,-18,left,left,0.173
DEK2001WRNO,2020-02-03-13-00-23,10,61,0.5162147040364667,right,probe,biased-switch,-1,24,left,left,0.149
DEK2001WRNO,2020-02-03-13-00-23,10,62,0.6566692267419505,right,both,biased-switch,56,24,left,left,0.227
DEK2001WRNO,2020-02-03-13-00-23,10,63,0.5481480509144883,left,probe,ambiguous-switch,-1,24,left,left,0.264
DEK2001WRNO,2020-02-03-13-00-23,10,64,0.6012160076219568,left,both,ambiguous-switch,64,24,left,left,0.248
DEK2001WRNO,2020-02-03-13-00-23,10,65,0.5722949782679398,left,probe,ambiguous-switch,-1,-6,left,left,0.189
DEK2001WRNO,2020-02-03-13-00-23,10,66,0.5873066817639304,left,both,ambiguous-switch,61,-6,left,left,0.175
DEK2001WRNO,2020-02-03-13-00-23,10,67,0.6888011836425202,left,probe,ambiguous-switch,-1,-18,left,left,0.184
DEK2001WRNO,2020-02-03-13-00-23,10,68,0.5345789493507227,left,both,ambiguous-switch,57,-18,left,left,0.184
DEK2001WRNO,2020-02-03-13-00-23,10,69,0.6248979898993404,left,probe,biased-switch,-1,0,left,left,0.248
DEK2001WRNO,2020-02-03-13-00-23,10,70,0.6408248423604048,left,both,biased-switch,59,0,left,left,0.162
DEK2001WRNO,2020-02-03-13-00-23,10,71,0.5837577891999913,left,probe,ambiguous-switch,-1,0,left,left,0.119
DEK2001WRNO,2020-02-03-13-00-23,10,72,0.5343857732387773,left,both,ambiguous-switch,62,0,left,left,0.092
DEK2001WRNO,2020-02-03-13-00-23,10,73,0.5249641576308081,right,probe,biased-switch,-1,18,left,left,0.323
DEK2001WRNO,2020-02-03-13-00-23,10,74,0.5155096293278791,right,both,biased-switch,65,18,left,left,0.223
DEK2001WRNO,2020-02-03-13-00-23,10,75,0.6424711057108616,right,probe,ambiguous-switch,-1,-12,left,left,0.11
DEK2001WRNO,2020-02-03-13-00-23,10,76,0.6484637680638853,right,both,ambiguous-switch,56,-12,left,left,0.493
DEK2001WRNO,2020-02-03-13-00-23,10,77,0.6923090942353352,right,probe,ambiguous-switch,-1,18,left,left,0.171
DEK2001WRNO,2020-02-03-13-00-23,10,78,0.6239739513274878,right,both,ambiguous-switch,59,18,left,left,0.195
DEK2001WRNO,2020-02-03-13-00-23,10,79,0.619117909976689,right,probe,ambiguous-switch,-1,12,left,left,0.253
DEK2001WRNO,2020-02-03-13-00-23,10,80,0.6957631448153592,right,both,ambiguous-switch,64,12,left,left,0.241
