Participant,Session,Block,Trial,OnsetDelay,ProbeLocation,WhatIsReported,Condition,TriggerTime,ProbeSOA,PrimeDirection,Response,RT
VTM1984WRNO,2019-10-21-15-44-17,1,1,0.653637847299647,right,probe,biased-switch,-1,10,right,right,0.763
VTM1984WRNO,2019-10-21-15-44-17,1,2,0.6094017299415229,right,both,biased-switch,104,10,right,left,0.286
VTM1984WRNO,2019-10-21-15-44-17,1,3,0.6798779012018046,right,probe,biased-switch,-1,-20,left,left,0.362
VTM1984WRNO,2019-10-21-15-44-17,1,4,0.6047524949200391,right,both,biased-switch,91,-20,left,left,0.271
VTM1984WRNO,2019-10-21-15-44-17,1,5,0.6991217034900663,right,probe,biased-switch,-1,0,left,left,0.246
VTM1984WRNO,2019-10-21-15-44-17,1,6,0.6881633074273603,right,both,biased-switch,96,0,left,left,0.386
VTM1984WRNO,2019-10-21-15-44-17,1,7,0.6583931201774594,left,probe,biased-switch,-1,5,left,left,0.288
VTM1984WRNO,2019-10-21-15-44-17,1,8,0.6517799498550414,left,both,biased-switch,91,5,left,right,0.297
VTM1984WRNO,2019-10-21-15-44-17,1,9,0.5867710024938273,right,probe,ambiguous-switch,-1,0,left,left,0.279
VTM1984WRNO,2019-10-21-15-44-17,1,10,0.6459654642091843,right,both,ambiguous-switch,98,0,left,left,0.314
VTM1984WRNO,2019-10-21-15-44-17,1,11,0.536807814249599,right,probe,biased-switch,-1,-10,left,left,0.31
VTM1984WRNO,2019-10-21-15-44-17,1,12,0.6063229188253394,right,both,biased-switch,91,-10,left,left,0.243
VTM1984WRNO,2019-10-21-15-44-17,1,13,0.6536189772566883,left,probe,ambiguous-switch,-1,-20,left,left,0.256
VTM1984WRNO,2019-10-21-15-44-17,1,14,0.5291229835559713,left,both,ambiguous-switch,96,-20,left,left,0.212
VTM1984WRNO,2019-10-21-15-44-17,1,15,0.6216038606697475,right,probe,ambiguous-switch,-1,-5,left,left,0.232
VTM1984WRNO,2019-10-21-15-44-17,1,16,0.5642693803260457,right,both,ambiguous-switch,96,-5,left,left,0.221
VTM1984WRNO,2019-10-21-15-44-17,1,17,0.5231464178512071,left,probe,ambiguous-switch,-1,-30,left,left,0.246
VTM1984WRNO,2019-10-21-15-44-17,1,18,0.5819734891066117,left,both,ambiguous-switch,106,-30,left,left,0.254
VTM1984WRNO,2019-10-21-15-44-17,1,19,0.5985912835487575,left,probe,ambiguous-switch,-1,5,left,left,0.252
VTM1984WRNO,2019-10-21-15-44-17,1,20,0.5364543296195861,left,both,ambiguous-switch,108,5,left,left,0.242
VTM1984WRNO,2019-10-21-15-44-17,1,21,0.5297448999182912,right,probe,biased-switch,-1,20,left,left,0.216
VTM1984WRNO,2019-10-21-15-44-17,1,22,0.5287400748783295,right,both,biased-switch,105,20,left,right,0.404
VTM1984WRNO,2019-10-21-15-44-17,1,23,0.6467195754042862,left,probe,ambiguous-switch,-1,10,left,left,0.315
VTM1984WRNO,2019-10-21-15-44-17,1,24,0.6253847379103045,left,both,ambiguous-switch,106,10,left,right,0.23
VTM1984WRNO,2019-10-21-15-44-17,1,25,0.6512918382114544,left,probe,ambiguous-switch,-1,40,right,right,0.247
VTM1984WRNO,2019-10-21-15-44-17,1,26,0.5713487996629976,left,both,ambiguous-switch,97,40,right,right,0.309
VTM1984WRNO,2019-10-21-15-44-17,1,27,0.6277031225452907,left,probe,biased-switch,-1,-5,right,right,0.27
VTM1984WRNO,2019-10-21-15-44-17,1,28,0.5098954312148838,left,both,biased-switch,104,-5,right,left,0.461
VTM1984WRNO,2019-10-21-15-44-17,1,29,0.6243684892180853,left,probe,ambiguous-switch,-1,-10,left,left,0.332
VTM1984WRNO,2019-10-21-15-44-17,1,30,0.5966738481410988,left,both,ambiguous-switch,99,-10,left,left,0.368
VTM1984WRNO,2019-10-21-15-44-17,1,31,0.5462554974431668,right,probe,biased-switch,-1,40,left,left,0.316
VTM1984WRNO,2019-10-21-15-44-17,1,32,0.5230158894881959,right,both,biased-switch,91,40,left,left,0.402
VTM1984WRNO,2019-10-21-15-44-17,1,33,0.6941590080330517,left,probe,ambiguous-switch,-1,20,left,left,0.321
VTM1984WRNO,2019-10-21-15-44-17,1,34,0.6733087382214431,left,both,ambiguous-switch,105,20,left,left,0.292
VTM1984WRNO,2019-10-21-15-44-17,1,35,0.6031220994132894,right,probe,biased-switch,-1,-30,left,left,0.259
VTM1984WRNO,2019-10-21-15-44-17,1,36,0.5027372454353097,right,both,biased-switch,109,-30,left,left,0.336
VTM1984WRNO,2019-10-21-15-44-17,1,37,0.5760715995189217,left,probe,ambiguous-switch,-1,30,left,left,0.26
VTM1984WRNO,2019-10-21-15-44-17,1,38,0.68841798136438,left,both,ambiguous-switch,107,30,left,left,0.324
VTM1984WRNO,2019-10-21-15-44-17,1,39,0.6346655232564138,right,probe,biased-switch,-1,30,left,left,0.283
VTM1984WRNO,2019-10-21-15-44-17,1,40,0.5872753012602796,right,both,biased-switch,108,30,left,left,0.255
VTM1984WRNO,2019-10-21-15-44-17,1,41,0.6880632805794068,left,probe,biased-switch,-1,10,left,left,0.275
VTM1984WRNO,2019-10-21-15-44-17,1,42,0.6579825893892426,left,both,biased-switch,109,10,left,right,0.291
VTM1984WRNO,2019-10-21-15-44-17,1,43,0.6846298345069144,left,probe,biased-switch,-1,-20,right,right,0.27
VTM1984WRNO,2019-10-21-15-44-17,1,44,0.6497025945590355,left,both,biased-switch,101,-20,right,right,0.238
VTM1984WRNO,2019-10-21-15-44-17,1,45,0.696828357665417,right,probe,biased-switch,-1,0,left,left,0.252
VTM1984WRNO,2019-10-21-15-44-17,1,46,0.537640961649001,right,both,biased-switch,101,0,left,left,0.235
VTM1984WRNO,2019-10-21-15-44-17,1,47,0.6052079230092832,right,probe,biased-switch,-1,5,left,left,0.235
VTM1984WRNO,2019-10-21-15-44-17,1,48,0.5466391150792792,right,both,biased-switch,102,5,left,right,0.252
VTM1984WRNO,2019-10-21-15-44-17,1,49,0.5603498891663532,left,probe,ambiguous-switch,-1,0,right,right,0.268
VTM1984WRNO,2019-10-21-15-44-17,1,50,0.5540795385285084,left,both,ambiguous-switch,105,0,right,right,0.284
VTM1984WRNO,2019-10-21-15-44-17,1,51,0.6640590318907749,right,probe,biased-switch,-1,-10,right,right,0.259
VTM1984WRNO,2019-10-21-15-44-17,1,52,0.6463684439950272,right,both,biased-switch,91,-10,right,left,0.269
VTM1984WRNO,2019-10-21-15-44-17,1,53,0.6037273140000688,left,probe,ambiguous-switch,-1,-20,right,right,0.26
VTM1984WRNO,2019-10-21-15-44-17,1,54,0.6216482563051264,left,both,ambiguous-switch,90,-20,right,right,0.272
VTM1984WRNO,2019-10-21-15-44-17,1,55,0.6229405529175673,left,probe,ambiguous-switch,-1,-5,right,right,0.253
VTM1984WRNO,2019-10-21-15-44-17,1,56,0.5820417898071614,left,both,ambiguous-switch,99,-5,right,right,0.224
VTM1984WRNO,2019-10-21-15-44-17,1,57,0.6237022445884692,left,probe,ambiguous-switch,-1,-30,right,right,0.253
VTM1984WRNO,2019-10-21-15-44-17,1,58,0.6985640074839332,left,both,ambiguous-switch,98,-30,right,right,0.265
VTM1984WRNO,2019-10-21-15-44-17,1,59,0.6703251358541391,right,probe,ambiguous-switch,-1,5,left,left,0.269
VTM1984WRNO,2019-10-21-15-44-17,1,60,0.623810602299997,right,both,ambiguous-switch,95,5,left,right,0.251
VTM1984WRNO,2019-10-21-15-44-17,1,61,0.5626164666554838,left,probe,biased-switch,-1,20,right,right,0.338
VTM1984WRNO,2019-10-21-15-44-17,1,62,0.681054179053002,left,both,biased-switch,103,20,right,left,0.259
VTM1984WRNO,2019-10-21-15-44-17,1,63,0.6244796387752708,right,probe,ambiguous-switch,-1,10,left,left,0.28
VTM1984WRNO,2019-10-21-15-44-17,1,64,0.5470497201123967,right,both,ambiguous-switch,95,10,left,left,0.285
VTM1984WRNO,2019-10-21-15-44-17,1,65,0.5524154164890754,right,probe,ambiguous-switch,-1,40,left,left,0.278
VTM1984WRNO,2019-10-21-15-44-17,1,66,0.6795123799336755,right,both,ambiguous-switch,99,40,left,left,0.225
VTM1984WRNO,2019-10-21-15-44-17,1,67,0.6483878081359902,right,probe,biased-switch,-1,-5,left,left,0.276
VTM1984WRNO,2019-10-21-15-44-17,1,68,0.6768798533471179,right,both,biased-switch,107,-5,left,left,0.255
VTM1984WRNO,2019-10-21-15-44-17,1,69,0.6350062367307434,right,probe,ambiguous-switch,-1,-10,left,left,0.301
VTM1984WRNO,2019-10-21-15-44-17,1,70,0.6555338929141487,right,both,ambiguous-switch,97,-10,left,left,0.273
VTM1984WRNO,2019-10-21-15-44-17,1,71,0.6157405379464727,right,probe,biased-switch,-1,40,left,left,0.291
VTM1984WRNO,2019-10-21-15-44-17,1,72,0.6275683600073978,right,both,biased-switch,108,40,left,left,0.245
VTM1984WRNO,2019-10-21-15-44-17,1,73,0.5870219871492524,left,probe,ambiguous-switch,-1,20,left,left,0.371
VTM1984WRNO,2019-10-21-15-44-17,1,74,0.5053757151440361,left,both,ambiguous-switch,93,20,left,right,0.408
VTM1984WRNO,2019-10-21-15-44-17,1,75,0.6733630884823362,right,probe,biased-switch,-1,-30,left,left,0.205
VTM1984WRNO,2019-10-21-15-44-17,1,76,0.5983801175338356,right,both,biased-switch,94,-30,left,left,0.235
VTM1984WRNO,2019-10-21-15-44-17,1,77,0.554062224752653,left,probe,ambiguous-switch,-1,30,left,left,0.218
VTM1984WRNO,2019-10-21-15-44-17,1,78,0.6532758126038049,left,both,ambiguous-switch,100,30,left,right,0.323
VTM1984WRNO,2019-10-21-15-44-17,1,79,0.6962833354946847,left,probe,biased-switch,-1,30,right,right,0.295
VTM1984WRNO,2019-10-21-15-44-17,1,80,0.6144474142527125,left,both,biased-switch,100,30,right,right,0.268
VTM1984WRNO,2019-10-21-15-44-17,2,1,0.6387778550572583,left,probe,biased-switch,-1,-5,right,right,0.312
VTM1984WRNO,2019-10-21-15-44-17,2,2,0.5560229837487564,left,both,biased-switch,103,-5,right,right,0.327
VTM1984WRNO,2019-10-21-15-44-17,2,3,0.6589995365496717,right,probe,biased-switch,-1,-10,right,right,0.363
VTM1984WRNO,2019-10-21-15-44-17,2,4,0.5855968020632732,right,both,biased-switch,106,-10,right,left,0.384
VTM1984WRNO,2019-10-21-15-44-17,2,5,0.623837224785233,left,probe,biased-switch,-1,0,right,right,0.293
VTM1984WRNO,2019-10-21-15-44-17,2,6,0.690238032082767,left,both,biased-switch,110,0,right,left,0.309
VTM1984WRNO,2019-10-21-15-44-17,2,7,0.5278388932499738,right,probe,biased-switch,-1,40,left,left,0.328
VTM1984WRNO,2019-10-21-15-44-17,2,8,0.5368085468533279,right,both,biased-switch,110,40,left,left,0.283
VTM1984WRNO,2019-10-21-15-44-17,2,9,0.6018055601266266,right,probe,biased-switch,-1,5,left,left,0.244
VTM1984WRNO,2019-10-21-15-44-17,2,10,0.6097512117738203,right,both,biased-switch,96,5,left,right,0.278
VTM1984WRNO,2019-10-21-15-44-17,2,11,0.6759398011821484,right,probe,ambiguous-switch,-1,10,left,left,0.275
VTM1984WRNO,2019-10-21-15-44-17,2,12,0.6138949922476735,right,both,ambiguous-switch,106,10,left,right,0.26
VTM1984WRNO,2019-10-21-15-44-17,2,13,0.6753688300114584,right,probe,ambiguous-switch,-1,-5,left,left,0.25
VTM1984WRNO,2019-10-21-15-44-17,2,14,0.5164247606005713,right,both,ambiguous-switch,97,-5,left,left,0.227
VTM1984WRNO,2019-10-21-15-44-17,2,15,0.5615197679056978,right,probe,biased-switch,-1,20,left,left,0.284
VTM1984WRNO,2019-10-21-15-44-17,2,16,0.5110825292072346,right,both,biased-switch,105,20,left,right,0.29
VTM1984WRNO,2019-10-21-15-44-17,2,17,0.6884616912055898,left,probe,biased-switch,-1,-20,left,left,0.379
VTM1984WRNO,2019-10-21-15-44-17,2,18,0.6105159115407138,left,both,biased-switch,102,-20,left,right,0.362
VTM1984WRNO,2019-10-21-15-44-17,2,19,0.6771889008678003,right,probe,ambiguous-switch,-1,40,left,left,0.265
VTM1984WRNO,2019-10-21-15-44-17,2,20,0.680936921494046,right,both,ambiguous-switch,108,40,left,right,0.256
VTM1984WRNO,2019-10-21-15-44-17,2,21,0.5557920143977746,right,probe,ambiguous-switch,-1,0,right,right,0.289
VTM1984WRNO,2019-10-21-15-44-17,2,22,0.5199543900024652,right,both,ambiguous-switch,94,0,right,right,0.245
VTM1984WRNO,2019-10-21-15-44-17,2,23,0.5055516877355228,right,probe,biased-switch,-1,-30,right,right,0.213
VTM1984WRNO,2019-10-21-15-44-17,2,24,0.5107817069494016,right,both,biased-switch,101,-30,right,right,0.289
VTM1984WRNO,2019-10-21-15-44-17,2,25,0.6347020391796874,right,probe,ambiguous-switch,-1,-20,right,right,0.264
VTM1984WRNO,2019-10-21-15-44-17,2,26,0.663104610808438,right,both,ambiguous-switch,107,-20,right,right,0.25
VTM1984WRNO,2019-10-21-15-44-17,2,27,0.5109358521250248,left,probe,biased-switch,-1,30,right,right,0.221
VTM1984WRNO,2019-10-21-15-44-17,2,28,0.5897376228372211,left,both,biased-switch,94,30,right,right,0.268
VTM1984WRNO,2019-10-21-15-44-17,2,29,0.6916690384199629,right,probe,biased-switch,-1,10,right,right,0.54
VTM1984WRNO,2019-10-21-15-44-17,2,30,0.6817046675973993,right,both,biased-switch,101,10,right,left,0.339
VTM1984WRNO,2019-10-21-15-44-17,2,31,0.6967015450080889,left,probe,ambiguous-switch,-1,-10,right,right,0.291
VTM1984WRNO,2019-10-21-15-44-17,2,32,0.6127007310522504,left,both,ambiguous-switch,109,-10,right,right,0.325
VTM1984WRNO,2019-10-21-15-44-17,2,33,0.5101756957091305,right,probe,ambiguous-switch,-1,-30,right,right,0.366
VTM1984WRNO,2019-10-21-15-44-17,2,34,0.6741965412917047,right,both,ambiguous-switch,105,-30,right,right,0.3
VTM1984WRNO,2019-10-21-15-44-17,2,35,0.6159637748422828,right,probe,ambiguous-switch,-1,30,right,right,0.3
VTM1984WRNO,2019-10-21-15-44-17,2,36,0.5792490458617623,right,both,ambiguous-switch,105,30,right,right,0.255
VTM1984WRNO,2019-10-21-15-44-17,2,37,0.5455415338729313,right,probe,ambiguous-switch,-1,5,right,right,0.299
VTM1984WRNO,2019-10-21-15-44-17,2,38,0.5569200120343281,right,both,ambiguous-switch,99,5,right,left,0.302
VTM1984WRNO,2019-10-21-15-44-17,2,39,0.5461775053945669,right,probe,ambiguous-switch,-1,20,right,right,0.323
VTM1984WRNO,2019-10-21-15-44-17,2,40,0.5212079054576673,right,both,ambiguous-switch,92,20,right,left,0.318
VTM1984WRNO,2019-10-21-15-44-17,2,41,0.6564230218585088,left,probe,biased-switch,-1,-5,right,right,0.168
VTM1984WRNO,2019-10-21-15-44-17,2,42,0.5429142414763377,left,both,biased-switch,95,-5,right,left,0.303
VTM1984WRNO,2019-10-21-15-44-17,2,43,0.6828287121396586,left,probe,biased-switch,-1,-10,right,right,0.252
VTM1984WRNO,2019-10-21-15-44-17,2,44,0.6759786429778418,left,both,biased-switch,101,-10,right,right,0.252
VTM1984WRNO,2019-10-21-15-44-17,2,45,0.5568100711922084,left,probe,biased-switch,-1,0,right,right,0.22
VTM1984WRNO,2019-10-21-15-44-17,2,46,0.6386965840034974,left,both,biased-switch,108,0,right,right,0.3
VTM1984WRNO,2019-10-21-15-44-17,2,47,0.6926086610091741,left,probe,biased-switch,-1,40,right,right,0.375
VTM1984WRNO,2019-10-21-15-44-17,2,48,0.6519248303002799,left,both,biased-switch,107,40,right,right,0.308
VTM1984WRNO,2019-10-21-15-44-17,2,49,0.6799293701463479,right,probe,biased-switch,-1,5,right,right,0.494
VTM1984WRNO,2019-10-21-15-44-17,2,50,0.525985056054393,right,both,biased-switch,109,5,right,left,0.426
VTM1984WRNO,2019-10-21-15-44-17,2,51,0.5081954676327844,right,probe,ambiguous-switch,-1,10,left,left,0.209
VTM1984WRNO,2019-10-21-15-44-17,2,52,0.6940928277432866,right,both,ambiguous-switch,105,10,left,right,0.397
VTM1984WRNO,2019-10-21-15-44-17,2,53,0.6074879978113669,right,probe,ambiguous-switch,-1,-5,right,right,0.322
VTM1984WRNO,2019-10-21-15-44-17,2,54,0.6905382072414645,right,both,ambiguous-switch,105,-5,right,left,0.261
VTM1984WRNO,2019-10-21-15-44-17,2,55,0.5736588055174101,left,probe,biased-switch,-1,20,right,right,0.296
VTM1984WRNO,2019-10-21-15-44-17,2,56,0.5757436875101648,left,both,biased-switch,103,20,right,right,0.274
VTM1984WRNO,2019-10-21-15-44-17,2,57,0.6697356454449648,right,probe,biased-switch,-1,-20,left,left,0.229
VTM1984WRNO,2019-10-21-15-44-17,2,58,0.6258042919468039,right,both,biased-switch,104,-20,left,left,0.289
VTM1984WRNO,2019-10-21-15-44-17,2,59,0.5550942262338203,left,probe,ambiguous-switch,-1,40,right,right,0.31
VTM1984WRNO,2019-10-21-15-44-17,2,60,0.6565141839136727,left,both,ambiguous-switch,93,40,right,right,0.544
VTM1984WRNO,2019-10-21-15-44-17,2,61,0.531740029810085,right,probe,ambiguous-switch,-1,0,right,right,0.897
VTM1984WRNO,2019-10-21-15-44-17,2,62,0.6271308656726193,right,both,ambiguous-switch,97,0,right,left,0.288
VTM1984WRNO,2019-10-21-15-44-17,2,63,0.5824610610340555,left,probe,biased-switch,-1,-30,right,right,0.199
VTM1984WRNO,2019-10-21-15-44-17,2,64,0.5373124849983876,left,both,biased-switch,107,-30,right,right,0.167
VTM1984WRNO,2019-10-21-15-44-17,2,65,0.6120074692548301,left,probe,ambiguous-switch,-1,-20,right,right,0.352
VTM1984WRNO,2019-10-21-15-44-17,2,66,0.6792241650604253,left,both,ambiguous-switch,100,-20,right,right,0.288
VTM1984WRNO,2019-10-21-15-44-17,2,67,0.6598791358491255,right,probe,biased-switch,-1,30,right,right,0.507
VTM1984WRNO,2019-10-21-15-44-17,2,68,0.5531226940190648,right,both,biased-switch,97,30,right,left,0.458
VTM1984WRNO,2019-10-21-15-44-17,2,69,0.5775743537213076,right,probe,biased-switch,-1,10,left,left,0.256
VTM1984WRNO,2019-10-21-15-44-17,2,70,0.5763138396156905,right,both,biased-switch,110,10,left,right,0.349
VTM1984WRNO,2019-10-21-15-44-17,2,71,0.6416549816455496,right,probe,ambiguous-switch,-1,-10,left,left,0.391
VTM1984WRNO,2019-10-21-15-44-17,2,72,0.6217119602190907,right,both,ambiguous-switch,107,-10,left,left,0.256
VTM1984WRNO,2019-10-21-15-44-17,2,73,0.6012054343480199,right,probe,ambiguous-switch,-1,-30,left,left,0.318
VTM1984WRNO,2019-10-21-15-44-17,2,74,0.529775428813451,right,both,ambiguous-switch,95,-30,left,left,0.301
VTM1984WRNO,2019-10-21-15-44-17,2,75,0.6114253801246158,left,probe,ambiguous-switch,-1,30,left,left,0.291
VTM1984WRNO,2019-10-21-15-44-17,2,76,0.6727668502665921,left,both,ambiguous-switch,109,30,left,right,0.353
VTM1984WRNO,2019-10-21-15-44-17,2,77,0.6244525340575846,right,probe,ambiguous-switch,-1,5,left,left,0.074
VTM1984WRNO,2019-10-21-15-44-17,2,78,0.6786244853490364,right,both,ambiguous-switch,93,5,left,left,0.142
VTM1984WRNO,2019-10-21-15-44-17,2,79,0.6066585505498956,left,probe,ambiguous-switch,-1,20,left,left,0.245
VTM1984WRNO,2019-10-21-15-44-17,2,80,0.5380689129863185,left,both,ambiguous-switch,92,20,left,left,0.214
VTM1984WRNO,2019-10-21-15-44-17,3,1,0.6072428706683015,right,probe,biased-switch,-1,0,left,left,0.221
VTM1984WRNO,2019-10-21-15-44-17,3,2,0.5505118712762311,right,both,biased-switch,100,0,left,left,0.271
VTM1984WRNO,2019-10-21-15-44-17,3,3,0.6310440342644268,right,probe,ambiguous-switch,-1,-5,left,left,0.226
VTM1984WRNO,2019-10-21-15-44-17,3,4,0.6031637914232212,right,both,ambiguous-switch,100,-5,left,left,2.908
VTM1984WRNO,2019-10-21-15-44-17,3,5,0.6525518091286668,right,probe,biased-switch,-1,30,left,left,0.215
VTM1984WRNO,2019-10-21-15-44-17,3,6,0.6815669291798305,right,both,biased-switch,98,30,left,left,0.155
VTM1984WRNO,2019-10-21-15-44-17,3,7,0.56369580471544,right,probe,biased-switch,-1,-5,left,left,0.235
VTM1984WRNO,2019-10-21-15-44-17,3,8,0.650052988728103,right,both,biased-switch,98,-5,left,left,0.238
VTM1984WRNO,2019-10-21-15-44-17,3,9,0.6196407847101628,left,probe,biased-switch,-1,-10,left,left,0.249
VTM1984WRNO,2019-10-21-15-44-17,3,10,0.631190781580745,left,both,biased-switch,105,-10,left,left,0.273
VTM1984WRNO,2019-10-21-15-44-17,3,11,0.6281262836369809,right,probe,ambiguous-switch,-1,30,left,left,0.287
VTM1984WRNO,2019-10-21-15-44-17,3,12,0.5417567830972131,right,both,ambiguous-switch,98,30,left,left,0.249
VTM1984WRNO,2019-10-21-15-44-17,3,13,0.5563917745831601,right,probe,biased-switch,-1,5,left,left,0.35
VTM1984WRNO,2019-10-21-15-44-17,3,14,0.5284870634666373,right,both,biased-switch,97,5,left,right,0.228
VTM1984WRNO,2019-10-21-15-44-17,3,15,0.5813553245042669,left,probe,ambiguous-switch,-1,10,left,left,0.189
VTM1984WRNO,2019-10-21-15-44-17,3,16,0.699765439979565,left,both,ambiguous-switch,106,10,left,right,0.196
VTM1984WRNO,2019-10-21-15-44-17,3,17,0.604523911892288,left,probe,ambiguous-switch,-1,20,left,left,0.253
VTM1984WRNO,2019-10-21-15-44-17,3,18,0.6095403763752464,left,both,ambiguous-switch,98,20,left,left,0.257
VTM1984WRNO,2019-10-21-15-44-17,3,19,0.6995293977119652,left,probe,biased-switch,-1,-30,left,left,0.277
VTM1984WRNO,2019-10-21-15-44-17,3,20,0.5719980462262033,left,both,biased-switch,91,-30,left,left,0.285
VTM1984WRNO,2019-10-21-15-44-17,3,21,0.6864881565741596,right,probe,biased-switch,-1,20,left,left,0.262
VTM1984WRNO,2019-10-21-15-44-17,3,22,0.6434869384797145,right,both,biased-switch,100,20,left,right,0.17
VTM1984WRNO,2019-10-21-15-44-17,3,23,0.5500173660668128,left,probe,ambiguous-switch,-1,5,left,left,0.244
VTM1984WRNO,2019-10-21-15-44-17,3,24,0.6412681048610839,left,both,ambiguous-switch,98,5,left,right,0.2
VTM1984WRNO,2019-10-21-15-44-17,3,25,0.6954531096551635,right,probe,biased-switch,-1,-20,left,left,0.236
VTM1984WRNO,2019-10-21-15-44-17,3,26,0.5685023059008238,right,both,biased-switch,107,-20,left,left,0.249
VTM1984WRNO,2019-10-21-15-44-17,3,27,0.682778906923015,right,probe,biased-switch,-1,10,left,left,0.314
VTM1984WRNO,2019-10-21-15-44-17,3,28,0.6448563357820927,right,both,biased-switch,92,10,left,left,0.264
VTM1984WRNO,2019-10-21-15-44-17,3,29,0.5961615601446966,left,probe,ambiguous-switch,-1,-30,left,left,0.33
VTM1984WRNO,2019-10-21-15-44-17,3,30,0.5864045403957076,left,both,ambiguous-switch,91,-30,left,left,0.294
VTM1984WRNO,2019-10-21-15-44-17,3,31,0.6843911259180913,left,probe,ambiguous-switch,-1,-20,left,left,0.242
VTM1984WRNO,2019-10-21-15-44-17,3,32,0.5490622317368279,left,both,ambiguous-switch,104,-20,left,left,0.281
VTM1984WRNO,2019-10-21-15-44-17,3,33,0.5789369554502082,left,probe,ambiguous-switch,-1,0,left,left,0.298
VTM1984WRNO,2019-10-21-15-44-17,3,34,0.6558720586327019,left,both,ambiguous-switch,92,0,left,left,0.197
VTM1984WRNO,2019-10-21-15-44-17,3,35,0.6884537713988381,left,probe,biased-switch,-1,40,left,left,0.222
VTM1984WRNO,2019-10-21-15-44-17,3,36,0.6295660195886748,left,both,biased-switch,94,40,left,left,0.278
VTM1984WRNO,2019-10-21-15-44-17,3,37,0.6784272037378182,right,probe,ambiguous-switch,-1,-10,left,left,0.355
VTM1984WRNO,2019-10-21-15-44-17,3,38,0.6055462855934488,right,both,ambiguous-switch,106,-10,left,left,0.251
VTM1984WRNO,2019-10-21-15-44-17,3,39,0.6200107470163998,left,probe,ambiguous-switch,-1,40,left,left,0.259
VTM1984WRNO,2019-10-21-15-44-17,3,40,0.6160817597764277,left,both,ambiguous-switch,109,40,left,left,0.255
VTM1984WRNO,2019-10-21-15-44-17,3,41,0.5144951108895206,left,probe,biased-switch,-1,0,left,left,0.285
VTM1984WRNO,2019-10-21-15-44-17,3,42,0.6492024100857292,left,both,biased-switch,91,0,left,left,0.358
VTM1984WRNO,2019-10-21-15-44-17,3,43,0.6265662382840762,right,probe,ambiguous-switch,-1,-5,left,left,0.246
VTM1984WRNO,2019-10-21-15-44-17,3,44,0.5491357253703417,right,both,ambiguous-switch,95,-5,left,left,0.27
VTM1984WRNO,2019-10-21-15-44-17,3,45,0.5308184122144806,left,probe,biased-switch,-1,30,left,left,0.267
VTM1984WRNO,2019-10-21-15-44-17,3,46,0.5048301429401233,left,both,biased-switch,109,30,left,left,0.273
VTM1984WRNO,2019-10-21-15-44-17,3,47,0.6475148522172094,right,probe,biased-switch,-1,-5,left,left,0.242
VTM1984WRNO,2019-10-21-15-44-17,3,48,0.6716777852304152,right,both,biased-switch,96,-5,left,left,0.301
VTM1984WRNO,2019-10-21-15-44-17,3,49,0.6939627262425478,right,probe,biased-switch,-1,-10,left,left,0.274
VTM1984WRNO,2019-10-21-15-44-17,3,50,0.6268890713852049,right,both,biased-switch,95,-10,left,left,0.074
VTM1984WRNO,2019-10-21-15-44-17,3,51,0.6662935744290106,left,probe,ambiguous-switch,-1,30,left,left,0.257
VTM1984WRNO,2019-10-21-15-44-17,3,52,0.5898404480662427,left,both,ambiguous-switch,100,30,left,left,0.268
VTM1984WRNO,2019-10-21-15-44-17,3,53,0.6061848041257377,right,probe,biased-switch,-1,5,left,left,0.243
VTM1984WRNO,2019-10-21-15-44-17,3,54,0.6799308593721715,right,both,biased-switch,91,5,left,right,0.288
VTM1984WRNO,2019-10-21-15-44-17,3,55,0.5648860325877183,left,probe,ambiguous-switch,-1,10,left,left,0.229
VTM1984WRNO,2019-10-21-15-44-17,3,56,0.6807720261521368,left,both,ambiguous-switch,105,10,left,left,0.247
VTM1984WRNO,2019-10-21-15-44-17,3,57,0.623561448512637,right,probe,ambiguous-switch,-1,20,left,left,0.194
VTM1984WRNO,2019-10-21-15-44-17,3,58,0.5146454836241275,right,both,ambiguous-switch,106,20,left,left,0.075
VTM1984WRNO,2019-10-21-15-44-17,3,59,0.6199749577869369,left,probe,biased-switch,-1,-30,left,left,0.156
VTM1984WRNO,2019-10-21-15-44-17,3,60,0.5450915789231889,left,both,biased-switch,107,-30,left,right,0.383
VTM1984WRNO,2019-10-21-15-44-17,3,61,0.5636555125269712,left,probe,biased-switch,-1,20,left,left,0.227
VTM1984WRNO,2019-10-21-15-44-17,3,62,0.6601432379819744,left,both,biased-switch,106,20,left,left,0.264
VTM1984WRNO,2019-10-21-15-44-17,3,63,0.5565463350051908,left,probe,ambiguous-switch,-1,5,left,left,0.219
VTM1984WRNO,2019-10-21-15-44-17,3,64,0.6229920506014919,left,both,ambiguous-switch,92,5,left,left,0.227
VTM1984WRNO,2019-10-21-15-44-17,3,65,0.6281132453446634,left,probe,biased-switch,-1,-20,right,right,0.476
VTM1984WRNO,2019-10-21-15-44-17,3,66,0.6149868913177844,left,both,biased-switch,100,-20,right,left,0.3
VTM1984WRNO,2019-10-21-15-44-17,3,67,0.5056713621696816,right,probe,biased-switch,-1,10,left,left,0.403
VTM1984WRNO,2019-10-21-15-44-17,3,68,0.6762329517959383,right,both,biased-switch,103,10,left,right,0.399
VTM1984WRNO,2019-10-21-15-44-17,3,69,0.6431129483377773,right,probe,ambiguous-switch,-1,-30,right,right,0.256
VTM1984WRNO,2019-10-21-15-44-17,3,70,0.6880478663798967,right,both,ambiguous-switch,101,-30,right,left,0.255
VTM1984WRNO,2019-10-21-15-44-17,3,71,0.5006121254016122,left,probe,ambiguous-switch,-1,-20,left,left,0.586
VTM1984WRNO,2019-10-21-15-44-17,3,72,0.6292129574193359,left,both,ambiguous-switch,101,-20,left,left,0.341
VTM1984WRNO,2019-10-21-15-44-17,3,73,0.5210369418832556,left,probe,ambiguous-switch,-1,0,left,left,0.382
VTM1984WRNO,2019-10-21-15-44-17,3,74,0.525746217066742,left,both,ambiguous-switch,94,0,left,left,0.239
VTM1984WRNO,2019-10-21-15-44-17,3,75,0.5094447236619486,left,probe,biased-switch,-1,40,left,left,0.239
VTM1984WRNO,2019-10-21-15-44-17,3,76,0.6204299163890027,left,both,biased-switch,104,40,left,left,0.292
VTM1984WRNO,2019-10-21-15-44-17,3,77,0.5719328806892002,left,probe,ambiguous-switch,-1,-10,left,left,0.247
VTM1984WRNO,2019-10-21-15-44-17,3,78,0.6868570310695916,left,both,ambiguous-switch,108,-10,left,left,0.297
VTM1984WRNO,2019-10-21-15-44-17,3,79,0.5897898790384386,left,probe,ambiguous-switch,-1,40,right,right,0.322
VTM1984WRNO,2019-10-21-15-44-17,3,80,0.542722266162533,left,both,ambiguous-switch,106,40,right,left,0.286
VTM1984WRNO,2019-10-21-15-44-17,4,1,0.5272563418400165,right,probe,biased-switch,-1,10,left,left,0.077
VTM1984WRNO,2019-10-21-15-44-17,4,2,0.523945908666093,right,both,biased-switch,104,10,left,right,0.244
VTM1984WRNO,2019-10-21-15-44-17,4,3,0.5171357731889482,right,probe,ambiguous-switch,-1,-10,left,left,0.19
VTM1984WRNO,2019-10-21-15-44-17,4,4,0.5684139965799636,right,both,ambiguous-switch,109,-10,left,left,0.197
VTM1984WRNO,2019-10-21-15-44-17,4,5,0.6109590685783158,right,probe,biased-switch,-1,-20,left,left,0.162
VTM1984WRNO,2019-10-21-15-44-17,4,6,0.6815693970701421,right,both,biased-switch,100,-20,left,left,0.13
VTM1984WRNO,2019-10-21-15-44-17,4,7,0.6414002542122903,right,probe,ambiguous-switch,-1,-20,left,left,0.37
VTM1984WRNO,2019-10-21-15-44-17,4,8,0.5534456047348045,right,both,ambiguous-switch,101,-20,left,left,0.268
VTM1984WRNO,2019-10-21-15-44-17,4,9,0.5798344418006944,right,probe,biased-switch,-1,20,left,left,0.26
VTM1984WRNO,2019-10-21-15-44-17,4,10,0.5541914004867572,right,both,biased-switch,108,20,left,right,0.25
VTM1984WRNO,2019-10-21-15-44-17,4,11,0.509582433214985,left,probe,ambiguous-switch,-1,10,left,left,0.305
VTM1984WRNO,2019-10-21-15-44-17,4,12,0.5318183022610697,left,both,ambiguous-switch,105,10,left,right,0.009
VTM1984WRNO,2019-10-21-15-44-17,4,13,0.6305108208852944,left,probe,ambiguous-switch,-1,20,right,right,0.261
VTM1984WRNO,2019-10-21-15-44-17,4,14,0.6267460147813865,left,both,ambiguous-switch,91,20,right,left,2.625
VTM1984WRNO,2019-10-21-15-44-17,4,15,0.587848491442071,left,probe,biased-switch,-1,-30,left,left,0.246
VTM1984WRNO,2019-10-21-15-44-17,4,16,0.5626321254374537,left,both,biased-switch,99,-30,left,left,0.111
VTM1984WRNO,2019-10-21-15-44-17,4,17,0.5549693128025123,left,probe,ambiguous-switch,-1,-30,left,left,2.865
VTM1984WRNO,2019-10-21-15-44-17,4,18,0.5063892774757536,left,both,ambiguous-switch,98,-30,left,left,0.498
VTM1984WRNO,2019-10-21-15-44-17,4,19,0.6212252521796571,left,probe,biased-switch,-1,-10,left,left,0.29
VTM1984WRNO,2019-10-21-15-44-17,4,20,0.5029559993510725,left,both,biased-switch,96,-10,left,left,0.273
VTM1984WRNO,2019-10-21-15-44-17,4,21,0.6793092508963978,right,probe,ambiguous-switch,-1,0,left,left,0.32
VTM1984WRNO,2019-10-21-15-44-17,4,22,0.5600708846888787,right,both,ambiguous-switch,102,0,left,left,0.314
VTM1984WRNO,2019-10-21-15-44-17,4,23,0.5368947308884571,right,probe,ambiguous-switch,-1,-5,left,left,0.169
VTM1984WRNO,2019-10-21-15-44-17,4,24,0.5134163402144315,right,both,ambiguous-switch,106,-5,left,left,0.141
VTM1984WRNO,2019-10-21-15-44-17,4,25,0.6087761816836925,right,probe,biased-switch,-1,0,left,left,0.219
VTM1984WRNO,2019-10-21-15-44-17,4,26,0.5899745858740585,right,both,biased-switch,105,0,left,right,0.338
VTM1984WRNO,2019-10-21-15-44-17,4,27,0.5281408233487576,right,probe,ambiguous-switch,-1,5,left,left,0.22
VTM1984WRNO,2019-10-21-15-44-17,4,28,0.6609477399920781,right,both,ambiguous-switch,99,5,left,right,0.245
VTM1984WRNO,2019-10-21-15-44-17,4,29,0.5182423438921253,left,probe,biased-switch,-1,40,left,left,0.294
VTM1984WRNO,2019-10-21-15-44-17,4,30,0.6735564664404866,left,both,biased-switch,99,40,left,left,0.132
VTM1984WRNO,2019-10-21-15-44-17,4,31,0.622001847930098,right,probe,biased-switch,-1,30,left,left,0.244
VTM1984WRNO,2019-10-21-15-44-17,4,32,0.5854600602292316,right,both,biased-switch,106,30,left,left,0.117
VTM1984WRNO,2019-10-21-15-44-17,4,33,0.5841411328735141,left,probe,biased-switch,-1,-5,left,left,0.267
VTM1984WRNO,2019-10-21-15-44-17,4,34,0.5838751934875818,left,both,biased-switch,105,-5,left,left,0.276
VTM1984WRNO,2019-10-21-15-44-17,4,35,0.5345086655586757,left,probe,ambiguous-switch,-1,40,right,right,0.433
VTM1984WRNO,2019-10-21-15-44-17,4,36,0.5061658218135802,left,both,ambiguous-switch,92,40,right,left,0.085
VTM1984WRNO,2019-10-21-15-44-17,4,37,0.6442822776000402,right,probe,biased-switch,-1,5,left,left,0.252
VTM1984WRNO,2019-10-21-15-44-17,4,38,0.6029820703456211,right,both,biased-switch,102,5,left,right,0.299
VTM1984WRNO,2019-10-21-15-44-17,4,39,0.5836477014166022,right,probe,ambiguous-switch,-1,30,left,left,0.279
VTM1984WRNO,2019-10-21-15-44-17,4,40,0.5503614055397987,right,both,ambiguous-switch,106,30,left,left,0.259
VTM1984WRNO,2019-10-21-15-44-17,4,41,0.6781086005514899,right,probe,biased-switch,-1,10,left,left,0.257
VTM1984WRNO,2019-10-21-15-44-17,4,42,0.5306391798510388,right,both,biased-switch,102,10,left,left,0.265
VTM1984WRNO,2019-10-21-15-44-17,4,43,0.5004898917274507,right,probe,ambiguous-switch,-1,-10,left,left,0.256
VTM1984WRNO,2019-10-21-15-44-17,4,44,0.6435527912820411,right,both,ambiguous-switch,97,-10,left,left,0.253
VTM1984WRNO,2019-10-21-15-44-17,4,45,0.6788099610454741,left,probe,biased-switch,-1,-20,left,left,0.237
VTM1984WRNO,2019-10-21-15-44-17,4,46,0.6430939212003604,left,both,biased-switch,102,-20,left,left,0.428
VTM1984WRNO,2019-10-21-15-44-17,4,47,0.6019582983000085,left,probe,ambiguous-switch,-1,-20,left,left,0.338
VTM1984WRNO,2019-10-21-15-44-17,4,48,0.6845969179926545,left,both,ambiguous-switch,108,-20,left,right,0.476
VTM1984WRNO,2019-10-21-15-44-17,4,49,0.5231571148996752,left,probe,biased-switch,-1,20,left,left,0.417
VTM1984WRNO,2019-10-21-15-44-17,4,50,0.5144457216361161,left,both,biased-switch,104,20,left,right,0.352
VTM1984WRNO,2019-10-21-15-44-17,4,51,0.5177947111120261,right,probe,ambiguous-switch,-1,10,left,left,0.308
VTM1984WRNO,2019-10-21-15-44-17,4,52,0.5991524182844341,right,both,ambiguous-switch,107,10,left,right,0.494
VTM1984WRNO,2019-10-21-15-44-17,4,53,0.6136431238654506,left,probe,ambiguous-switch,-1,20,left,left,0.277
VTM1984WRNO,2019-10-21-15-44-17,4,54,0.5260905348796285,left,both,ambiguous-switch,109,20,left,right,0.236
VTM1984WRNO,2019-10-21-15-44-17,4,55,0.6898228767253203,right,probe,biased-switch,-1,-30,left,left,0.261
VTM1984WRNO,2019-10-21-15-44-17,4,56,0.6320552430682631,right,both,biased-switch,100,-30,left,left,0.216
VTM1984WRNO,2019-10-21-15-44-17,4,57,0.513291897093187,left,probe,ambiguous-switch,-1,-30,left,left,0.326
VTM1984WRNO,2019-10-21-15-44-17,4,58,0.6780472726027876,left,both,ambiguous-switch,96,-30,left,left,0.693
VTM1984WRNO,2019-10-21-15-44-17,4,59,0.5300526303701733,left,probe,biased-switch,-1,-10,left,left,0.223
VTM1984WRNO,2019-10-21-15-44-17,4,60,0.6594698524852077,left,both,biased-switch,100,-10,left,right,0.968
VTM1984WRNO,2019-10-21-15-44-17,4,61,0.656693315316013,right,probe,ambiguous-switch,-1,0,left,left,0.794
VTM1984WRNO,2019-10-21-15-44-17,4,62,0.6496890409178787,right,both,ambiguous-switch,109,0,left,right,0.397
VTM1984WRNO,2019-10-21-15-44-17,4,63,0.6072763464932428,right,probe,ambiguous-switch,-1,-5,left,left,0.379
VTM1984WRNO,2019-10-21-15-44-17,4,64,0.5931323646966373,right,both,ambiguous-switch,97,-5,left,left,0.254
VTM1984WRNO,2019-10-21-15-44-17,4,65,0.695667392027175,left,probe,biased-switch,-1,0,left,left,0.33
VTM1984WRNO,2019-10-21-15-44-17,4,66,0.6950912684257688,left,both,biased-switch,99,0,left,right,0.238
VTM1984WRNO,2019-10-21-15-44-17,4,67,0.620794698669479,right,probe,ambiguous-switch,-1,5,left,left,0.237
VTM1984WRNO,2019-10-21-15-44-17,4,68,0.6569639171831078,right,both,ambiguous-switch,99,5,left,right,0.222
VTM1984WRNO,2019-10-21-15-44-17,4,69,0.6426159509651497,left,probe,biased-switch,-1,40,left,left,0.307
VTM1984WRNO,2019-10-21-15-44-17,4,70,0.5023154883651925,left,both,biased-switch,92,40,left,left,0.491
VTM1984WRNO,2019-10-21-15-44-17,4,71,0.6844527983600242,left,probe,biased-switch,-1,30,left,left,0.411
VTM1984WRNO,2019-10-21-15-44-17,4,72,0.6140914208615004,left,both,biased-switch,104,30,left,left,0.184
VTM1984WRNO,2019-10-21-15-44-17,4,73,0.6575073973452551,left,probe,biased-switch,-1,-5,left,left,0.242
VTM1984WRNO,2019-10-21-15-44-17,4,74,0.6275068262315701,left,both,biased-switch,103,-5,left,right,0.426
VTM1984WRNO,2019-10-21-15-44-17,4,75,0.6405053140493986,left,probe,ambiguous-switch,-1,40,left,left,0.459
VTM1984WRNO,2019-10-21-15-44-17,4,76,0.5818413767920664,left,both,ambiguous-switch,104,40,left,left,0.311
VTM1984WRNO,2019-10-21-15-44-17,4,77,0.6321512177425835,left,probe,biased-switch,-1,5,left,left,0.305
VTM1984WRNO,2019-10-21-15-44-17,4,78,0.5871809916515166,left,both,biased-switch,104,5,left,right,0.226
VTM1984WRNO,2019-10-21-15-44-17,4,79,0.5058504824193415,left,probe,ambiguous-switch,-1,30,left,left,0.288
VTM1984WRNO,2019-10-21-15-44-17,4,80,0.6225362551717278,left,both,ambiguous-switch,103,30,left,left,0.302
VTM1984WRNO,2019-10-21-15-44-17,5,1,0.592623514683194,right,probe,ambiguous-switch,-1,10,left,left,1.332
VTM1984WRNO,2019-10-21-15-44-17,5,2,0.5132089241610429,right,both,ambiguous-switch,93,10,left,left,0.27
VTM1984WRNO,2019-10-21-15-44-17,5,3,0.6651094428395273,left,probe,biased-switch,-1,-30,left,left,0.237
VTM1984WRNO,2019-10-21-15-44-17,5,4,0.5014694667200037,left,both,biased-switch,94,-30,left,right,0.239
VTM1984WRNO,2019-10-21-15-44-17,5,5,0.5376972885246947,left,probe,ambiguous-switch,-1,20,left,left,0.186
VTM1984WRNO,2019-10-21-15-44-17,5,6,0.6467511085430062,left,both,ambiguous-switch,108,20,left,left,0.274
VTM1984WRNO,2019-10-21-15-44-17,5,7,0.6055900207521348,left,probe,biased-switch,-1,30,left,left,0.241
VTM1984WRNO,2019-10-21-15-44-17,5,8,0.5130371469935875,left,both,biased-switch,100,30,left,left,0.2
VTM1984WRNO,2019-10-21-15-44-17,5,9,0.6610570853281037,left,probe,biased-switch,-1,-20,left,left,0.137
VTM1984WRNO,2019-10-21-15-44-17,5,10,0.5872946400361276,left,both,biased-switch,107,-20,left,left,0.279
VTM1984WRNO,2019-10-21-15-44-17,5,11,0.6964060601466514,right,probe,biased-switch,-1,20,left,left,0.18
VTM1984WRNO,2019-10-21-15-44-17,5,12,0.6919959139427467,right,both,biased-switch,104,20,left,right,0.249
VTM1984WRNO,2019-10-21-15-44-17,5,13,0.5061646747050474,right,probe,ambiguous-switch,-1,-20,left,left,0.258
VTM1984WRNO,2019-10-21-15-44-17,5,14,0.5552577573895728,right,both,ambiguous-switch,107,-20,left,left,0.038
VTM1984WRNO,2019-10-21-15-44-17,5,15,0.5776836325690243,left,probe,ambiguous-switch,-1,-5,left,left,0.207
VTM1984WRNO,2019-10-21-15-44-17,5,16,0.5192387584489245,left,both,ambiguous-switch,93,-5,left,left,0.207
VTM1984WRNO,2019-10-21-15-44-17,5,17,0.5114991182580826,left,probe,biased-switch,-1,0,left,left,0.234
VTM1984WRNO,2019-10-21-15-44-17,5,18,0.662121360179823,left,both,biased-switch,103,0,left,left,0.205
VTM1984WRNO,2019-10-21-15-44-17,5,19,0.6915171992344984,right,probe,biased-switch,-1,40,left,left,0.17
VTM1984WRNO,2019-10-21-15-44-17,5,20,0.5803443921344303,right,both,biased-switch,103,40,left,left,0.136
VTM1984WRNO,2019-10-21-15-44-17,5,21,0.6045109394075555,left,probe,biased-switch,-1,-5,left,left,0.27
VTM1984WRNO,2019-10-21-15-44-17,5,22,0.6615377777861233,left,both,biased-switch,108,-5,left,right,0.29
VTM1984WRNO,2019-10-21-15-44-17,5,23,0.6087358700770954,right,probe,ambiguous-switch,-1,-10,left,left,0.248
VTM1984WRNO,2019-10-21-15-44-17,5,24,0.6323225092541128,right,both,ambiguous-switch,98,-10,left,left,0.211
VTM1984WRNO,2019-10-21-15-44-17,5,25,0.5264482577432342,right,probe,biased-switch,-1,-10,left,left,0.277
VTM1984WRNO,2019-10-21-15-44-17,5,26,0.6135313505565217,right,both,biased-switch,92,-10,left,left,0.228
VTM1984WRNO,2019-10-21-15-44-17,5,27,0.6969261144253817,right,probe,ambiguous-switch,-1,0,left,left,0.239
VTM1984WRNO,2019-10-21-15-44-17,5,28,0.5221222629951833,right,both,ambiguous-switch,98,0,left,left,0.174
VTM1984WRNO,2019-10-21-15-44-17,5,29,0.5111870737220097,right,probe,biased-switch,-1,5,left,left,0.215
VTM1984WRNO,2019-10-21-15-44-17,5,30,0.657010409402061,right,both,biased-switch,99,5,left,right,0.221
VTM1984WRNO,2019-10-21-15-44-17,5,31,0.6492646347537042,left,probe,biased-switch,-1,10,left,left,0.329
VTM1984WRNO,2019-10-21-15-44-17,5,32,0.6659189938008139,left,both,biased-switch,102,10,left,right,0.123
VTM1984WRNO,2019-10-21-15-44-17,5,33,0.5475166407234664,right,probe,ambiguous-switch,-1,5,left,left,0.208
VTM1984WRNO,2019-10-21-15-44-17,5,34,0.5118519298718698,right,both,ambiguous-switch,91,5,left,right,0.247
VTM1984WRNO,2019-10-21-15-44-17,5,35,0.5912310827611039,left,probe,ambiguous-switch,-1,40,left,left,0.164
VTM1984WRNO,2019-10-21-15-44-17,5,36,0.570153954441055,left,both,ambiguous-switch,99,40,left,left,0.233
VTM1984WRNO,2019-10-21-15-44-17,5,37,0.5036838777320222,right,probe,ambiguous-switch,-1,30,left,left,0.204
VTM1984WRNO,2019-10-21-15-44-17,5,38,0.5750121732114831,right,both,ambiguous-switch,108,30,left,left,0.025
VTM1984WRNO,2019-10-21-15-44-17,5,39,0.5380967239940853,right,probe,ambiguous-switch,-1,-30,left,left,0.192
VTM1984WRNO,2019-10-21-15-44-17,5,40,0.5123274717048256,right,both,ambiguous-switch,99,-30,left,left,0.222
VTM1984WRNO,2019-10-21-15-44-17,5,41,0.6001393077428238,right,probe,ambiguous-switch,-1,10,left,left,0.235
VTM1984WRNO,2019-10-21-15-44-17,5,42,0.5779133403319964,right,both,ambiguous-switch,97,10,left,left,0.231
VTM1984WRNO,2019-10-21-15-44-17,5,43,0.5289804452097532,right,probe,biased-switch,-1,-30,left,left,0.041
VTM1984WRNO,2019-10-21-15-44-17,5,44,0.5751796476911732,right,both,biased-switch,104,-30,left,right,0.458
VTM1984WRNO,2019-10-21-15-44-17,5,45,0.5285088507216203,left,probe,ambiguous-switch,-1,20,left,left,0.147
VTM1984WRNO,2019-10-21-15-44-17,5,46,0.6146038442607417,left,both,ambiguous-switch,101,20,left,right,0.002
VTM1984WRNO,2019-10-21-15-44-17,5,47,0.5673527540914023,right,probe,biased-switch,-1,30,left,left,0.213
VTM1984WRNO,2019-10-21-15-44-17,5,48,0.5127366633003433,right,both,biased-switch,99,30,left,left,0.023
VTM1984WRNO,2019-10-21-15-44-17,5,49,0.5674301421200432,left,probe,biased-switch,-1,-20,left,left,0.226
VTM1984WRNO,2019-10-21-15-44-17,5,50,0.6298706953605597,left,both,biased-switch,91,-20,left,right,0.276
VTM1984WRNO,2019-10-21-15-44-17,5,51,0.5788286806639267,left,probe,biased-switch,-1,20,right,right,0.228
VTM1984WRNO,2019-10-21-15-44-17,5,52,0.56363105906717,left,both,biased-switch,105,20,right,left,0.2
VTM1984WRNO,2019-10-21-15-44-17,5,53,0.559673893820612,right,probe,ambiguous-switch,-1,-20,left,left,0.269
VTM1984WRNO,2019-10-21-15-44-17,5,54,0.6550184022593951,right,both,ambiguous-switch,107,-20,left,left,3.546
VTM1984WRNO,2019-10-21-15-44-17,5,55,0.5431551669515278,left,probe,ambiguous-switch,-1,-5,left,left,0.288
VTM1984WRNO,2019-10-21-15-44-17,5,56,0.6329919058051376,left,both,ambiguous-switch,95,-5,left,right,0.037
VTM1984WRNO,2019-10-21-15-44-17,5,57,0.6096282273279771,left,probe,biased-switch,-1,0,left,left,0.145
VTM1984WRNO,2019-10-21-15-44-17,5,58,0.6941956056774174,left,both,biased-switch,94,0,left,right,0.014
VTM1984WRNO,2019-10-21-15-44-17,5,59,0.6704992810952237,right,probe,biased-switch,-1,40,left,left,0.226
VTM1984WRNO,2019-10-21-15-44-17,5,60,0.6910271529899482,right,both,biased-switch,92,40,left,left,3.343
VTM1984WRNO,2019-10-21-15-44-17,5,61,0.5809715757584858,right,probe,biased-switch,-1,-5,left,left,0.236
VTM1984WRNO,2019-10-21-15-44-17,5,62,0.6949184867142257,right,both,biased-switch,91,-5,left,right,0.321
VTM1984WRNO,2019-10-21-15-44-17,5,63,0.5927341617126983,right,probe,ambiguous-switch,-1,-10,left,left,0.265
VTM1984WRNO,2019-10-21-15-44-17,5,64,0.6707301659423816,right,both,ambiguous-switch,91,-10,left,left,0.228
VTM1984WRNO,2019-10-21-15-44-17,5,65,0.6968884309267831,right,probe,biased-switch,-1,-10,left,left,0.106
VTM1984WRNO,2019-10-21-15-44-17,5,66,0.5239740885881742,right,both,biased-switch,91,-10,left,left,0.187
VTM1984WRNO,2019-10-21-15-44-17,5,67,0.5203414244959338,right,probe,ambiguous-switch,-1,0,left,left,0.203
VTM1984WRNO,2019-10-21-15-44-17,5,68,0.5374634286630104,right,both,ambiguous-switch,93,0,left,left,0.194
VTM1984WRNO,2019-10-21-15-44-17,5,69,0.6167500461894919,right,probe,biased-switch,-1,5,left,left,0.294
VTM1984WRNO,2019-10-21-15-44-17,5,70,0.6616658025180385,right,both,biased-switch,104,5,left,right,0.26
VTM1984WRNO,2019-10-21-15-44-17,5,71,0.6162352133396672,right,probe,biased-switch,-1,10,right,right,0.287
VTM1984WRNO,2019-10-21-15-44-17,5,72,0.6391509268434568,right,both,biased-switch,99,10,right,left,0.296
VTM1984WRNO,2019-10-21-15-44-17,5,73,0.6648221726788702,right,probe,ambiguous-switch,-1,5,left,left,0.255
VTM1984WRNO,2019-10-21-15-44-17,5,74,0.5916616458107019,right,both,ambiguous-switch,97,5,left,left,0.285
VTM1984WRNO,2019-10-21-15-44-17,5,75,0.5430963667305213,left,probe,ambiguous-switch,-1,40,left,left,0.301
VTM1984WRNO,2019-10-21-15-44-17,5,76,0.6646743132018123,left,both,ambiguous-switch,92,40,left,left,0.261
VTM1984WRNO,2019-10-21-15-44-17,5,77,0.6119551930573888,left,probe,ambiguous-switch,-1,30,left,left,0.551
VTM1984WRNO,2019-10-21-15-44-17,5,78,0.6329586821440919,left,both,ambiguous-switch,110,30,left,right,0.134
VTM1984WRNO,2019-10-21-15-44-17,5,79,0.6814406284970101,right,probe,ambiguous-switch,-1,-30,left,left,0.207
VTM1984WRNO,2019-10-21-15-44-17,5,80,0.5930694027284173,right,both,ambiguous-switch,93,-30,left,left,0.196
VTM1984WRNO,2019-10-21-15-44-17,6,1,0.5802333737296345,left,probe,ambiguous-switch,-1,0,left,left,1.772
VTM1984WRNO,2019-10-21-15-44-17,6,2,0.5159231115665028,left,both,ambiguous-switch,110,0,left,right,0.047
VTM1984WRNO,2019-10-21-15-44-17,6,3,0.5994097424521734,right,probe,biased-switch,-1,0,left,left,3.16
VTM1984WRNO,2019-10-21-15-44-17,6,4,0.6052232048405122,right,both,biased-switch,93,0,left,right,0.409
VTM1984WRNO,2019-10-21-15-44-17,6,5,0.6071979994814265,right,probe,ambiguous-switch,-1,10,left,left,0.263
VTM1984WRNO,2019-10-21-15-44-17,6,6,0.6268640244549568,right,both,ambiguous-switch,94,10,left,left,0.263
VTM1984WRNO,2019-10-21-15-44-17,6,7,0.5358078825035473,right,probe,biased-switch,-1,-20,left,left,0.254
VTM1984WRNO,2019-10-21-15-44-17,6,8,0.656584398957476,right,both,biased-switch,92,-20,left,right,0.286
VTM1984WRNO,2019-10-21-15-44-17,6,9,0.5488084277284417,right,probe,ambiguous-switch,-1,5,left,left,0.228
VTM1984WRNO,2019-10-21-15-44-17,6,10,0.525856765131721,right,both,ambiguous-switch,92,5,left,left,0.229
VTM1984WRNO,2019-10-21-15-44-17,6,11,0.6244600550546549,right,probe,ambiguous-switch,-1,-20,left,left,0.229
VTM1984WRNO,2019-10-21-15-44-17,6,12,0.5649963792810251,right,both,ambiguous-switch,99,-20,left,left,0.259
VTM1984WRNO,2019-10-21-15-44-17,6,13,0.6655135072822428,right,probe,ambiguous-switch,-1,30,right,right,1.036
VTM1984WRNO,2019-10-21-15-44-17,6,14,0.6708473224521485,right,both,ambiguous-switch,99,30,right,left,0.247
VTM1984WRNO,2019-10-21-15-44-17,6,15,0.5452291705658023,left,probe,ambiguous-switch,-1,-5,left,left,0.316
VTM1984WRNO,2019-10-21-15-44-17,6,16,0.5986839855370074,left,both,ambiguous-switch,105,-5,left,left,0.227
VTM1984WRNO,2019-10-21-15-44-17,6,17,0.6167126531280542,right,probe,ambiguous-switch,-1,-10,left,left,0.288
VTM1984WRNO,2019-10-21-15-44-17,6,18,0.53383929579047,right,both,ambiguous-switch,104,-10,left,left,0.243
VTM1984WRNO,2019-10-21-15-44-17,6,19,0.5587023343500714,right,probe,biased-switch,-1,40,left,left,0.181
VTM1984WRNO,2019-10-21-15-44-17,6,20,0.6451717172777338,right,both,biased-switch,108,40,left,right,0.455
VTM1984WRNO,2019-10-21-15-44-17,6,21,0.5610680998613302,left,probe,biased-switch,-1,20,left,left,0.2
VTM1984WRNO,2019-10-21-15-44-17,6,22,0.523588571915235,left,both,biased-switch,106,20,left,right,0.219
VTM1984WRNO,2019-10-21-15-44-17,6,23,0.5636184661078559,right,probe,biased-switch,-1,-30,left,left,0.184
VTM1984WRNO,2019-10-21-15-44-17,6,24,0.6559656761105325,right,both,biased-switch,110,-30,left,left,0.072
VTM1984WRNO,2019-10-21-15-44-17,6,25,0.5137692151760505,right,probe,biased-switch,-1,-5,left,left,0.232
VTM1984WRNO,2019-10-21-15-44-17,6,26,0.5283111742435653,right,both,biased-switch,105,-5,left,left,0.273
VTM1984WRNO,2019-10-21-15-44-17,6,27,0.5782308794664822,right,probe,biased-switch,-1,10,left,left,0.061
VTM1984WRNO,2019-10-21-15-44-17,6,28,0.5832309814993419,right,both,biased-switch,110,10,left,right,0.264
VTM1984WRNO,2019-10-21-15-44-17,6,29,0.5564192787495407,left,probe,biased-switch,-1,30,left,left,0.216
VTM1984WRNO,2019-10-21-15-44-17,6,30,0.6621222877796775,left,both,biased-switch,99,30,left,right,0.295
VTM1984WRNO,2019-10-21-15-44-17,6,31,0.6011778471502556,left,probe,ambiguous-switch,-1,20,left,left,0.249
VTM1984WRNO,2019-10-21-15-44-17,6,32,0.6385945000229356,left,both,ambiguous-switch,98,20,left,right,0.24
VTM1984WRNO,2019-10-21-15-44-17,6,33,0.6773080259542021,left,probe,ambiguous-switch,-1,40,right,right,0.196
VTM1984WRNO,2019-10-21-15-44-17,6,34,0.5096582466339032,left,both,ambiguous-switch,106,40,right,right,0.275
VTM1984WRNO,2019-10-21-15-44-17,6,35,0.63990561411309,right,probe,biased-switch,-1,-10,right,right,0.236
VTM1984WRNO,2019-10-21-15-44-17,6,36,0.5670137611097534,right,both,biased-switch,94,-10,right,right,0.266
VTM1984WRNO,2019-10-21-15-44-17,6,37,0.5947733417385429,left,probe,ambiguous-switch,-1,-30,right,right,0.205
VTM1984WRNO,2019-10-21-15-44-17,6,38,0.6535997449501071,left,both,ambiguous-switch,104,-30,right,right,0.308
VTM1984WRNO,2019-10-21-15-44-17,6,39,0.5686749028747764,left,probe,biased-switch,-1,5,right,right,0.193
VTM1984WRNO,2019-10-21-15-44-17,6,40,0.606323027532259,left,both,biased-switch,108,5,right,left,0.389
VTM1984WRNO,2019-10-21-15-44-17,6,41,0.6170158100189501,right,probe,ambiguous-switch,-1,0,left,left,0.261
VTM1984WRNO,2019-10-21-15-44-17,6,42,0.6531953251129075,right,both,ambiguous-switch,108,0,left,left,0.213
VTM1984WRNO,2019-10-21-15-44-17,6,43,0.5202439578318548,right,probe,biased-switch,-1,0,left,left,0.218
VTM1984WRNO,2019-10-21-15-44-17,6,44,0.6443226557406692,right,both,biased-switch,91,0,left,right,0.268
VTM1984WRNO,2019-10-21-15-44-17,6,45,0.6289320628707511,right,probe,ambiguous-switch,-1,10,right,right,0.218
VTM1984WRNO,2019-10-21-15-44-17,6,46,0.5335013033223983,right,both,ambiguous-switch,105,10,right,right,0.097
VTM1984WRNO,2019-10-21-15-44-17,6,47,0.5196699973031936,left,probe,biased-switch,-1,-20,right,right,0.219
VTM1984WRNO,2019-10-21-15-44-17,6,48,0.6465228596276735,left,both,biased-switch,103,-20,right,right,0.052
VTM1984WRNO,2019-10-21-15-44-17,6,49,0.6033295128542093,right,probe,ambiguous-switch,-1,5,right,right,0.253
VTM1984WRNO,2019-10-21-15-44-17,6,50,0.6501063345554245,right,both,ambiguous-switch,94,5,right,right,0.237
VTM1984WRNO,2019-10-21-15-44-17,6,51,0.6728471303081525,right,probe,ambiguous-switch,-1,-20,right,right,0.186
VTM1984WRNO,2019-10-21-15-44-17,6,52,0.5177414989145741,right,both,ambiguous-switch,110,-20,right,right,0.117
VTM1984WRNO,2019-10-21-15-44-17,6,53,0.6791405692915484,left,probe,ambiguous-switch,-1,30,right,right,0.178
VTM1984WRNO,2019-10-21-15-44-17,6,54,0.5064513300875956,left,both,ambiguous-switch,92,30,right,right,0.231
VTM1984WRNO,2019-10-21-15-44-17,6,55,0.6670600607379464,right,probe,ambiguous-switch,-1,-5,right,right,0.299
VTM1984WRNO,2019-10-21-15-44-17,6,56,0.6914937826303851,right,both,ambiguous-switch,91,-5,right,right,0.234
VTM1984WRNO,2019-10-21-15-44-17,6,57,0.5147795577211286,right,probe,ambiguous-switch,-1,-10,right,right,0.242
VTM1984WRNO,2019-10-21-15-44-17,6,58,0.5093027668783755,right,both,ambiguous-switch,105,-10,right,right,0.221
VTM1984WRNO,2019-10-21-15-44-17,6,59,0.6352643775762369,left,probe,biased-switch,-1,40,right,right,0.228
VTM1984WRNO,2019-10-21-15-44-17,6,60,0.66417512445113,left,both,biased-switch,93,40,right,right,0.089
VTM1984WRNO,2019-10-21-15-44-17,6,61,0.6421236017547158,left,probe,biased-switch,-1,20,right,right,0.208
VTM1984WRNO,2019-10-21-15-44-17,6,62,0.5120764423337505,left,both,biased-switch,101,20,right,right,0.077
VTM1984WRNO,2019-10-21-15-44-17,6,63,0.596651282245726,left,probe,biased-switch,-1,-30,right,right,0.205
VTM1984WRNO,2019-10-21-15-44-17,6,64,0.5432855283206044,left,both,biased-switch,92,-30,right,right,0.243
VTM1984WRNO,2019-10-21-15-44-17,6,65,0.640091012379116,right,probe,biased-switch,-1,-5,right,right,0.225
VTM1984WRNO,2019-10-21-15-44-17,6,66,0.6619426469331231,right,both,biased-switch,92,-5,right,right,0.253
VTM1984WRNO,2019-10-21-15-44-17,6,67,0.6684325215690247,right,probe,biased-switch,-1,10,right,right,0.244
VTM1984WRNO,2019-10-21-15-44-17,6,68,0.6872190623554636,right,both,biased-switch,109,10,right,left,0.277
VTM1984WRNO,2019-10-21-15-44-17,6,69,0.6767559025435803,left,probe,biased-switch,-1,30,right,right,0.132
VTM1984WRNO,2019-10-21-15-44-17,6,70,0.5997046503035894,left,both,biased-switch,99,30,right,right,0.217
VTM1984WRNO,2019-10-21-15-44-17,6,71,0.6998051071940113,right,probe,ambiguous-switch,-1,20,right,right,0.269
VTM1984WRNO,2019-10-21-15-44-17,6,72,0.5505379326439275,right,both,ambiguous-switch,99,20,right,right,0.066
VTM1984WRNO,2019-10-21-15-44-17,6,73,0.5477349467057284,left,probe,ambiguous-switch,-1,40,right,right,0.185
VTM1984WRNO,2019-10-21-15-44-17,6,74,0.6492927367197578,left,both,ambiguous-switch,92,40,right,right,0.22
VTM1984WRNO,2019-10-21-15-44-17,6,75,0.5748033640539455,left,probe,biased-switch,-1,-10,right,right,0.239
VTM1984WRNO,2019-10-21-15-44-17,6,76,0.532372572934495,left,both,biased-switch,91,-10,right,right,0.22
VTM1984WRNO,2019-10-21-15-44-17,6,77,0.5156901851614147,left,probe,ambiguous-switch,-1,-30,right,right,0.241
VTM1984WRNO,2019-10-21-15-44-17,6,78,0.6031202294742678,left,both,ambiguous-switch,92,-30,right,left,0.554
VTM1984WRNO,2019-10-21-15-44-17,6,79,0.5765409011028659,right,probe,biased-switch,-1,5,right,right,0.317
VTM1984WRNO,2019-10-21-15-44-17,6,80,0.600513637123594,right,both,biased-switch,98,5,right,left,0.257
VTM1984WRNO,2019-10-21-15-44-17,7,1,0.5606957282398359,right,probe,ambiguous-switch,-1,5,right,right,0.19
VTM1984WRNO,2019-10-21-15-44-17,7,2,0.5697559241190912,right,both,ambiguous-switch,103,5,right,right,3.183
VTM1984WRNO,2019-10-21-15-44-17,7,3,0.5099814707650974,right,probe,biased-switch,-1,0,right,right,0.236
VTM1984WRNO,2019-10-21-15-44-17,7,4,0.6032478176721234,right,both,biased-switch,104,0,right,right,0.297
VTM1984WRNO,2019-10-21-15-44-17,7,5,0.5675815790124973,left,probe,ambiguous-switch,-1,30,right,right,0.434
VTM1984WRNO,2019-10-21-15-44-17,7,6,0.5480132351974976,left,both,ambiguous-switch,92,30,right,right,0.229
VTM1984WRNO,2019-10-21-15-44-17,7,7,0.5968597745136393,left,probe,ambiguous-switch,-1,20,right,right,0.238
VTM1984WRNO,2019-10-21-15-44-17,7,8,0.574258410574747,left,both,ambiguous-switch,94,20,right,right,0.259
VTM1984WRNO,2019-10-21-15-44-17,7,9,0.6528370930570564,right,probe,biased-switch,-1,30,right,right,0.227
VTM1984WRNO,2019-10-21-15-44-17,7,10,0.644857979249345,right,both,biased-switch,101,30,right,right,0.241
VTM1984WRNO,2019-10-21-15-44-17,7,11,0.5060058527827028,left,probe,ambiguous-switch,-1,-5,right,right,0.292
VTM1984WRNO,2019-10-21-15-44-17,7,12,0.53335984372331,left,both,ambiguous-switch,99,-5,right,left,0.591
VTM1984WRNO,2019-10-21-15-44-17,7,13,0.6010930067757972,left,probe,ambiguous-switch,-1,40,right,right,0.235
VTM1984WRNO,2019-10-21-15-44-17,7,14,0.5592003157137696,left,both,ambiguous-switch,96,40,right,right,0.211
VTM1984WRNO,2019-10-21-15-44-17,7,15,0.6137920547018075,right,probe,biased-switch,-1,-30,right,right,0.244
VTM1984WRNO,2019-10-21-15-44-17,7,16,0.5114920304724927,right,both,biased-switch,107,-30,right,right,0.298
VTM1984WRNO,2019-10-21-15-44-17,7,17,0.5182050804245566,left,probe,biased-switch,-1,5,right,right,0.257
VTM1984WRNO,2019-10-21-15-44-17,7,18,0.6544910618961259,left,both,biased-switch,98,5,right,left,0.287
VTM1984WRNO,2019-10-21-15-44-17,7,19,0.5813455899403392,right,probe,biased-switch,-1,-5,right,right,0.269
VTM1984WRNO,2019-10-21-15-44-17,7,20,0.5308743618178223,right,both,biased-switch,109,-5,right,left,0.327
VTM1984WRNO,2019-10-21-15-44-17,7,21,0.6552211863805456,right,probe,biased-switch,-1,-20,right,right,0.247
VTM1984WRNO,2019-10-21-15-44-17,7,22,0.6304563985188042,right,both,biased-switch,100,-20,right,left,0.203
VTM1984WRNO,2019-10-21-15-44-17,7,23,0.599643034054076,right,probe,ambiguous-switch,-1,0,right,right,0.25
VTM1984WRNO,2019-10-21-15-44-17,7,24,0.5206628922040158,right,both,ambiguous-switch,90,0,right,left,0.213
VTM1984WRNO,2019-10-21-15-44-17,7,25,0.6871215355076987,left,probe,biased-switch,-1,40,right,right,0.209
VTM1984WRNO,2019-10-21-15-44-17,7,26,0.6136001309203342,left,both,biased-switch,95,40,right,right,0.206
VTM1984WRNO,2019-10-21-15-44-17,7,27,0.6040017564515276,right,probe,ambiguous-switch,-1,-30,right,right,0.288
VTM1984WRNO,2019-10-21-15-44-17,7,28,0.5438042010771806,right,both,ambiguous-switch,98,-30,right,right,0.28
VTM1984WRNO,2019-10-21-15-44-17,7,29,0.6709419749265266,right,probe,ambiguous-switch,-1,-10,right,right,0.34
VTM1984WRNO,2019-10-21-15-44-17,7,30,0.6941196377433134,right,both,ambiguous-switch,106,-10,right,left,0.276
VTM1984WRNO,2019-10-21-15-44-17,7,31,0.61890147585577,right,probe,biased-switch,-1,20,left,left,0.303
VTM1984WRNO,2019-10-21-15-44-17,7,32,0.6229705912381622,right,both,biased-switch,105,20,left,right,0.228
VTM1984WRNO,2019-10-21-15-44-17,7,33,0.5212586284601564,left,probe,ambiguous-switch,-1,10,right,right,0.237
VTM1984WRNO,2019-10-21-15-44-17,7,34,0.5144344127602687,left,both,ambiguous-switch,91,10,right,right,0.203
VTM1984WRNO,2019-10-21-15-44-17,7,35,0.6654798471663442,right,probe,biased-switch,-1,-10,right,right,0.216
VTM1984WRNO,2019-10-21-15-44-17,7,36,0.5602791998137584,right,both,biased-switch,103,-10,right,left,0.407
VTM1984WRNO,2019-10-21-15-44-17,7,37,0.5453606215960038,left,probe,ambiguous-switch,-1,-20,right,right,0.285
VTM1984WRNO,2019-10-21-15-44-17,7,38,0.6461810322393694,left,both,ambiguous-switch,98,-20,right,right,0.28
VTM1984WRNO,2019-10-21-15-44-17,7,39,0.6610140905981794,left,probe,biased-switch,-1,10,right,right,0.239
VTM1984WRNO,2019-10-21-15-44-17,7,40,0.6410652176074823,left,both,biased-switch,106,10,right,left,0.305
VTM1984WRNO,2019-10-21-15-44-17,7,41,0.6645330105039414,right,probe,ambiguous-switch,-1,5,right,right,0.262
VTM1984WRNO,2019-10-21-15-44-17,7,42,0.6719811570275608,right,both,ambiguous-switch,94,5,right,right,0.303
VTM1984WRNO,2019-10-21-15-44-17,7,43,0.5425610311813058,right,probe,biased-switch,-1,0,right,right,0.272
VTM1984WRNO,2019-10-21-15-44-17,7,44,0.5398730737575134,right,both,biased-switch,94,0,right,left,0.224
VTM1984WRNO,2019-10-21-15-44-17,7,45,0.5602370564242735,left,probe,ambiguous-switch,-1,30,right,right,0.261
VTM1984WRNO,2019-10-21-15-44-17,7,46,0.6113113035474407,left,both,ambiguous-switch,110,30,right,right,0.021
VTM1984WRNO,2019-10-21-15-44-17,7,47,0.5003689076620076,right,probe,ambiguous-switch,-1,20,right,right,0.285
VTM1984WRNO,2019-10-21-15-44-17,7,48,0.6463933347261177,right,both,ambiguous-switch,94,20,right,left,0.243
VTM1984WRNO,2019-10-21-15-44-17,7,49,0.6222463178770617,left,probe,biased-switch,-1,30,right,right,0.246
VTM1984WRNO,2019-10-21-15-44-17,7,50,0.6611839453260333,left,both,biased-switch,98,30,right,right,0.211
VTM1984WRNO,2019-10-21-15-44-17,7,51,0.6441984791197514,right,probe,ambiguous-switch,-1,-5,right,right,0.163
VTM1984WRNO,2019-10-21-15-44-17,7,52,0.683657666073421,right,both,ambiguous-switch,101,-5,right,left,0.107
VTM1984WRNO,2019-10-21-15-44-17,7,53,0.6509381881988897,left,probe,ambiguous-switch,-1,40,right,right,0.129
VTM1984WRNO,2019-10-21-15-44-17,7,54,0.5856749435570672,left,both,ambiguous-switch,92,40,right,right,0.261
VTM1984WRNO,2019-10-21-15-44-17,7,55,0.5912472447602392,right,probe,biased-switch,-1,-30,right,right,0.298
VTM1984WRNO,2019-10-21-15-44-17,7,56,0.5678768422960048,right,both,biased-switch,102,-30,right,right,0.27
VTM1984WRNO,2019-10-21-15-44-17,7,57,0.6883226504430682,right,probe,biased-switch,-1,5,right,right,0.23
VTM1984WRNO,2019-10-21-15-44-17,7,58,0.5399009097624412,right,both,biased-switch,105,5,right,left,0.264
VTM1984WRNO,2019-10-21-15-44-17,7,59,0.6717550455624759,left,probe,biased-switch,-1,-5,right,right,0.213
VTM1984WRNO,2019-10-21-15-44-17,7,60,0.5880410916716636,left,both,biased-switch,100,-5,right,left,0.237
VTM1984WRNO,2019-10-21-15-44-17,7,61,0.5749117529535774,left,probe,biased-switch,-1,-20,right,right,0.224
VTM1984WRNO,2019-10-21-15-44-17,7,62,0.6226246248611309,left,both,biased-switch,94,-20,right,left,0.284
VTM1984WRNO,2019-10-21-15-44-17,7,63,0.5028433570882456,left,probe,ambiguous-switch,-1,0,right,right,0.169
VTM1984WRNO,2019-10-21-15-44-17,7,64,0.5854879774302524,left,both,ambiguous-switch,90,0,right,right,0.12
VTM1984WRNO,2019-10-21-15-44-17,7,65,0.5367606258542836,left,probe,biased-switch,-1,40,left,left,1.234
VTM1984WRNO,2019-10-21-15-44-17,7,66,0.588483368476808,left,both,biased-switch,95,40,left,right,0.187
VTM1984WRNO,2019-10-21-15-44-17,7,67,0.5719761395356142,left,probe,ambiguous-switch,-1,-30,right,right,0.269
VTM1984WRNO,2019-10-21-15-44-17,7,68,0.6003475138788541,left,both,ambiguous-switch,102,-30,right,right,0.207
VTM1984WRNO,2019-10-21-15-44-17,7,69,0.6491762735188182,left,probe,ambiguous-switch,-1,-10,right,right,0.026
VTM1984WRNO,2019-10-21-15-44-17,7,70,0.551824865081443,left,both,ambiguous-switch,109,-10,right,right,0.272
VTM1984WRNO,2019-10-21-15-44-17,7,71,0.6009970512663699,left,probe,biased-switch,-1,20,right,right,0.249
VTM1984WRNO,2019-10-21-15-44-17,7,72,0.6555530287034668,left,both,biased-switch,96,20,right,left,0.247
VTM1984WRNO,2019-10-21-15-44-17,7,73,0.5328478299446319,left,probe,ambiguous-switch,-1,10,right,right,0.105
VTM1984WRNO,2019-10-21-15-44-17,7,74,0.5839326305793562,left,both,ambiguous-switch,100,10,right,left,0.244
VTM1984WRNO,2019-10-21-15-44-17,7,75,0.6150252957797455,left,probe,biased-switch,-1,-10,right,right,0.242
VTM1984WRNO,2019-10-21-15-44-17,7,76,0.6006090134563354,left,both,biased-switch,93,-10,right,right,0.118
VTM1984WRNO,2019-10-21-15-44-17,7,77,0.6426869015501485,left,probe,ambiguous-switch,-1,-20,right,right,0.227
VTM1984WRNO,2019-10-21-15-44-17,7,78,0.6963576324489645,left,both,ambiguous-switch,107,-20,right,left,0.488
VTM1984WRNO,2019-10-21-15-44-17,7,79,0.5398094246106897,left,probe,biased-switch,-1,10,right,right,0.5
VTM1984WRNO,2019-10-21-15-44-17,7,80,0.68312223832889,left,both,biased-switch,97,10,right,left,0.217
VTM1984WRNO,2019-10-21-15-44-17,8,1,0.5629326398330214,left,probe,ambiguous-switch,-1,40,left,left,0.285
VTM1984WRNO,2019-10-21-15-44-17,8,2,0.5729352731718163,left,both,ambiguous-switch,102,40,left,right,0.213
VTM1984WRNO,2019-10-21-15-44-17,8,3,0.6878832634022052,left,probe,ambiguous-switch,-1,-5,left,left,0.356
VTM1984WRNO,2019-10-21-15-44-17,8,4,0.6930146923340365,left,both,ambiguous-switch,99,-5,left,right,0.235
VTM1984WRNO,2019-10-21-15-44-17,8,5,0.6543689545306288,left,probe,biased-switch,-1,-5,right,right,0.03
VTM1984WRNO,2019-10-21-15-44-17,8,6,0.5339740473625508,left,both,biased-switch,100,-5,right,right,0.22
VTM1984WRNO,2019-10-21-15-44-17,8,7,0.5714153660134085,left,probe,ambiguous-switch,-1,5,right,right,0.202
VTM1984WRNO,2019-10-21-15-44-17,8,8,0.5005223537957116,left,both,ambiguous-switch,90,5,right,left,0.22
VTM1984WRNO,2019-10-21-15-44-17,8,9,0.5940545836812399,right,probe,ambiguous-switch,-1,30,right,right,0.21
VTM1984WRNO,2019-10-21-15-44-17,8,10,0.5592309087802351,right,both,ambiguous-switch,93,30,right,left,0.196
VTM1984WRNO,2019-10-21-15-44-17,8,11,0.551543659895393,right,probe,biased-switch,-1,-20,right,right,0.183
VTM1984WRNO,2019-10-21-15-44-17,8,12,0.5351150143070005,right,both,biased-switch,92,-20,right,left,0.243
VTM1984WRNO,2019-10-21-15-44-17,8,13,0.5284869681946096,left,probe,ambiguous-switch,-1,-10,right,right,0.179
VTM1984WRNO,2019-10-21-15-44-17,8,14,0.5246526841227347,left,both,ambiguous-switch,91,-10,right,right,0.235
VTM1984WRNO,2019-10-21-15-44-17,8,15,0.551699709886426,left,probe,ambiguous-switch,-1,20,right,right,0.199
VTM1984WRNO,2019-10-21-15-44-17,8,16,0.5067417402596094,left,both,ambiguous-switch,97,20,right,left,0.224
VTM1984WRNO,2019-10-21-15-44-17,8,17,0.6357310059692595,right,probe,biased-switch,-1,0,left,left,0.245
VTM1984WRNO,2019-10-21-15-44-17,8,18,0.6500367303378205,right,both,biased-switch,94,0,left,right,0.321
VTM1984WRNO,2019-10-21-15-44-17,8,19,0.5571732328361587,right,probe,biased-switch,-1,-10,right,right,0.285
VTM1984WRNO,2019-10-21-15-44-17,8,20,0.6255023764712045,right,both,biased-switch,107,-10,right,left,0.337
VTM1984WRNO,2019-10-21-15-44-17,8,21,0.597960812532291,left,probe,ambiguous-switch,-1,10,right,right,0.265
VTM1984WRNO,2019-10-21-15-44-17,8,22,0.6214167137332455,left,both,ambiguous-switch,104,10,right,right,0.3
VTM1984WRNO,2019-10-21-15-44-17,8,23,0.669968887309403,left,probe,biased-switch,-1,30,right,right,0.254
VTM1984WRNO,2019-10-21-15-44-17,8,24,0.6177428018955705,left,both,biased-switch,95,30,right,right,0.235
VTM1984WRNO,2019-10-21-15-44-17,8,25,0.5710841760773221,left,probe,ambiguous-switch,-1,-30,right,right,0.238
VTM1984WRNO,2019-10-21-15-44-17,8,26,0.5548280345265357,left,both,ambiguous-switch,107,-30,right,right,0.134
VTM1984WRNO,2019-10-21-15-44-17,8,27,0.5097015242242704,left,probe,biased-switch,-1,20,right,right,0.275
VTM1984WRNO,2019-10-21-15-44-17,8,28,0.5467717745621561,left,both,biased-switch,108,20,right,right,0.23
VTM1984WRNO,2019-10-21-15-44-17,8,29,0.6698897905639141,right,probe,biased-switch,-1,10,right,right,0.216
VTM1984WRNO,2019-10-21-15-44-17,8,30,0.5848286200380949,right,both,biased-switch,91,10,right,left,0.232
VTM1984WRNO,2019-10-21-15-44-17,8,31,0.5776435490649181,right,probe,ambiguous-switch,-1,0,left,left,0.246
VTM1984WRNO,2019-10-21-15-44-17,8,32,0.6801290990270987,right,both,ambiguous-switch,102,0,left,left,0.214
VTM1984WRNO,2019-10-21-15-44-17,8,33,0.6375549878343016,left,probe,ambiguous-switch,-1,-20,left,left,0.017
VTM1984WRNO,2019-10-21-15-44-17,8,34,0.6698098598906432,left,both,ambiguous-switch,106,-20,left,left,2.072
VTM1984WRNO,2019-10-21-15-44-17,8,35,0.6562658794828855,left,probe,biased-switch,-1,5,left,left,2.824
VTM1984WRNO,2019-10-21-15-44-17,8,36,0.5044032459654529,left,both,biased-switch,102,5,left,left,0.041
VTM1984WRNO,2019-10-21-15-44-17,8,37,0.5029285755087392,right,probe,biased-switch,-1,-30,left,left,1.746
VTM1984WRNO,2019-10-21-15-44-17,8,38,0.5240914615055655,right,both,biased-switch,95,-30,left,left,0.351
VTM1984WRNO,2019-10-21-15-44-17,8,39,0.6364405234939942,right,probe,biased-switch,-1,40,left,left,0.218
VTM1984WRNO,2019-10-21-15-44-17,8,40,0.6026970676234406,right,both,biased-switch,98,40,left,left,85.684
VTM1984WRNO,2019-10-21-15-44-17,8,41,0.6486676109440745,left,probe,ambiguous-switch,-1,40,left,left,0.209
VTM1984WRNO,2019-10-21-15-44-17,8,42,0.5253212470670507,left,both,ambiguous-switch,102,40,left,right,0.018
VTM1984WRNO,2019-10-21-15-44-17,8,43,0.6641800850766091,left,probe,ambiguous-switch,-1,-5,left,left,0.241
VTM1984WRNO,2019-10-21-15-44-17,8,44,0.6327027087883068,left,both,ambiguous-switch,106,-5,left,left,0.191
VTM1984WRNO,2019-10-21-15-44-17,8,45,0.5961037854141145,left,probe,biased-switch,-1,-5,left,left,0.214
VTM1984WRNO,2019-10-21-15-44-17,8,46,0.6869624245591376,left,both,biased-switch,102,-5,left,left,0.07
VTM1984WRNO,2019-10-21-15-44-17,8,47,0.5064364051242015,right,probe,ambiguous-switch,-1,5,left,left,0.184
VTM1984WRNO,2019-10-21-15-44-17,8,48,0.6933019543498761,right,both,ambiguous-switch,102,5,left,left,0.164
VTM1984WRNO,2019-10-21-15-44-17,8,49,0.6053621121777019,left,probe,ambiguous-switch,-1,30,left,left,0.226
VTM1984WRNO,2019-10-21-15-44-17,8,50,0.6235407802444913,left,both,ambiguous-switch,99,30,left,left,0.228
VTM1984WRNO,2019-10-21-15-44-17,8,51,0.5420645722023963,left,probe,biased-switch,-1,-20,left,left,0.196
VTM1984WRNO,2019-10-21-15-44-17,8,52,0.5938629182997662,left,both,biased-switch,101,-20,left,left,0.201
VTM1984WRNO,2019-10-21-15-44-17,8,53,0.5640775694273223,right,probe,ambiguous-switch,-1,-10,left,left,0.269
VTM1984WRNO,2019-10-21-15-44-17,8,54,0.548951144218117,right,both,ambiguous-switch,109,-10,left,right,0.668
VTM1984WRNO,2019-10-21-15-44-17,8,55,0.5276632357599806,right,probe,ambiguous-switch,-1,20,left,left,0.187
VTM1984WRNO,2019-10-21-15-44-17,8,56,0.5130699432574524,right,both,ambiguous-switch,95,20,left,left,0.168
VTM1984WRNO,2019-10-21-15-44-17,8,57,0.5265943169419826,right,probe,biased-switch,-1,0,right,right,0.435
VTM1984WRNO,2019-10-21-15-44-17,8,58,0.6882884468682949,right,both,biased-switch,109,0,right,left,0.204
VTM1984WRNO,2019-10-21-15-44-17,8,59,0.6124917636838236,right,probe,biased-switch,-1,-10,right,right,0.539
VTM1984WRNO,2019-10-21-15-44-17,8,60,0.5154991623060365,right,both,biased-switch,100,-10,right,left,0.309
VTM1984WRNO,2019-10-21-15-44-17,8,61,0.6730495258009261,left,probe,ambiguous-switch,-1,10,left,left,0.216
VTM1984WRNO,2019-10-21-15-44-17,8,62,0.5141601362697888,left,both,ambiguous-switch,107,10,left,right,0.216
VTM1984WRNO,2019-10-21-15-44-17,8,63,0.6018925843931493,left,probe,biased-switch,-1,30,right,right,0.242
VTM1984WRNO,2019-10-21-15-44-17,8,64,0.6492421125283565,left,both,biased-switch,102,30,right,left,0.175
VTM1984WRNO,2019-10-21-15-44-17,8,65,0.5308325259038694,right,probe,ambiguous-switch,-1,-30,left,left,0.233
VTM1984WRNO,2019-10-21-15-44-17,8,66,0.5579816553197453,right,both,ambiguous-switch,95,-30,left,left,0.047
VTM1984WRNO,2019-10-21-15-44-17,8,67,0.5727479620887603,left,probe,biased-switch,-1,20,left,left,0.269
VTM1984WRNO,2019-10-21-15-44-17,8,68,0.5327878782658194,left,both,biased-switch,104,20,left,right,0.201
VTM1984WRNO,2019-10-21-15-44-17,8,69,0.5825296027278734,left,probe,biased-switch,-1,10,right,right,0.214
VTM1984WRNO,2019-10-21-15-44-17,8,70,0.6139737595112559,left,both,biased-switch,96,10,right,left,0.274
VTM1984WRNO,2019-10-21-15-44-17,8,71,0.5138817909837937,right,probe,ambiguous-switch,-1,0,left,left,0.268
VTM1984WRNO,2019-10-21-15-44-17,8,72,0.6074472377963395,right,both,ambiguous-switch,102,0,left,left,0.116
VTM1984WRNO,2019-10-21-15-44-17,8,73,0.6750687980892844,left,probe,ambiguous-switch,-1,-20,left,left,0.236
VTM1984WRNO,2019-10-21-15-44-17,8,74,0.5043347997139441,left,both,ambiguous-switch,90,-20,left,left,0.245
VTM1984WRNO,2019-10-21-15-44-17,8,75,0.5881826009582245,left,probe,biased-switch,-1,5,left,left,0.262
VTM1984WRNO,2019-10-21-15-44-17,8,76,0.5624371568937241,left,both,biased-switch,107,5,left,right,0.275
VTM1984WRNO,2019-10-21-15-44-17,8,77,0.667786581234231,right,probe,biased-switch,-1,-30,left,left,0.226
VTM1984WRNO,2019-10-21-15-44-17,8,78,0.6601557699175421,right,both,biased-switch,94,-30,left,left,0.261
VTM1984WRNO,2019-10-21-15-44-17,8,79,0.5857382988502409,right,probe,biased-switch,-1,40,left,left,0.252
VTM1984WRNO,2019-10-21-15-44-17,8,80,0.6338607906171689,right,both,biased-switch,101,40,left,left,0.234
VTM1984WRNO,2019-10-21-15-44-17,9,1,0.6582525049599148,right,probe,biased-switch,-1,30,left,left,0.243
VTM1984WRNO,2019-10-21-15-44-17,9,2,0.6350758327733195,right,both,biased-switch,105,30,left,left,1.857
VTM1984WRNO,2019-10-21-15-44-17,9,3,0.5258029332493601,right,probe,ambiguous-switch,-1,20,left,left,0.004
VTM1984WRNO,2019-10-21-15-44-17,9,4,0.5534202358183098,right,both,ambiguous-switch,99,20,left,left,0.258
VTM1984WRNO,2019-10-21-15-44-17,9,5,0.6553088371268675,left,probe,ambiguous-switch,-1,5,left,left,0.255
VTM1984WRNO,2019-10-21-15-44-17,9,6,0.55941942626949,left,both,ambiguous-switch,91,5,left,right,0.235
VTM1984WRNO,2019-10-21-15-44-17,9,7,0.6364343700289861,left,probe,biased-switch,-1,40,right,right,0.078
VTM1984WRNO,2019-10-21-15-44-17,9,8,0.5195868275374967,left,both,biased-switch,107,40,right,right,0.007
VTM1984WRNO,2019-10-21-15-44-17,9,9,0.6861196075353677,right,probe,biased-switch,-1,20,left,left,0.197
VTM1984WRNO,2019-10-21-15-44-17,9,10,0.5598690397849859,right,both,biased-switch,102,20,left,right,0.154
VTM1984WRNO,2019-10-21-15-44-17,9,11,0.6067102105700518,left,probe,biased-switch,-1,-5,right,right,0.102
VTM1984WRNO,2019-10-21-15-44-17,9,12,0.5290579794992407,left,both,biased-switch,106,-5,right,right,0.211
VTM1984WRNO,2019-10-21-15-44-17,9,13,0.6000455267072019,right,probe,biased-switch,-1,-20,right,right,0.314
VTM1984WRNO,2019-10-21-15-44-17,9,14,0.537366222859783,right,both,biased-switch,105,-20,right,right,0.203
VTM1984WRNO,2019-10-21-15-44-17,9,15,0.655200836394514,left,probe,ambiguous-switch,-1,-5,left,left,0.615
VTM1984WRNO,2019-10-21-15-44-17,9,16,0.6871482869514136,left,both,ambiguous-switch,100,-5,left,right,0.042
VTM1984WRNO,2019-10-21-15-44-17,9,17,0.5057633308458213,right,probe,biased-switch,-1,5,left,left,0.255
VTM1984WRNO,2019-10-21-15-44-17,9,18,0.6240460655234613,right,both,biased-switch,108,5,left,right,0.21
VTM1984WRNO,2019-10-21-15-44-17,9,19,0.6111805931820599,left,probe,ambiguous-switch,-1,-10,right,right,0.238
VTM1984WRNO,2019-10-21-15-44-17,9,20,0.5611261494241218,left,both,ambiguous-switch,99,-10,right,right,0.07
VTM1984WRNO,2019-10-21-15-44-17,9,21,0.6956772523883545,right,probe,ambiguous-switch,-1,40,right,right,0.22
VTM1984WRNO,2019-10-21-15-44-17,9,22,0.6474776878113417,right,both,ambiguous-switch,91,40,right,left,0.241
VTM1984WRNO,2019-10-21-15-44-17,9,23,0.6672548365889137,left,probe,biased-switch,-1,0,right,right,0.222
VTM1984WRNO,2019-10-21-15-44-17,9,24,0.5543158435833343,left,both,biased-switch,102,0,right,left,0.296
VTM1984WRNO,2019-10-21-15-44-17,9,25,0.5034072936447199,left,probe,ambiguous-switch,-1,10,left,left,0.227
VTM1984WRNO,2019-10-21-15-44-17,9,26,0.679971645312088,left,both,ambiguous-switch,102,10,left,right,0.241
VTM1984WRNO,2019-10-21-15-44-17,9,27,0.689124174015876,right,probe,biased-switch,-1,-10,left,left,0.123
VTM1984WRNO,2019-10-21-15-44-17,9,28,0.653603560596625,right,both,biased-switch,106,-10,left,left,0.182
VTM1984WRNO,2019-10-21-15-44-17,9,29,0.6296478409113604,right,probe,ambiguous-switch,-1,30,left,left,0.201
VTM1984WRNO,2019-10-21-15-44-17,9,30,0.5726322007838853,right,both,ambiguous-switch,95,30,left,left,0.203
VTM1984WRNO,2019-10-21-15-44-17,9,31,0.5206941951108233,left,probe,ambiguous-switch,-1,0,left,left,0.235
VTM1984WRNO,2019-10-21-15-44-17,9,32,0.5532008830550953,left,both,ambiguous-switch,108,0,left,left,0.197
VTM1984WRNO,2019-10-21-15-44-17,9,33,0.6896406783121378,left,probe,biased-switch,-1,-30,left,left,0.246
VTM1984WRNO,2019-10-21-15-44-17,9,34,0.6908707232129967,left,both,biased-switch,96,-30,left,left,0.231
VTM1984WRNO,2019-10-21-15-44-17,9,35,0.5818380849574835,right,probe,ambiguous-switch,-1,-20,left,left,0.197
VTM1984WRNO,2019-10-21-15-44-17,9,36,0.5372959091345609,right,both,ambiguous-switch,96,-20,left,right,0.389
VTM1984WRNO,2019-10-21-15-44-17,9,37,0.6410241529697599,left,probe,ambiguous-switch,-1,-30,left,left,0.193
VTM1984WRNO,2019-10-21-15-44-17,9,38,0.6529905010891024,left,both,ambiguous-switch,109,-30,left,left,0.243
VTM1984WRNO,2019-10-21-15-44-17,9,39,0.6899147923282801,right,probe,biased-switch,-1,10,left,left,0.095
VTM1984WRNO,2019-10-21-15-44-17,9,40,0.558817260156983,right,both,biased-switch,105,10,left,right,1.849
VTM1984WRNO,2019-10-21-15-44-17,9,41,0.554564934553111,left,probe,biased-switch,-1,30,left,left,0.252
VTM1984WRNO,2019-10-21-15-44-17,9,42,0.6238691409371904,left,both,biased-switch,90,30,left,left,0.166
VTM1984WRNO,2019-10-21-15-44-17,9,43,0.6655324872002473,left,probe,ambiguous-switch,-1,20,left,left,0.047
VTM1984WRNO,2019-10-21-15-44-17,9,44,0.5129500066918633,left,both,ambiguous-switch,108,20,left,right,2.953
VTM1984WRNO,2019-10-21-15-44-17,9,45,0.6160064845291722,left,probe,ambiguous-switch,-1,5,left,left,0.152
VTM1984WRNO,2019-10-21-15-44-17,9,46,0.6907800226620749,left,both,ambiguous-switch,100,5,left,right,0.02
VTM1984WRNO,2019-10-21-15-44-17,9,47,0.6389788200686296,left,probe,biased-switch,-1,40,left,left,0.08
VTM1984WRNO,2019-10-21-15-44-17,9,48,0.5190869376301467,left,both,biased-switch,105,40,left,right,1.535
VTM1984WRNO,2019-10-21-15-44-17,9,49,0.6700101720224129,right,probe,biased-switch,-1,20,left,left,0.051
VTM1984WRNO,2019-10-21-15-44-17,9,50,0.508738207056899,right,both,biased-switch,95,20,left,right,2.836
VTM1984WRNO,2019-10-21-15-44-17,9,51,0.5029769901305792,left,probe,biased-switch,-1,-5,right,right,0.161
VTM1984WRNO,2019-10-21-15-44-17,9,52,0.5193692807488753,left,both,biased-switch,98,-5,right,right,0.23
VTM1984WRNO,2019-10-21-15-44-17,9,53,0.5422049453837118,right,probe,biased-switch,-1,-20,left,left,0.218
VTM1984WRNO,2019-10-21-15-44-17,9,54,0.6063832570092907,right,both,biased-switch,95,-20,left,right,0.174
VTM1984WRNO,2019-10-21-15-44-17,9,55,0.5830194355257704,right,probe,ambiguous-switch,-1,-5,right,right,0.14
VTM1984WRNO,2019-10-21-15-44-17,9,56,0.5913209682406302,right,both,ambiguous-switch,105,-5,right,right,0.041
VTM1984WRNO,2019-10-21-15-44-17,9,57,0.6574200969295145,right,probe,biased-switch,-1,5,right,right,0.094
VTM1984WRNO,2019-10-21-15-44-17,9,58,0.6210062180509508,right,both,biased-switch,91,5,right,left,0.238
VTM1984WRNO,2019-10-21-15-44-17,9,59,0.5238586198304309,left,probe,ambiguous-switch,-1,-10,left,left,0.232
VTM1984WRNO,2019-10-21-15-44-17,9,60,0.5599298720653348,left,both,ambiguous-switch,95,-10,left,right,0.266
VTM1984WRNO,2019-10-21-15-44-17,9,61,0.6643449662826042,right,probe,ambiguous-switch,-1,40,left,left,0.134
VTM1984WRNO,2019-10-21-15-44-17,9,62,0.6701089203003711,right,both,ambiguous-switch,101,40,left,left,1.813
VTM1984WRNO,2019-10-21-15-44-17,9,63,0.6416430966543206,right,probe,biased-switch,-1,0,left,left,0.174
VTM1984WRNO,2019-10-21-15-44-17,9,64,0.6511776325795022,right,both,biased-switch,92,0,left,right,0.283
VTM1984WRNO,2019-10-21-15-44-17,9,65,0.5554232232258709,left,probe,ambiguous-switch,-1,10,right,right,0.185
VTM1984WRNO,2019-10-21-15-44-17,9,66,0.64508360922883,left,both,ambiguous-switch,100,10,right,left,0.903
VTM1984WRNO,2019-10-21-15-44-17,9,67,0.651161807608365,left,probe,biased-switch,-1,-10,right,right,0.249
VTM1984WRNO,2019-10-21-15-44-17,9,68,0.6912190912695974,left,both,biased-switch,93,-10,right,right,0.228
VTM1984WRNO,2019-10-21-15-44-17,9,69,0.5540121263093232,right,probe,ambiguous-switch,-1,30,right,right,0.219
VTM1984WRNO,2019-10-21-15-44-17,9,70,0.5177417251492733,right,both,ambiguous-switch,95,30,right,left,1.525
VTM1984WRNO,2019-10-21-15-44-17,9,71,0.6875429653810813,left,probe,ambiguous-switch,-1,0,right,right,0.266
VTM1984WRNO,2019-10-21-15-44-17,9,72,0.6512195784743666,left,both,ambiguous-switch,93,0,right,left,0.233
VTM1984WRNO,2019-10-21-15-44-17,9,73,0.6940219049772496,right,probe,biased-switch,-1,-30,right,right,0.199
VTM1984WRNO,2019-10-21-15-44-17,9,74,0.5660469963797982,right,both,biased-switch,98,-30,right,right,0.074
VTM1984WRNO,2019-10-21-15-44-17,9,75,0.663791880636264,right,probe,ambiguous-switch,-1,-20,right,right,0.212
VTM1984WRNO,2019-10-21-15-44-17,9,76,0.5149997604897341,right,both,ambiguous-switch,107,-20,right,left,0.201
VTM1984WRNO,2019-10-21-15-44-17,9,77,0.5043637288363005,right,probe,ambiguous-switch,-1,-30,right,right,0.162
VTM1984WRNO,2019-10-21-15-44-17,9,78,0.5753940837780336,right,both,ambiguous-switch,97,-30,right,right,0.099
VTM1984WRNO,2019-10-21-15-44-17,9,79,0.5086108481778637,right,probe,biased-switch,-1,10,right,right,0.185
VTM1984WRNO,2019-10-21-15-44-17,9,80,0.5081616808984081,right,both,biased-switch,93,10,right,left,0.231
VTM1984WRNO,2019-10-21-15-44-17,10,1,0.5935327682955963,right,probe,biased-switch,-1,-20,right,right,0.281
VTM1984WRNO,2019-10-21-15-44-17,10,2,0.5881722901429601,right,both,biased-switch,103,-20,right,right,0.2
VTM1984WRNO,2019-10-21-15-44-17,10,3,0.504261380100011,right,probe,biased-switch,-1,-30,right,right,0.216
VTM1984WRNO,2019-10-21-15-44-17,10,4,0.6455604804708533,right,both,biased-switch,109,-30,right,left,0.276
VTM1984WRNO,2019-10-21-15-44-17,10,5,0.5270713442183536,right,probe,ambiguous-switch,-1,-20,right,right,0.212
VTM1984WRNO,2019-10-21-15-44-17,10,6,0.543636805050756,right,both,ambiguous-switch,90,-20,right,right,0.221
VTM1984WRNO,2019-10-21-15-44-17,10,7,0.6631618042737901,left,probe,ambiguous-switch,-1,0,right,right,0.215
VTM1984WRNO,2019-10-21-15-44-17,10,8,0.6557493838255708,left,both,ambiguous-switch,94,0,right,right,0.254
VTM1984WRNO,2019-10-21-15-44-17,10,9,0.619082936679157,left,probe,biased-switch,-1,30,left,left,0.542
VTM1984WRNO,2019-10-21-15-44-17,10,10,0.649853298054337,left,both,biased-switch,97,30,left,right,0.395
VTM1984WRNO,2019-10-21-15-44-17,10,11,0.6258794597832564,right,probe,biased-switch,-1,40,right,right,0.557
VTM1984WRNO,2019-10-21-15-44-17,10,12,0.5497236580008075,right,both,biased-switch,97,40,right,left,0.227
VTM1984WRNO,2019-10-21-15-44-17,10,13,0.5393305748442361,right,probe,ambiguous-switch,-1,10,left,left,0.536
VTM1984WRNO,2019-10-21-15-44-17,10,14,0.5858043800009348,right,both,ambiguous-switch,98,10,left,left,0.224
VTM1984WRNO,2019-10-21-15-44-17,10,15,0.6292163176750465,right,probe,ambiguous-switch,-1,5,left,left,0.199
VTM1984WRNO,2019-10-21-15-44-17,10,16,0.5552799764742831,right,both,ambiguous-switch,107,5,left,left,0.259
VTM1984WRNO,2019-10-21-15-44-17,10,17,0.6920527922682911,right,probe,ambiguous-switch,-1,40,left,left,0.297
VTM1984WRNO,2019-10-21-15-44-17,10,18,0.5452416071724461,right,both,ambiguous-switch,104,40,left,left,0.186
VTM1984WRNO,2019-10-21-15-44-17,10,19,0.5400148379507115,left,probe,biased-switch,-1,20,left,left,0.257
VTM1984WRNO,2019-10-21-15-44-17,10,20,0.5447219946696835,left,both,biased-switch,94,20,left,right,0.268
VTM1984WRNO,2019-10-21-15-44-17,10,21,0.5536488311382111,left,probe,ambiguous-switch,-1,-10,right,right,0.156
VTM1984WRNO,2019-10-21-15-44-17,10,22,0.5935543497688204,left,both,ambiguous-switch,103,-10,right,left,0.55
VTM1984WRNO,2019-10-21-15-44-17,10,23,0.6914911871029656,right,probe,biased-switch,-1,-5,right,right,0.254
VTM1984WRNO,2019-10-21-15-44-17,10,24,0.5581659448891271,right,both,biased-switch,109,-5,right,left,0.248
VTM1984WRNO,2019-10-21-15-44-17,10,25,0.546068161828701,left,probe,biased-switch,-1,0,right,right,0.26
VTM1984WRNO,2019-10-21-15-44-17,10,26,0.6996771541702695,left,both,biased-switch,109,0,right,left,0.108
VTM1984WRNO,2019-10-21-15-44-17,10,27,0.5705024134334405,left,probe,ambiguous-switch,-1,20,left,left,0.544
VTM1984WRNO,2019-10-21-15-44-17,10,28,0.5705651093546517,left,both,ambiguous-switch,102,20,left,left,0.057
VTM1984WRNO,2019-10-21-15-44-17,10,29,0.6461009528708708,right,probe,biased-switch,-1,10,left,left,0.131
VTM1984WRNO,2019-10-21-15-44-17,10,30,0.5328766796064807,right,both,biased-switch,109,10,left,right,0.219
VTM1984WRNO,2019-10-21-15-44-17,10,31,0.6700173151681224,left,probe,biased-switch,-1,-10,right,right,0.22
VTM1984WRNO,2019-10-21-15-44-17,10,32,0.559869694155078,left,both,biased-switch,104,-10,right,left,0.492
VTM1984WRNO,2019-10-21-15-44-17,10,33,0.6380752462897801,right,probe,ambiguous-switch,-1,-30,right,right,0.517
VTM1984WRNO,2019-10-21-15-44-17,10,34,0.6371969175099899,right,both,ambiguous-switch,102,-30,right,left,0.778
VTM1984WRNO,2019-10-21-15-44-17,10,35,0.5635652658682507,left,probe,biased-switch,-1,5,right,right,0.223
VTM1984WRNO,2019-10-21-15-44-17,10,36,0.6999905416652047,left,both,biased-switch,96,5,right,left,0.209
VTM1984WRNO,2019-10-21-15-44-17,10,37,0.6023120425026032,left,probe,ambiguous-switch,-1,-5,left,left,0.177
VTM1984WRNO,2019-10-21-15-44-17,10,38,0.6757692807390153,left,both,ambiguous-switch,109,-5,left,left,0.321
VTM1984WRNO,2019-10-21-15-44-17,10,39,0.649241994299226,left,probe,ambiguous-switch,-1,30,left,left,0.177
VTM1984WRNO,2019-10-21-15-44-17,10,40,0.5663977517034827,left,both,ambiguous-switch,92,30,left,right,0.238
VTM1984WRNO,2019-10-21-15-44-17,10,41,0.5402322536896431,left,probe,biased-switch,-1,-20,right,right,1.902
VTM1984WRNO,2019-10-21-15-44-17,10,42,0.5603930129500081,left,both,biased-switch,90,-20,right,right,0.263
VTM1984WRNO,2019-10-21-15-44-17,10,43,0.52234669844327,right,probe,biased-switch,-1,-30,right,right,0.229
VTM1984WRNO,2019-10-21-15-44-17,10,44,0.6600095475359646,right,both,biased-switch,90,-30,right,left,0.281
VTM1984WRNO,2019-10-21-15-44-17,10,45,0.5825936414101822,left,probe,ambiguous-switch,-1,-20,right,right,0.15
VTM1984WRNO,2019-10-21-15-44-17,10,46,0.5998305183066386,left,both,ambiguous-switch,93,-20,right,left,0.222
VTM1984WRNO,2019-10-21-15-44-17,10,47,0.5187259635286565,left,probe,ambiguous-switch,-1,0,right,right,0.232
VTM1984WRNO,2019-10-21-15-44-17,10,48,0.5415160647918572,left,both,ambiguous-switch,106,0,right,left,0.542
VTM1984WRNO,2019-10-21-15-44-17,10,49,0.5903764784023926,right,probe,biased-switch,-1,30,right,right,0.254
VTM1984WRNO,2019-10-21-15-44-17,10,50,0.6117903901429332,right,both,biased-switch,105,30,right,right,0.21
VTM1984WRNO,2019-10-21-15-44-17,10,51,0.6511596585187651,left,probe,biased-switch,-1,40,right,right,0.098
VTM1984WRNO,2019-10-21-15-44-17,10,52,0.674692280956107,left,both,biased-switch,91,40,right,right,0.389
VTM1984WRNO,2019-10-21-15-44-17,10,53,0.5914387963337854,right,probe,ambiguous-switch,-1,10,right,right,0.186
VTM1984WRNO,2019-10-21-15-44-17,10,54,0.6895893390087132,right,both,ambiguous-switch,101,10,right,left,0.106
VTM1984WRNO,2019-10-21-15-44-17,10,55,0.6029879879155633,right,probe,ambiguous-switch,-1,5,right,right,0.351
VTM1984WRNO,2019-10-21-15-44-17,10,56,0.5021566480441784,right,both,ambiguous-switch,104,5,right,left,0.218
VTM1984WRNO,2019-10-21-15-44-17,10,57,0.6728728431334685,left,probe,ambiguous-switch,-1,40,right,right,0.348
VTM1984WRNO,2019-10-21-15-44-17,10,58,0.586797849472628,left,both,ambiguous-switch,93,40,right,right,0.204
VTM1984WRNO,2019-10-21-15-44-17,10,59,0.502032717611583,right,probe,biased-switch,-1,20,left,left,0.185
VTM1984WRNO,2019-10-21-15-44-17,10,60,0.6798122425974322,right,both,biased-switch,92,20,left,right,0.205
VTM1984WRNO,2019-10-21-15-44-17,10,61,0.5135342798235736,left,probe,ambiguous-switch,-1,-10,right,right,0.238
VTM1984WRNO,2019-10-21-15-44-17,10,62,0.5943810981004283,left,both,ambiguous-switch,90,-10,right,left,0.142
VTM1984WRNO,2019-10-21-15-44-17,10,63,0.6104023569180987,left,probe,biased-switch,-1,-5,right,right,0.255
VTM1984WRNO,2019-10-21-15-44-17,10,64,0.6145791200544553,left,both,biased-switch,105,-5,right,left,0.221
VTM1984WRNO,2019-10-21-15-44-17,10,65,0.63664577740124,right,probe,biased-switch,-1,0,right,right,0.202
VTM1984WRNO,2019-10-21-15-44-17,10,66,0.5209789197572672,right,both,biased-switch,106,0,right,left,0.169
VTM1984WRNO,2019-10-21-15-44-17,10,67,0.5788907624299652,right,probe,ambiguous-switch,-1,20,left,left,0.187
VTM1984WRNO,2019-10-21-15-44-17,10,68,0.5281218475620842,right,both,ambiguous-switch,97,20,left,left,0.205
VTM1984WRNO,2019-10-21-15-44-17,10,69,0.6361915679703318,left,probe,biased-switch,-1,10,left,left,0.212
VTM1984WRNO,2019-10-21-15-44-17,10,70,0.6970440866199754,left,both,biased-switch,103,10,left,right,0.181
VTM1984WRNO,2019-10-21-15-44-17,10,71,0.5451465530558942,left,probe,biased-switch,-1,-10,left,left,0.554
VTM1984WRNO,2019-10-21-15-44-17,10,72,0.5485439393150845,left,both,biased-switch,98,-10,left,right,0.221
VTM1984WRNO,2019-10-21-15-44-17,10,73,0.5121554130265731,right,probe,ambiguous-switch,-1,-30,left,left,0.069
VTM1984WRNO,2019-10-21-15-44-17,10,74,0.5234450536517042,right,both,ambiguous-switch,100,-30,left,left,1.845
VTM1984WRNO,2019-10-21-15-44-17,10,75,0.6795419984483593,right,probe,biased-switch,-1,5,left,left,0.238
VTM1984WRNO,2019-10-21-15-44-17,10,76,0.6424782729180415,right,both,biased-switch,91,5,left,right,0.229
VTM1984WRNO,2019-10-21-15-44-17,10,77,0.6224591966759384,right,probe,ambiguous-switch,-1,-5,right,right,0.21
VTM1984WRNO,2019-10-21-15-44-17,10,78,0.6899435426968938,right,both,ambiguous-switch,100,-5,right,right,0.203
VTM1984WRNO,2019-10-21-15-44-17,10,79,0.6528859246212244,right,probe,ambiguous-switch,-1,30,right,right,2.4
VTM1984WRNO,2019-10-21-15-44-17,10,80,0.6942772114639966,right,both,ambiguous-switch,96,30,right,left,0.256
