Participant,Session,Block,Trial,OnsetDelay,ProbeLocation,WhatIsReported,Condition,TriggerTime,ProbeSOA,PrimeDirection,Response,RT
MON1991WRNO,2019-10-21-14-09-12,1,1,0.5273342195693996,right,probe,biased-switch,-1,0,right,right,0.625
MON1991WRNO,2019-10-21-14-09-12,1,2,0.676588166082394,right,both,biased-switch,102,0,right,right,0.205
MON1991WRNO,2019-10-21-14-09-12,1,3,0.5963314580739487,left,probe,ambiguous-switch,-1,-5,right,right,0.654
MON1991WRNO,2019-10-21-14-09-12,1,4,0.6772909312166158,left,both,ambiguous-switch,104,-5,right,right,0.239
MON1991WRNO,2019-10-21-14-09-12,1,5,0.6963869266285506,left,probe,ambiguous-stable,-1,-10,right,right,0.487
MON1991WRNO,2019-10-21-14-09-12,1,6,0.6657333409087098,left,both,ambiguous-stable,107,-10,left,right,19.998
MON1991WRNO,2019-10-21-14-09-12,1,7,0.6049044864028735,left,probe,biased-switch,-1,10,right,right,0.394
MON1991WRNO,2019-10-21-14-09-12,1,8,0.5632766366843776,left,both,biased-switch,105,10,right,right,0.499
MON1991WRNO,2019-10-21-14-09-12,1,9,0.5675942598261237,left,probe,ambiguous-stable,-1,10,right,right,0.659
MON1991WRNO,2019-10-21-14-09-12,1,10,0.6919193488337301,left,both,ambiguous-stable,91,10,left,right,0.205
MON1991WRNO,2019-10-21-14-09-12,1,11,0.6989955238121338,right,probe,ambiguous-stable,-1,-5,right,right,0.393
MON1991WRNO,2019-10-21-14-09-12,1,12,0.5252234496532783,right,both,ambiguous-stable,90,-5,left,left,0.451
MON1991WRNO,2019-10-21-14-09-12,1,13,0.6836073579078747,left,probe,biased-switch,-1,-20,right,right,0.504
MON1991WRNO,2019-10-21-14-09-12,1,14,0.6908625416158942,left,both,biased-switch,95,-20,right,right,0.493
MON1991WRNO,2019-10-21-14-09-12,1,15,0.5299556522705096,left,probe,biased-switch,-1,40,right,right,0.4
MON1991WRNO,2019-10-21-14-09-12,1,16,0.5981301057138019,left,both,biased-switch,102,40,right,right,0.441
MON1991WRNO,2019-10-21-14-09-12,1,17,0.5126670425655881,right,probe,biased-switch,-1,-30,right,right,0.758
MON1991WRNO,2019-10-21-14-09-12,1,18,0.6358250173546323,right,both,biased-switch,110,-30,right,right,0.248
MON1991WRNO,2019-10-21-14-09-12,1,19,0.6865821080749228,right,probe,ambiguous-switch,-1,-30,right,right,0.671
MON1991WRNO,2019-10-21-14-09-12,1,20,0.5012613385911687,right,both,ambiguous-switch,93,-30,right,right,0.504
MON1991WRNO,2019-10-21-14-09-12,1,21,0.6219215550658064,left,probe,ambiguous-switch,-1,5,right,right,0.579
MON1991WRNO,2019-10-21-14-09-12,1,22,0.5221087693160157,left,both,ambiguous-switch,99,5,right,right,0.281
MON1991WRNO,2019-10-21-14-09-12,1,23,0.550382147195179,left,probe,ambiguous-switch,-1,30,right,right,0.762
MON1991WRNO,2019-10-21-14-09-12,1,24,0.664859286429401,left,both,ambiguous-switch,103,30,right,right,0.265
MON1991WRNO,2019-10-21-14-09-12,1,25,0.5226208278749861,left,probe,ambiguous-switch,-1,-20,right,right,1.029
MON1991WRNO,2019-10-21-14-09-12,1,26,0.6063943024866433,left,both,ambiguous-switch,92,-20,right,right,0.436
MON1991WRNO,2019-10-21-14-09-12,1,27,0.5325123579195348,left,probe,ambiguous-switch,-1,40,right,right,0.452
MON1991WRNO,2019-10-21-14-09-12,1,28,0.5469408656367265,left,both,ambiguous-switch,105,40,right,right,0.284
MON1991WRNO,2019-10-21-14-09-12,1,29,0.6036478935484351,right,probe,biased-switch,-1,30,right,right,0.834
MON1991WRNO,2019-10-21-14-09-12,1,30,0.6286329756235989,right,both,biased-switch,97,30,right,right,0.343
MON1991WRNO,2019-10-21-14-09-12,1,31,0.5471625843730764,left,probe,ambiguous-stable,-1,40,right,right,0.474
MON1991WRNO,2019-10-21-14-09-12,1,32,0.6135405820106499,left,both,ambiguous-stable,105,40,left,right,0.257
MON1991WRNO,2019-10-21-14-09-12,1,33,0.6767019449278013,right,probe,ambiguous-stable,-1,0,right,right,0.859
MON1991WRNO,2019-10-21-14-09-12,1,34,0.611904079207314,right,both,ambiguous-stable,108,0,left,right,0.384
MON1991WRNO,2019-10-21-14-09-12,1,35,0.6053479942100183,right,probe,biased-switch,-1,-10,right,right,0.383
MON1991WRNO,2019-10-21-14-09-12,1,36,0.667866394191018,right,both,biased-switch,96,-10,right,right,0.026
MON1991WRNO,2019-10-21-14-09-12,1,37,0.5285754563317069,left,probe,ambiguous-switch,-1,10,right,right,0.207
MON1991WRNO,2019-10-21-14-09-12,1,38,0.528879233179584,left,both,ambiguous-switch,94,10,right,right,0.221
MON1991WRNO,2019-10-21-14-09-12,1,39,0.6341935815376307,right,probe,biased-switch,-1,-5,right,right,0.368
MON1991WRNO,2019-10-21-14-09-12,1,40,0.5425330214489997,right,both,biased-switch,91,-5,right,left,0.393
MON1991WRNO,2019-10-21-14-09-12,1,41,0.5949544078491715,left,probe,ambiguous-stable,-1,-20,right,right,0.512
MON1991WRNO,2019-10-21-14-09-12,1,42,0.5412444169563538,left,both,ambiguous-stable,106,-20,left,right,0.529
MON1991WRNO,2019-10-21-14-09-12,1,43,0.5188537923502506,left,probe,ambiguous-stable,-1,20,right,right,0.391
MON1991WRNO,2019-10-21-14-09-12,1,44,0.5695860601876661,left,both,ambiguous-stable,103,20,left,right,0.252
MON1991WRNO,2019-10-21-14-09-12,1,45,0.6934042905237728,left,probe,biased-switch,-1,5,right,right,0.305
MON1991WRNO,2019-10-21-14-09-12,1,46,0.5495962267074812,left,both,biased-switch,109,5,right,left,0.395
MON1991WRNO,2019-10-21-14-09-12,1,47,0.6411188575808704,right,probe,biased-switch,-1,20,right,right,0.376
MON1991WRNO,2019-10-21-14-09-12,1,48,0.5132370459441035,right,both,biased-switch,93,20,right,right,0.413
MON1991WRNO,2019-10-21-14-09-12,1,49,0.5172888507185238,right,probe,ambiguous-switch,-1,0,right,right,0.465
MON1991WRNO,2019-10-21-14-09-12,1,50,0.6093970822228912,right,both,ambiguous-switch,100,0,right,left,0.388
MON1991WRNO,2019-10-21-14-09-12,1,51,0.5558454068769783,left,probe,ambiguous-stable,-1,-30,right,right,0.319
MON1991WRNO,2019-10-21-14-09-12,1,52,0.5238941502943681,left,both,ambiguous-stable,91,-30,left,right,0.013
MON1991WRNO,2019-10-21-14-09-12,1,53,0.6156819380194157,left,probe,ambiguous-stable,-1,5,right,right,2.005
MON1991WRNO,2019-10-21-14-09-12,1,54,0.5029094694592647,left,both,ambiguous-stable,91,5,left,right,0.416
MON1991WRNO,2019-10-21-14-09-12,1,55,0.6405180781446422,left,probe,ambiguous-switch,-1,-10,right,right,0.568
MON1991WRNO,2019-10-21-14-09-12,1,56,0.6002921747908248,left,both,ambiguous-switch,105,-10,right,right,0.462
MON1991WRNO,2019-10-21-14-09-12,1,57,0.5613391621980834,left,probe,ambiguous-switch,-1,20,right,right,0.639
MON1991WRNO,2019-10-21-14-09-12,1,58,0.6907610136531246,left,both,ambiguous-switch,90,20,right,right,0.537
MON1991WRNO,2019-10-21-14-09-12,1,59,0.6762423419082635,left,probe,ambiguous-stable,-1,30,right,right,0.649
MON1991WRNO,2019-10-21-14-09-12,1,60,0.6692220236251746,left,both,ambiguous-stable,106,30,left,right,0.62
MON1991WRNO,2019-10-21-14-09-12,2,1,0.5226254020494405,left,probe,ambiguous-switch,-1,-10,right,right,0.598
MON1991WRNO,2019-10-21-14-09-12,2,2,0.5935794034168815,left,both,ambiguous-switch,90,-10,right,right,0.342
MON1991WRNO,2019-10-21-14-09-12,2,3,0.5089982752796104,right,probe,ambiguous-stable,-1,0,right,right,0.63
MON1991WRNO,2019-10-21-14-09-12,2,4,0.6146577930048001,right,both,ambiguous-stable,100,0,left,right,0.28
MON1991WRNO,2019-10-21-14-09-12,2,5,0.6316503279925034,left,probe,ambiguous-stable,-1,-20,right,right,0.439
MON1991WRNO,2019-10-21-14-09-12,2,6,0.659396297876223,left,both,ambiguous-stable,92,-20,left,right,0.216
MON1991WRNO,2019-10-21-14-09-12,2,7,0.6207139452252995,left,probe,ambiguous-stable,-1,-5,right,right,0.331
MON1991WRNO,2019-10-21-14-09-12,2,8,0.5492248112962146,left,both,ambiguous-stable,97,-5,left,right,0.223
MON1991WRNO,2019-10-21-14-09-12,2,9,0.5928266587623068,left,probe,biased-switch,-1,-10,right,right,0.344
MON1991WRNO,2019-10-21-14-09-12,2,10,0.5739874733098802,left,both,biased-switch,106,-10,right,right,0.277
MON1991WRNO,2019-10-21-14-09-12,2,11,0.5129486484088509,right,probe,biased-switch,-1,10,right,right,0.377
MON1991WRNO,2019-10-21-14-09-12,2,12,0.6551101839544357,right,both,biased-switch,91,10,right,left,0.765
MON1991WRNO,2019-10-21-14-09-12,2,13,0.5229031356429956,left,probe,ambiguous-switch,-1,-5,right,right,0.582
MON1991WRNO,2019-10-21-14-09-12,2,14,0.523890394493999,left,both,ambiguous-switch,106,-5,right,right,2.427
MON1991WRNO,2019-10-21-14-09-12,2,15,0.6453434827474904,right,probe,ambiguous-switch,-1,40,right,right,0.369
MON1991WRNO,2019-10-21-14-09-12,2,16,0.5627009402478365,right,both,ambiguous-switch,105,40,right,right,0.309
MON1991WRNO,2019-10-21-14-09-12,2,17,0.6068271382044462,right,probe,ambiguous-stable,-1,-30,right,right,0.323
MON1991WRNO,2019-10-21-14-09-12,2,18,0.5718715189170672,right,both,ambiguous-stable,91,-30,left,right,0.171
MON1991WRNO,2019-10-21-14-09-12,2,19,0.5103193964851693,left,probe,ambiguous-stable,-1,5,right,right,0.279
MON1991WRNO,2019-10-21-14-09-12,2,20,0.5474277219867694,left,both,ambiguous-stable,101,5,left,left,0.362
MON1991WRNO,2019-10-21-14-09-12,2,21,0.6377012095377417,left,probe,biased-switch,-1,30,right,right,0.352
MON1991WRNO,2019-10-21-14-09-12,2,22,0.642212295155953,left,both,biased-switch,101,30,right,left,0.392
MON1991WRNO,2019-10-21-14-09-12,2,23,0.6351614061512928,right,probe,ambiguous-switch,-1,-20,right,right,0.361
MON1991WRNO,2019-10-21-14-09-12,2,24,0.5934402606801378,right,both,ambiguous-switch,106,-20,right,right,2.941
MON1991WRNO,2019-10-21-14-09-12,2,25,0.5080770563841305,left,probe,biased-switch,-1,-5,right,right,0.263
MON1991WRNO,2019-10-21-14-09-12,2,26,0.5696711562993944,left,both,biased-switch,95,-5,right,right,14.082
MON1991WRNO,2019-10-21-14-09-12,2,27,0.6938338383595221,left,probe,biased-switch,-1,-20,left,left,0.454
MON1991WRNO,2019-10-21-14-09-12,2,28,0.5824276290643768,left,both,biased-switch,92,-20,left,right,0.582
MON1991WRNO,2019-10-21-14-09-12,2,29,0.5007989929201249,right,probe,ambiguous-stable,-1,20,right,right,0.72
MON1991WRNO,2019-10-21-14-09-12,2,30,0.6796920355346585,right,both,ambiguous-stable,108,20,left,right,0.197
MON1991WRNO,2019-10-21-14-09-12,2,31,0.6241602348147149,left,probe,biased-switch,-1,20,right,right,0.436
MON1991WRNO,2019-10-21-14-09-12,2,32,0.6554268170812484,left,both,biased-switch,99,20,right,left,0.502
MON1991WRNO,2019-10-21-14-09-12,2,33,0.5348068177942552,left,probe,ambiguous-stable,-1,10,right,right,0.534
MON1991WRNO,2019-10-21-14-09-12,2,34,0.6951848046463746,left,both,ambiguous-stable,96,10,left,right,0.255
MON1991WRNO,2019-10-21-14-09-12,2,35,0.6729766027913325,right,probe,ambiguous-switch,-1,10,left,left,0.367
MON1991WRNO,2019-10-21-14-09-12,2,36,0.6265214228681103,right,both,ambiguous-switch,93,10,left,right,0.256
MON1991WRNO,2019-10-21-14-09-12,2,37,0.5554829190675538,left,probe,biased-switch,-1,-30,right,right,0.308
MON1991WRNO,2019-10-21-14-09-12,2,38,0.6335482891519468,left,both,biased-switch,92,-30,right,left,0.485
MON1991WRNO,2019-10-21-14-09-12,2,39,0.6795870437084802,left,probe,ambiguous-stable,-1,30,left,left,0.451
MON1991WRNO,2019-10-21-14-09-12,2,40,0.529620492498174,left,both,ambiguous-stable,107,30,right,right,0.232
MON1991WRNO,2019-10-21-14-09-12,2,41,0.5603049556111084,left,probe,ambiguous-stable,-1,-10,right,right,0.294
MON1991WRNO,2019-10-21-14-09-12,2,42,0.6255748647089427,left,both,ambiguous-stable,104,-10,left,right,3.715
MON1991WRNO,2019-10-21-14-09-12,2,43,0.5486256884285606,left,probe,biased-switch,-1,40,right,right,0.46
MON1991WRNO,2019-10-21-14-09-12,2,44,0.6995329612361085,left,both,biased-switch,108,40,right,right,0.357
MON1991WRNO,2019-10-21-14-09-12,2,45,0.6040537509897587,right,probe,ambiguous-switch,-1,5,left,left,0.324
MON1991WRNO,2019-10-21-14-09-12,2,46,0.6181666021346761,right,both,ambiguous-switch,106,5,left,right,0.438
MON1991WRNO,2019-10-21-14-09-12,2,47,0.5723227688244334,left,probe,biased-switch,-1,5,left,left,0.585
MON1991WRNO,2019-10-21-14-09-12,2,48,0.5439499861722412,left,both,biased-switch,99,5,left,right,0.32
MON1991WRNO,2019-10-21-14-09-12,2,49,0.6710155079616091,right,probe,biased-switch,-1,0,right,right,0.535
MON1991WRNO,2019-10-21-14-09-12,2,50,0.5708134422769472,right,both,biased-switch,105,0,right,left,0.229
MON1991WRNO,2019-10-21-14-09-12,2,51,0.6013564313008071,left,probe,ambiguous-switch,-1,30,right,right,0.333
MON1991WRNO,2019-10-21-14-09-12,2,52,0.523860641090436,left,both,ambiguous-switch,101,30,right,right,2.508
MON1991WRNO,2019-10-21-14-09-12,2,53,0.547691238278907,right,probe,ambiguous-switch,-1,0,right,right,0.479
MON1991WRNO,2019-10-21-14-09-12,2,54,0.5831625832119136,right,both,ambiguous-switch,99,0,right,right,0.506
MON1991WRNO,2019-10-21-14-09-12,2,55,0.6520733446381858,right,probe,ambiguous-stable,-1,40,left,left,0.655
MON1991WRNO,2019-10-21-14-09-12,2,56,0.624450576788299,right,both,ambiguous-stable,96,40,right,right,0.668
MON1991WRNO,2019-10-21-14-09-12,2,57,0.6608901750074203,right,probe,ambiguous-switch,-1,20,right,right,0.332
MON1991WRNO,2019-10-21-14-09-12,2,58,0.6162723458959073,right,both,ambiguous-switch,104,20,right,right,0.501
MON1991WRNO,2019-10-21-14-09-12,2,59,0.5237612926275171,left,probe,ambiguous-switch,-1,-30,right,right,0.399
MON1991WRNO,2019-10-21-14-09-12,2,60,0.5821923388448433,left,both,ambiguous-switch,94,-30,right,right,0.331
MON1991WRNO,2019-10-21-14-09-12,3,1,0.667449022970028,left,probe,biased-switch,-1,10,right,right,0.434
MON1991WRNO,2019-10-21-14-09-12,3,2,0.5715994518130212,left,both,biased-switch,98,10,right,right,0.312
MON1991WRNO,2019-10-21-14-09-12,3,3,0.6701187466545628,right,probe,ambiguous-switch,-1,-30,right,right,0.491
MON1991WRNO,2019-10-21-14-09-12,3,4,0.6454917139851042,right,both,ambiguous-switch,102,-30,right,right,0.353
MON1991WRNO,2019-10-21-14-09-12,3,5,0.6827277198277196,left,probe,biased-switch,-1,20,right,right,0.542
MON1991WRNO,2019-10-21-14-09-12,3,6,0.6650676855209985,left,both,biased-switch,94,20,right,left,0.595
MON1991WRNO,2019-10-21-14-09-12,3,7,0.5522315485840397,left,probe,biased-switch,-1,5,left,left,0.636
MON1991WRNO,2019-10-21-14-09-12,3,8,0.5686011699028832,left,both,biased-switch,104,5,left,right,0.333
MON1991WRNO,2019-10-21-14-09-12,3,9,0.5544140417263808,right,probe,ambiguous-stable,-1,-5,right,right,0.329
MON1991WRNO,2019-10-21-14-09-12,3,10,0.664576818881743,right,both,ambiguous-stable,93,-5,left,right,0.357
MON1991WRNO,2019-10-21-14-09-12,3,11,0.6681806182561616,right,probe,ambiguous-stable,-1,-20,right,right,0.902
MON1991WRNO,2019-10-21-14-09-12,3,12,0.5044108137150627,right,both,ambiguous-stable,103,-20,left,right,0.207
MON1991WRNO,2019-10-21-14-09-12,3,13,0.5835422357495735,right,probe,biased-switch,-1,-30,left,left,0.674
MON1991WRNO,2019-10-21-14-09-12,3,14,0.551162901996163,right,both,biased-switch,90,-30,left,left,0.35
MON1991WRNO,2019-10-21-14-09-12,3,15,0.689958618931636,left,probe,ambiguous-switch,-1,5,right,right,0.381
MON1991WRNO,2019-10-21-14-09-12,3,16,0.5450416309682403,left,both,ambiguous-switch,95,5,right,right,0.316
MON1991WRNO,2019-10-21-14-09-12,3,17,0.6402219671732169,right,probe,ambiguous-switch,-1,0,right,right,0.339
MON1991WRNO,2019-10-21-14-09-12,3,18,0.5062803102867187,right,both,ambiguous-switch,98,0,right,right,3.815
MON1991WRNO,2019-10-21-14-09-12,3,19,0.6564279901715632,right,probe,ambiguous-switch,-1,-20,right,right,0.533
MON1991WRNO,2019-10-21-14-09-12,3,20,0.5511014475645215,right,both,ambiguous-switch,110,-20,right,right,0.368
MON1991WRNO,2019-10-21-14-09-12,3,21,0.5400396293596335,right,probe,biased-switch,-1,30,right,right,0.56
MON1991WRNO,2019-10-21-14-09-12,3,22,0.5680860089217538,right,both,biased-switch,99,30,right,right,0.631
MON1991WRNO,2019-10-21-14-09-12,3,23,0.5183820603035144,right,probe,ambiguous-stable,-1,20,right,right,0.656
MON1991WRNO,2019-10-21-14-09-12,3,24,0.6492169115957803,right,both,ambiguous-stable,104,20,left,right,0.474
MON1991WRNO,2019-10-21-14-09-12,3,25,0.5363623907235731,left,probe,ambiguous-switch,-1,-10,right,right,0.56
MON1991WRNO,2019-10-21-14-09-12,3,26,0.6213629144637005,left,both,ambiguous-switch,104,-10,right,right,0.294
MON1991WRNO,2019-10-21-14-09-12,3,27,0.655434545739756,right,probe,ambiguous-switch,-1,20,right,right,0.665
MON1991WRNO,2019-10-21-14-09-12,3,28,0.5041554334504338,right,both,ambiguous-switch,105,20,right,right,0.614
MON1991WRNO,2019-10-21-14-09-12,3,29,0.5671240951292784,left,probe,biased-switch,-1,-20,right,right,0.516
MON1991WRNO,2019-10-21-14-09-12,3,30,0.6120820658652664,left,both,biased-switch,90,-20,right,right,0.411
MON1991WRNO,2019-10-21-14-09-12,3,31,0.6687987149752819,right,probe,biased-switch,-1,-10,right,right,0.404
MON1991WRNO,2019-10-21-14-09-12,3,32,0.5809240922494042,right,both,biased-switch,105,-10,right,right,0.358
MON1991WRNO,2019-10-21-14-09-12,3,33,0.6662660857218494,right,probe,biased-switch,-1,40,right,right,0.499
MON1991WRNO,2019-10-21-14-09-12,3,34,0.5351527421081091,right,both,biased-switch,90,40,right,right,0.242
MON1991WRNO,2019-10-21-14-09-12,3,35,0.5319790840288083,left,probe,ambiguous-stable,-1,-30,right,right,0.574
MON1991WRNO,2019-10-21-14-09-12,3,36,0.6169728142260721,left,both,ambiguous-stable,105,-30,left,right,0.487
MON1991WRNO,2019-10-21-14-09-12,3,37,0.5585695884508358,left,probe,ambiguous-stable,-1,30,right,right,0.357
MON1991WRNO,2019-10-21-14-09-12,3,38,0.5329683930731993,left,both,ambiguous-stable,91,30,left,right,0.281
MON1991WRNO,2019-10-21-14-09-12,3,39,0.6116620022392505,left,probe,ambiguous-stable,-1,-10,right,right,0.318
MON1991WRNO,2019-10-21-14-09-12,3,40,0.5851373228743545,left,both,ambiguous-stable,104,-10,left,right,0.267
MON1991WRNO,2019-10-21-14-09-12,3,41,0.5186121550130652,left,probe,ambiguous-switch,-1,40,right,right,0.373
MON1991WRNO,2019-10-21-14-09-12,3,42,0.6618355582568299,left,both,ambiguous-switch,97,40,right,right,0.335
MON1991WRNO,2019-10-21-14-09-12,3,43,0.5646462039243935,right,probe,biased-switch,-1,-5,right,right,0.391
MON1991WRNO,2019-10-21-14-09-12,3,44,0.6721470159828817,right,both,biased-switch,95,-5,right,right,0.335
MON1991WRNO,2019-10-21-14-09-12,3,45,0.593384429553112,right,probe,ambiguous-stable,-1,0,right,right,0.504
MON1991WRNO,2019-10-21-14-09-12,3,46,0.6632461101787185,right,both,ambiguous-stable,101,0,left,right,0.268
MON1991WRNO,2019-10-21-14-09-12,3,47,0.6327786709508249,left,probe,ambiguous-switch,-1,-5,right,right,0.478
MON1991WRNO,2019-10-21-14-09-12,3,48,0.5828106440025143,left,both,ambiguous-switch,95,-5,right,right,0.037
MON1991WRNO,2019-10-21-14-09-12,3,49,0.6911866268806371,left,probe,ambiguous-switch,-1,30,right,right,0.047
MON1991WRNO,2019-10-21-14-09-12,3,50,0.5748555373829722,left,both,ambiguous-switch,106,30,right,right,0.443
MON1991WRNO,2019-10-21-14-09-12,3,51,0.6840250075636061,left,probe,biased-switch,-1,0,right,right,0.346
MON1991WRNO,2019-10-21-14-09-12,3,52,0.6746250794670452,left,both,biased-switch,107,0,right,right,0.361
MON1991WRNO,2019-10-21-14-09-12,3,53,0.6489755179191585,right,probe,ambiguous-switch,-1,10,right,right,0.549
MON1991WRNO,2019-10-21-14-09-12,3,54,0.5990032221027066,right,both,ambiguous-switch,91,10,right,left,0.37
MON1991WRNO,2019-10-21-14-09-12,3,55,0.6082088061889687,left,probe,ambiguous-stable,-1,40,right,right,0.416
MON1991WRNO,2019-10-21-14-09-12,3,56,0.5044895810523702,left,both,ambiguous-stable,97,40,left,right,0.189
MON1991WRNO,2019-10-21-14-09-12,3,57,0.64497432510289,right,probe,ambiguous-stable,-1,10,right,right,0.76
MON1991WRNO,2019-10-21-14-09-12,3,58,0.5865246621570718,right,both,ambiguous-stable,92,10,left,right,0.226
MON1991WRNO,2019-10-21-14-09-12,3,59,0.5043742226617957,left,probe,ambiguous-stable,-1,5,right,right,0.643
MON1991WRNO,2019-10-21-14-09-12,3,60,0.5089142344898477,left,both,ambiguous-stable,101,5,left,right,0.273
MON1991WRNO,2019-10-21-14-09-12,4,1,0.5523533634955258,left,probe,biased-switch,-1,10,right,right,0.353
MON1991WRNO,2019-10-21-14-09-12,4,2,0.632984922570358,left,both,biased-switch,96,10,right,left,0.281
MON1991WRNO,2019-10-21-14-09-12,4,3,0.5774197667401215,left,probe,biased-switch,-1,20,left,left,0.354
MON1991WRNO,2019-10-21-14-09-12,4,4,0.6646189757307184,left,both,biased-switch,95,20,left,right,0.071
MON1991WRNO,2019-10-21-14-09-12,4,5,0.6413858622058322,left,probe,ambiguous-switch,-1,10,right,right,0.161
MON1991WRNO,2019-10-21-14-09-12,4,6,0.6104040826924411,left,both,ambiguous-switch,93,10,right,right,2.213
MON1991WRNO,2019-10-21-14-09-12,4,7,0.5351974441898991,left,probe,ambiguous-switch,-1,0,right,right,0.788
MON1991WRNO,2019-10-21-14-09-12,4,8,0.6211608276667113,left,both,ambiguous-switch,104,0,right,right,0.255
MON1991WRNO,2019-10-21-14-09-12,4,9,0.6701232034454042,left,probe,biased-switch,-1,40,right,right,0.285
MON1991WRNO,2019-10-21-14-09-12,4,10,0.507900138967643,left,both,biased-switch,109,40,right,right,0.619
MON1991WRNO,2019-10-21-14-09-12,4,11,0.6033197352040092,right,probe,biased-switch,-1,30,right,right,2.687
MON1991WRNO,2019-10-21-14-09-12,4,12,0.5763618515071618,right,both,biased-switch,100,30,right,left,0.388
MON1991WRNO,2019-10-21-14-09-12,4,13,0.6725921165519705,right,probe,ambiguous-switch,-1,-10,right,right,0.847
MON1991WRNO,2019-10-21-14-09-12,4,14,0.6738000713208567,right,both,ambiguous-switch,98,-10,right,right,0.251
MON1991WRNO,2019-10-21-14-09-12,4,15,0.6007954807470048,right,probe,ambiguous-stable,-1,-30,right,right,0.399
MON1991WRNO,2019-10-21-14-09-12,4,16,0.5878823889807556,right,both,ambiguous-stable,97,-30,left,left,0.447
MON1991WRNO,2019-10-21-14-09-12,4,17,0.6494416162901518,right,probe,ambiguous-switch,-1,-5,right,right,0.695
MON1991WRNO,2019-10-21-14-09-12,4,18,0.5263232337809766,right,both,ambiguous-switch,92,-5,right,right,4.002
MON1991WRNO,2019-10-21-14-09-12,4,19,0.6431483345770177,left,probe,ambiguous-stable,-1,0,right,right,1.078
MON1991WRNO,2019-10-21-14-09-12,4,20,0.6219315212740479,left,both,ambiguous-stable,98,0,left,right,0.28
MON1991WRNO,2019-10-21-14-09-12,4,21,0.6365514995668271,right,probe,biased-switch,-1,-10,right,right,0.122
MON1991WRNO,2019-10-21-14-09-12,4,22,0.5541500842105199,right,both,biased-switch,94,-10,right,right,0.354
MON1991WRNO,2019-10-21-14-09-12,4,23,0.6539510074468372,right,probe,ambiguous-switch,-1,-30,right,right,0.677
MON1991WRNO,2019-10-21-14-09-12,4,24,0.6117028837128132,right,both,ambiguous-switch,106,-30,right,right,0.65
MON1991WRNO,2019-10-21-14-09-12,4,25,0.6370246229583909,right,probe,ambiguous-stable,-1,30,right,right,0.585
MON1991WRNO,2019-10-21-14-09-12,4,26,0.5583380675532265,right,both,ambiguous-stable,93,30,left,right,0.053
MON1991WRNO,2019-10-21-14-09-12,4,27,0.6578118566101692,left,probe,ambiguous-switch,-1,40,right,right,0.26
MON1991WRNO,2019-10-21-14-09-12,4,28,0.6757430679279426,left,both,ambiguous-switch,102,40,right,right,0.28
MON1991WRNO,2019-10-21-14-09-12,4,29,0.5013131335998495,right,probe,ambiguous-switch,-1,30,right,right,0.333
MON1991WRNO,2019-10-21-14-09-12,4,30,0.5056013809052236,right,both,ambiguous-switch,95,30,right,right,0.168
MON1991WRNO,2019-10-21-14-09-12,4,31,0.5466258863512858,right,probe,ambiguous-stable,-1,20,right,right,5.186
MON1991WRNO,2019-10-21-14-09-12,4,32,0.524860254555087,right,both,ambiguous-stable,95,20,left,right,0.313
MON1991WRNO,2019-10-21-14-09-12,4,33,0.5647545863501771,left,probe,ambiguous-stable,-1,-5,right,right,0.416
MON1991WRNO,2019-10-21-14-09-12,4,34,0.6388506313536887,left,both,ambiguous-stable,110,-5,left,right,0.264
MON1991WRNO,2019-10-21-14-09-12,4,35,0.54443901480984,right,probe,biased-switch,-1,-20,right,right,1.274
MON1991WRNO,2019-10-21-14-09-12,4,36,0.6013814475557954,right,both,biased-switch,108,-20,right,right,0.366
MON1991WRNO,2019-10-21-14-09-12,4,37,0.6234521650227337,left,probe,ambiguous-stable,-1,-20,right,right,0.349
MON1991WRNO,2019-10-21-14-09-12,4,38,0.5757211785795062,left,both,ambiguous-stable,100,-20,left,left,0.207
MON1991WRNO,2019-10-21-14-09-12,4,39,0.5501267934694934,left,probe,biased-switch,-1,-5,right,right,0.335
MON1991WRNO,2019-10-21-14-09-12,4,40,0.5903175933093465,left,both,biased-switch,100,-5,right,right,0.297
MON1991WRNO,2019-10-21-14-09-12,4,41,0.6656210320967707,left,probe,ambiguous-switch,-1,5,right,right,1.241
MON1991WRNO,2019-10-21-14-09-12,4,42,0.624064611508526,left,both,ambiguous-switch,106,5,right,right,0.457
MON1991WRNO,2019-10-21-14-09-12,4,43,0.5410136970687965,right,probe,ambiguous-stable,-1,10,right,right,0.427
MON1991WRNO,2019-10-21-14-09-12,4,44,0.5793897520234316,right,both,ambiguous-stable,96,10,left,right,0.012
MON1991WRNO,2019-10-21-14-09-12,4,45,0.6254995642483339,right,probe,ambiguous-stable,-1,40,right,right,1.064
MON1991WRNO,2019-10-21-14-09-12,4,46,0.6701807938087629,right,both,ambiguous-stable,94,40,left,right,0.401
MON1991WRNO,2019-10-21-14-09-12,4,47,0.5904183772953358,left,probe,biased-switch,-1,0,right,right,0.371
MON1991WRNO,2019-10-21-14-09-12,4,48,0.6692846015332525,left,both,biased-switch,92,0,right,left,0.286
MON1991WRNO,2019-10-21-14-09-12,4,49,0.5225380918363666,right,probe,biased-switch,-1,5,right,right,0.683
MON1991WRNO,2019-10-21-14-09-12,4,50,0.5856994171071117,right,both,biased-switch,97,5,right,left,0.216
MON1991WRNO,2019-10-21-14-09-12,4,51,0.6787580076002818,right,probe,ambiguous-stable,-1,5,right,right,0.254
MON1991WRNO,2019-10-21-14-09-12,4,52,0.575080207063251,right,both,ambiguous-stable,110,5,left,right,0.301
MON1991WRNO,2019-10-21-14-09-12,4,53,0.6851831417115225,right,probe,ambiguous-switch,-1,-20,right,right,0.253
MON1991WRNO,2019-10-21-14-09-12,4,54,0.5983363516408354,right,both,ambiguous-switch,91,-20,right,right,0.197
MON1991WRNO,2019-10-21-14-09-12,4,55,0.6177219874125899,right,probe,ambiguous-switch,-1,20,right,right,0.22
MON1991WRNO,2019-10-21-14-09-12,4,56,0.6864750763407181,right,both,ambiguous-switch,104,20,right,right,0.332
MON1991WRNO,2019-10-21-14-09-12,4,57,0.5687315849371303,left,probe,ambiguous-stable,-1,-10,right,right,0.461
MON1991WRNO,2019-10-21-14-09-12,4,58,0.6157891919518534,left,both,ambiguous-stable,102,-10,left,right,0.595
MON1991WRNO,2019-10-21-14-09-12,4,59,0.5036111786536895,right,probe,biased-switch,-1,-30,left,left,0.513
MON1991WRNO,2019-10-21-14-09-12,4,60,0.5121404670091254,right,both,biased-switch,93,-30,left,left,0.375
MON1991WRNO,2019-10-21-14-09-12,5,1,0.5259513612348895,right,probe,biased-switch,-1,30,left,left,0.373
MON1991WRNO,2019-10-21-14-09-12,5,2,0.5956294309742182,right,both,biased-switch,95,30,left,right,0.067
MON1991WRNO,2019-10-21-14-09-12,5,3,0.6416954961979315,left,probe,ambiguous-switch,-1,40,right,right,2.233
MON1991WRNO,2019-10-21-14-09-12,5,4,0.6947610070699615,left,both,ambiguous-switch,94,40,right,right,0.309
MON1991WRNO,2019-10-21-14-09-12,5,5,0.6292126228041859,left,probe,ambiguous-stable,-1,5,right,right,0.361
MON1991WRNO,2019-10-21-14-09-12,5,6,0.6645769646222816,left,both,ambiguous-stable,104,5,left,right,3.314
MON1991WRNO,2019-10-21-14-09-12,5,7,0.5462236933767491,right,probe,biased-switch,-1,0,left,left,0.879
MON1991WRNO,2019-10-21-14-09-12,5,8,0.5585310542734792,right,both,biased-switch,96,0,left,right,0.434
MON1991WRNO,2019-10-21-14-09-12,5,9,0.598961066743237,left,probe,ambiguous-switch,-1,10,right,right,0.42
MON1991WRNO,2019-10-21-14-09-12,5,10,0.6109353845228986,left,both,ambiguous-switch,93,10,right,right,0.47
MON1991WRNO,2019-10-21-14-09-12,5,11,0.6018339643340439,right,probe,biased-switch,-1,20,right,right,0.459
MON1991WRNO,2019-10-21-14-09-12,5,12,0.6814663356704361,right,both,biased-switch,100,20,right,right,0.414
MON1991WRNO,2019-10-21-14-09-12,5,13,0.633693076527278,left,probe,ambiguous-switch,-1,-5,left,left,0.495
MON1991WRNO,2019-10-21-14-09-12,5,14,0.6243373305578871,left,both,ambiguous-switch,97,-5,left,right,0.723
MON1991WRNO,2019-10-21-14-09-12,5,15,0.5598119947766408,right,probe,biased-switch,-1,-10,right,right,0.565
MON1991WRNO,2019-10-21-14-09-12,5,16,0.6832829724250057,right,both,biased-switch,92,-10,right,right,0.643
MON1991WRNO,2019-10-21-14-09-12,5,17,0.6362843525087599,right,probe,biased-switch,-1,-5,right,right,0.617
MON1991WRNO,2019-10-21-14-09-12,5,18,0.5511285922768936,right,both,biased-switch,102,-5,right,right,0.339
MON1991WRNO,2019-10-21-14-09-12,5,19,0.5581850201733203,right,probe,ambiguous-stable,-1,0,right,right,0.394
MON1991WRNO,2019-10-21-14-09-12,5,20,0.6895089916917827,right,both,ambiguous-stable,100,0,left,right,0.43
MON1991WRNO,2019-10-21-14-09-12,5,21,0.5814365046102913,right,probe,ambiguous-switch,-1,20,right,right,0.6
MON1991WRNO,2019-10-21-14-09-12,5,22,0.6191207606755955,right,both,ambiguous-switch,101,20,right,left,0.432
MON1991WRNO,2019-10-21-14-09-12,5,23,0.5375817773833722,left,probe,ambiguous-stable,-1,-20,right,right,0.615
MON1991WRNO,2019-10-21-14-09-12,5,24,0.6437208330924551,left,both,ambiguous-stable,103,-20,left,right,0.643
MON1991WRNO,2019-10-21-14-09-12,5,25,0.6575743243003153,right,probe,ambiguous-switch,-1,-20,right,right,0.624
MON1991WRNO,2019-10-21-14-09-12,5,26,0.6594064496677539,right,both,ambiguous-switch,105,-20,right,right,0.39
MON1991WRNO,2019-10-21-14-09-12,5,27,0.6683855111613094,right,probe,ambiguous-stable,-1,20,right,right,0.669
MON1991WRNO,2019-10-21-14-09-12,5,28,0.5752755777834506,right,both,ambiguous-stable,104,20,left,right,0.54
MON1991WRNO,2019-10-21-14-09-12,5,29,0.5713057214335869,right,probe,ambiguous-stable,-1,30,right,right,0.541
MON1991WRNO,2019-10-21-14-09-12,5,30,0.5077335159007488,right,both,ambiguous-stable,107,30,left,right,0.26
MON1991WRNO,2019-10-21-14-09-12,5,31,0.5494613875168547,left,probe,ambiguous-switch,-1,30,left,left,0.544
MON1991WRNO,2019-10-21-14-09-12,5,32,0.6740187164211806,left,both,ambiguous-switch,110,30,left,right,0.434
MON1991WRNO,2019-10-21-14-09-12,5,33,0.5690265342826122,left,probe,ambiguous-stable,-1,-30,right,right,0.489
MON1991WRNO,2019-10-21-14-09-12,5,34,0.679502553086009,left,both,ambiguous-stable,100,-30,left,left,0.289
MON1991WRNO,2019-10-21-14-09-12,5,35,0.5699628386387792,right,probe,ambiguous-stable,-1,-5,right,right,0.594
MON1991WRNO,2019-10-21-14-09-12,5,36,0.5811938537070584,right,both,ambiguous-stable,110,-5,left,right,0.424
MON1991WRNO,2019-10-21-14-09-12,5,37,0.685525183046171,right,probe,ambiguous-stable,-1,40,right,right,0.685
MON1991WRNO,2019-10-21-14-09-12,5,38,0.6980688744162372,right,both,ambiguous-stable,104,40,left,right,0.538
MON1991WRNO,2019-10-21-14-09-12,5,39,0.6981646600113223,right,probe,biased-switch,-1,-30,right,right,0.481
MON1991WRNO,2019-10-21-14-09-12,5,40,0.5956159481203477,right,both,biased-switch,93,-30,right,right,0.312
MON1991WRNO,2019-10-21-14-09-12,5,41,0.6194789202935959,left,probe,ambiguous-stable,-1,10,right,right,0.748
MON1991WRNO,2019-10-21-14-09-12,5,42,0.6652129051495939,left,both,ambiguous-stable,93,10,left,right,0.294
MON1991WRNO,2019-10-21-14-09-12,5,43,0.6418685280442759,right,probe,ambiguous-switch,-1,-30,right,right,0.525
MON1991WRNO,2019-10-21-14-09-12,5,44,0.5516782394572892,right,both,ambiguous-switch,93,-30,right,right,0.324
MON1991WRNO,2019-10-21-14-09-12,5,45,0.688258340590204,right,probe,biased-switch,-1,-20,right,right,0.213
MON1991WRNO,2019-10-21-14-09-12,5,46,0.5092390199797848,right,both,biased-switch,95,-20,right,right,0.266
MON1991WRNO,2019-10-21-14-09-12,5,47,0.5879576090212223,right,probe,ambiguous-switch,-1,-10,right,right,0.484
MON1991WRNO,2019-10-21-14-09-12,5,48,0.5766721260077398,right,both,ambiguous-switch,109,-10,right,right,0.29
MON1991WRNO,2019-10-21-14-09-12,5,49,0.5656197796909976,right,probe,biased-switch,-1,5,right,right,0.265
MON1991WRNO,2019-10-21-14-09-12,5,50,0.6087197767071731,right,both,biased-switch,107,5,right,left,0.304
MON1991WRNO,2019-10-21-14-09-12,5,51,0.6877491432351273,left,probe,ambiguous-stable,-1,-10,right,right,0.518
MON1991WRNO,2019-10-21-14-09-12,5,52,0.6622362376838731,left,both,ambiguous-stable,108,-10,left,left,0.222
MON1991WRNO,2019-10-21-14-09-12,5,53,0.6501844410292206,right,probe,biased-switch,-1,10,right,right,0.41
MON1991WRNO,2019-10-21-14-09-12,5,54,0.5758674834119276,right,both,biased-switch,107,10,right,left,0.236
MON1991WRNO,2019-10-21-14-09-12,5,55,0.5600251838224422,left,probe,biased-switch,-1,40,left,left,0.361
MON1991WRNO,2019-10-21-14-09-12,5,56,0.5984672025711462,left,both,biased-switch,97,40,left,right,0.361
MON1991WRNO,2019-10-21-14-09-12,5,57,0.6952345873218687,left,probe,ambiguous-switch,-1,0,right,right,0.59
MON1991WRNO,2019-10-21-14-09-12,5,58,0.559811304970364,left,both,ambiguous-switch,98,0,right,right,0.419
MON1991WRNO,2019-10-21-14-09-12,5,59,0.52568643016296,right,probe,ambiguous-switch,-1,5,right,right,0.539
MON1991WRNO,2019-10-21-14-09-12,5,60,0.507898577822413,right,both,ambiguous-switch,92,5,right,right,0.441
MON1991WRNO,2019-10-21-14-09-12,6,1,0.5354939044012857,right,probe,ambiguous-switch,-1,30,right,right,0.478
MON1991WRNO,2019-10-21-14-09-12,6,2,0.5750776689429411,right,both,ambiguous-switch,96,30,right,right,0.329
MON1991WRNO,2019-10-21-14-09-12,6,3,0.6871227470098267,right,probe,ambiguous-stable,-1,-5,right,right,0.317
MON1991WRNO,2019-10-21-14-09-12,6,4,0.6208140544612252,right,both,ambiguous-stable,108,-5,left,right,0.639
MON1991WRNO,2019-10-21-14-09-12,6,5,0.5388300867629059,right,probe,ambiguous-switch,-1,-5,right,right,0.33
MON1991WRNO,2019-10-21-14-09-12,6,6,0.54595295235473,right,both,ambiguous-switch,98,-5,right,right,0.454
MON1991WRNO,2019-10-21-14-09-12,6,7,0.6482974199767096,left,probe,ambiguous-stable,-1,5,right,right,0.431
MON1991WRNO,2019-10-21-14-09-12,6,8,0.5857208461289962,left,both,ambiguous-stable,103,5,left,right,0.333
MON1991WRNO,2019-10-21-14-09-12,6,9,0.5866750955170358,right,probe,biased-switch,-1,-20,right,right,0.359
MON1991WRNO,2019-10-21-14-09-12,6,10,0.6073917432911792,right,both,biased-switch,98,-20,right,right,0.33
MON1991WRNO,2019-10-21-14-09-12,6,11,0.525128873029579,left,probe,ambiguous-stable,-1,30,right,right,0.372
MON1991WRNO,2019-10-21-14-09-12,6,12,0.647305075138082,left,both,ambiguous-stable,94,30,left,right,0.251
MON1991WRNO,2019-10-21-14-09-12,6,13,0.5656553077035296,right,probe,ambiguous-stable,-1,-20,right,right,0.474
MON1991WRNO,2019-10-21-14-09-12,6,14,0.5215762414624316,right,both,ambiguous-stable,93,-20,left,right,0.364
MON1991WRNO,2019-10-21-14-09-12,6,15,0.5300686890498784,left,probe,biased-switch,-1,-5,right,right,1.032
MON1991WRNO,2019-10-21-14-09-12,6,16,0.6647344198823237,left,both,biased-switch,94,-5,right,right,0.352
MON1991WRNO,2019-10-21-14-09-12,6,17,0.55868089077929,left,probe,biased-switch,-1,-30,right,right,0.765
MON1991WRNO,2019-10-21-14-09-12,6,18,0.5102216055235905,left,both,biased-switch,106,-30,right,right,4.967
MON1991WRNO,2019-10-21-14-09-12,6,19,0.6986356309823648,right,probe,ambiguous-switch,-1,40,right,right,0.251
MON1991WRNO,2019-10-21-14-09-12,6,20,0.5816927662031876,right,both,ambiguous-switch,109,40,right,right,0.46
MON1991WRNO,2019-10-21-14-09-12,6,21,0.5033934132404752,left,probe,biased-switch,-1,-10,right,right,0.426
MON1991WRNO,2019-10-21-14-09-12,6,22,0.5072622584359581,left,both,biased-switch,107,-10,right,left,0.278
MON1991WRNO,2019-10-21-14-09-12,6,23,0.6951613603824623,left,probe,ambiguous-stable,-1,0,right,right,0.636
MON1991WRNO,2019-10-21-14-09-12,6,24,0.6339253172482339,left,both,ambiguous-stable,93,0,left,right,0.375
MON1991WRNO,2019-10-21-14-09-12,6,25,0.5664944806764569,right,probe,ambiguous-switch,-1,-10,right,right,0.557
MON1991WRNO,2019-10-21-14-09-12,6,26,0.59280346526518,right,both,ambiguous-switch,109,-10,right,right,0.493
MON1991WRNO,2019-10-21-14-09-12,6,27,0.5604030242100204,left,probe,ambiguous-stable,-1,20,right,right,0.606
MON1991WRNO,2019-10-21-14-09-12,6,28,0.669335131565332,left,both,ambiguous-stable,97,20,left,right,0.023
MON1991WRNO,2019-10-21-14-09-12,6,29,0.6302010595604048,right,probe,biased-switch,-1,10,right,right,0.303
MON1991WRNO,2019-10-21-14-09-12,6,30,0.5928704254644078,right,both,biased-switch,91,10,right,right,0.248
MON1991WRNO,2019-10-21-14-09-12,6,31,0.6563528529179004,right,probe,ambiguous-switch,-1,-30,right,right,0.473
MON1991WRNO,2019-10-21-14-09-12,6,32,0.5130368839015923,right,both,ambiguous-switch,98,-30,right,right,0.456
MON1991WRNO,2019-10-21-14-09-12,6,33,0.6737955775316316,left,probe,ambiguous-switch,-1,0,right,right,0.452
MON1991WRNO,2019-10-21-14-09-12,6,34,0.6760976907608209,left,both,ambiguous-switch,93,0,right,right,0.347
MON1991WRNO,2019-10-21-14-09-12,6,35,0.5041537302517289,left,probe,biased-switch,-1,20,right,right,0.273
MON1991WRNO,2019-10-21-14-09-12,6,36,0.6442274901587999,left,both,biased-switch,104,20,right,right,0.475
MON1991WRNO,2019-10-21-14-09-12,6,37,0.5291766311211579,right,probe,ambiguous-stable,-1,40,right,right,0.655
MON1991WRNO,2019-10-21-14-09-12,6,38,0.6842250608817015,right,both,ambiguous-stable,108,40,left,right,0.353
MON1991WRNO,2019-10-21-14-09-12,6,39,0.653079594244585,left,probe,ambiguous-stable,-1,-10,right,right,0.438
MON1991WRNO,2019-10-21-14-09-12,6,40,0.5846565224693502,left,both,ambiguous-stable,110,-10,left,left,0.264
MON1991WRNO,2019-10-21-14-09-12,6,41,0.537083683047667,right,probe,biased-switch,-1,5,right,right,0.456
MON1991WRNO,2019-10-21-14-09-12,6,42,0.6314420485162396,right,both,biased-switch,97,5,right,right,0.353
MON1991WRNO,2019-10-21-14-09-12,6,43,0.6146321510490366,right,probe,biased-switch,-1,30,right,right,0.477
MON1991WRNO,2019-10-21-14-09-12,6,44,0.5194596503981586,right,both,biased-switch,106,30,right,right,0.348
MON1991WRNO,2019-10-21-14-09-12,6,45,0.6537042683653002,left,probe,ambiguous-switch,-1,-20,right,right,0.581
MON1991WRNO,2019-10-21-14-09-12,6,46,0.564162821565481,left,both,ambiguous-switch,92,-20,right,right,0.379
MON1991WRNO,2019-10-21-14-09-12,6,47,0.638890815090712,right,probe,ambiguous-switch,-1,20,right,right,0.496
MON1991WRNO,2019-10-21-14-09-12,6,48,0.5547474237499589,right,both,ambiguous-switch,90,20,right,right,0.408
MON1991WRNO,2019-10-21-14-09-12,6,49,0.5701503848200004,left,probe,biased-switch,-1,0,right,right,0.613
MON1991WRNO,2019-10-21-14-09-12,6,50,0.6694069096938556,left,both,biased-switch,100,0,right,right,0.249
MON1991WRNO,2019-10-21-14-09-12,6,51,0.6140720987597509,left,probe,ambiguous-stable,-1,10,right,right,0.493
MON1991WRNO,2019-10-21-14-09-12,6,52,0.6705437580132254,left,both,ambiguous-stable,107,10,left,right,0.168
MON1991WRNO,2019-10-21-14-09-12,6,53,0.6714575519926927,left,probe,ambiguous-switch,-1,10,right,right,0.322
MON1991WRNO,2019-10-21-14-09-12,6,54,0.6985101415188342,left,both,ambiguous-switch,98,10,right,left,0.38
MON1991WRNO,2019-10-21-14-09-12,6,55,0.6485865573150335,right,probe,ambiguous-switch,-1,5,right,right,0.491
MON1991WRNO,2019-10-21-14-09-12,6,56,0.6541060524338045,right,both,ambiguous-switch,109,5,right,right,0.277
MON1991WRNO,2019-10-21-14-09-12,6,57,0.5439364144608707,left,probe,biased-switch,-1,40,right,right,0.547
MON1991WRNO,2019-10-21-14-09-12,6,58,0.6395157008096879,left,both,biased-switch,101,40,right,right,0.4
MON1991WRNO,2019-10-21-14-09-12,6,59,0.6567500294908422,left,probe,ambiguous-stable,-1,-30,right,right,0.262
MON1991WRNO,2019-10-21-14-09-12,6,60,0.5483038915045408,left,both,ambiguous-stable,107,-30,left,right,0.006
MON1991WRNO,2019-10-21-14-09-12,7,1,0.6359898435520616,right,probe,ambiguous-stable,-1,0,left,left,0.282
MON1991WRNO,2019-10-21-14-09-12,7,2,0.5926297711769232,right,both,ambiguous-stable,94,0,right,left,0.249
MON1991WRNO,2019-10-21-14-09-12,7,3,0.5182043547862623,right,probe,ambiguous-switch,-1,0,right,right,0.525
MON1991WRNO,2019-10-21-14-09-12,7,4,0.5861393572218586,right,both,ambiguous-switch,95,0,right,right,0.567
MON1991WRNO,2019-10-21-14-09-12,7,5,0.6336750049090621,right,probe,ambiguous-stable,-1,-5,right,right,0.483
MON1991WRNO,2019-10-21-14-09-12,7,6,0.5453746310359656,right,both,ambiguous-stable,108,-5,left,right,0.169
MON1991WRNO,2019-10-21-14-09-12,7,7,0.6440090427005807,right,probe,ambiguous-switch,-1,-30,right,right,0.336
MON1991WRNO,2019-10-21-14-09-12,7,8,0.628566024974919,right,both,ambiguous-switch,100,-30,right,right,0.243
MON1991WRNO,2019-10-21-14-09-12,7,9,0.6940425094605618,right,probe,ambiguous-switch,-1,-20,right,right,0.51
MON1991WRNO,2019-10-21-14-09-12,7,10,0.6207876424770895,right,both,ambiguous-switch,98,-20,right,right,1.947
MON1991WRNO,2019-10-21-14-09-12,7,11,0.5001125091178313,left,probe,ambiguous-stable,-1,30,right,right,0.306
MON1991WRNO,2019-10-21-14-09-12,7,12,0.512372777805286,left,both,ambiguous-stable,91,30,left,right,0.195
MON1991WRNO,2019-10-21-14-09-12,7,13,0.6966844648831969,right,probe,biased-switch,-1,20,right,right,0.233
MON1991WRNO,2019-10-21-14-09-12,7,14,0.6210217124829376,right,both,biased-switch,92,20,right,left,0.245
MON1991WRNO,2019-10-21-14-09-12,7,15,0.6805098577144988,left,probe,ambiguous-stable,-1,-20,right,right,0.053
MON1991WRNO,2019-10-21-14-09-12,7,16,0.6585051677282965,left,both,ambiguous-stable,91,-20,left,right,0.246
MON1991WRNO,2019-10-21-14-09-12,7,17,0.511759504499972,left,probe,ambiguous-switch,-1,30,right,right,0.502
MON1991WRNO,2019-10-21-14-09-12,7,18,0.6983182844698332,left,both,ambiguous-switch,98,30,right,right,0.464
MON1991WRNO,2019-10-21-14-09-12,7,19,0.6086774084564887,left,probe,ambiguous-stable,-1,-10,right,right,0.524
MON1991WRNO,2019-10-21-14-09-12,7,20,0.5638834600537113,left,both,ambiguous-stable,93,-10,left,right,0.503
MON1991WRNO,2019-10-21-14-09-12,7,21,0.6178129041407852,right,probe,ambiguous-switch,-1,20,right,right,0.445
MON1991WRNO,2019-10-21-14-09-12,7,22,0.5717735580422307,right,both,ambiguous-switch,91,20,right,right,0.552
MON1991WRNO,2019-10-21-14-09-12,7,23,0.6783249179728712,left,probe,ambiguous-switch,-1,5,right,right,0.322
MON1991WRNO,2019-10-21-14-09-12,7,24,0.6397071893892201,left,both,ambiguous-switch,107,5,right,right,0.363
MON1991WRNO,2019-10-21-14-09-12,7,25,0.5027986758417516,left,probe,biased-switch,-1,-30,right,right,0.564
MON1991WRNO,2019-10-21-14-09-12,7,26,0.517920351951761,left,both,biased-switch,109,-30,right,left,0.318
MON1991WRNO,2019-10-21-14-09-12,7,27,0.6544198534240688,left,probe,biased-switch,-1,5,right,right,0.546
MON1991WRNO,2019-10-21-14-09-12,7,28,0.5026024631529536,left,both,biased-switch,101,5,right,right,0.303
MON1991WRNO,2019-10-21-14-09-12,7,29,0.5845477920200961,right,probe,biased-switch,-1,-20,right,right,0.459
MON1991WRNO,2019-10-21-14-09-12,7,30,0.5578208373163975,right,both,biased-switch,96,-20,right,right,0.251
MON1991WRNO,2019-10-21-14-09-12,7,31,0.6821733459343264,right,probe,biased-switch,-1,40,right,right,0.295
MON1991WRNO,2019-10-21-14-09-12,7,32,0.6511008990446309,right,both,biased-switch,107,40,right,right,0.301
MON1991WRNO,2019-10-21-14-09-12,7,33,0.6549346796645699,left,probe,biased-switch,-1,-10,right,right,0.34
MON1991WRNO,2019-10-21-14-09-12,7,34,0.6952837529245215,left,both,biased-switch,109,-10,right,right,0.223
MON1991WRNO,2019-10-21-14-09-12,7,35,0.5052446573000816,left,probe,ambiguous-switch,-1,40,right,right,0.419
MON1991WRNO,2019-10-21-14-09-12,7,36,0.647260964991158,left,both,ambiguous-switch,96,40,right,right,0.082
MON1991WRNO,2019-10-21-14-09-12,7,37,0.5381356404716451,right,probe,biased-switch,-1,30,right,right,0.373
MON1991WRNO,2019-10-21-14-09-12,7,38,0.6385109214430964,right,both,biased-switch,108,30,right,right,0.569
MON1991WRNO,2019-10-21-14-09-12,7,39,0.5938310007563772,left,probe,ambiguous-stable,-1,-30,right,right,0.689
MON1991WRNO,2019-10-21-14-09-12,7,40,0.587470673418045,left,both,ambiguous-stable,96,-30,left,right,0.505
MON1991WRNO,2019-10-21-14-09-12,7,41,0.6500547161514632,left,probe,ambiguous-stable,-1,40,right,right,0.595
MON1991WRNO,2019-10-21-14-09-12,7,42,0.5237685558986737,left,both,ambiguous-stable,104,40,left,right,0.472
MON1991WRNO,2019-10-21-14-09-12,7,43,0.6699195429026096,right,probe,biased-switch,-1,-5,right,right,0.512
MON1991WRNO,2019-10-21-14-09-12,7,44,0.5577605232495453,right,both,biased-switch,96,-5,right,right,0.402
MON1991WRNO,2019-10-21-14-09-12,7,45,0.6879608842654762,right,probe,ambiguous-switch,-1,-10,right,right,0.281
MON1991WRNO,2019-10-21-14-09-12,7,46,0.539012850850064,right,both,ambiguous-switch,90,-10,right,right,0.315
MON1991WRNO,2019-10-21-14-09-12,7,47,0.6265303009085822,left,probe,ambiguous-switch,-1,10,right,right,0.665
MON1991WRNO,2019-10-21-14-09-12,7,48,0.5684273206114558,left,both,ambiguous-switch,103,10,right,right,0.341
MON1991WRNO,2019-10-21-14-09-12,7,49,0.6214948746223558,left,probe,biased-switch,-1,10,right,right,0.46
MON1991WRNO,2019-10-21-14-09-12,7,50,0.525886634852731,left,both,biased-switch,93,10,right,left,0.322
MON1991WRNO,2019-10-21-14-09-12,7,51,0.6096018692386499,right,probe,ambiguous-stable,-1,10,right,right,0.4
MON1991WRNO,2019-10-21-14-09-12,7,52,0.5387992237880123,right,both,ambiguous-stable,92,10,left,right,0.361
MON1991WRNO,2019-10-21-14-09-12,7,53,0.5573734390568686,right,probe,ambiguous-switch,-1,-5,right,right,0.478
MON1991WRNO,2019-10-21-14-09-12,7,54,0.6673392340438972,right,both,ambiguous-switch,108,-5,right,right,0.35
MON1991WRNO,2019-10-21-14-09-12,7,55,0.5102276761076969,left,probe,biased-switch,-1,0,right,right,0.41
MON1991WRNO,2019-10-21-14-09-12,7,56,0.6403435831329115,left,both,biased-switch,100,0,right,left,0.292
MON1991WRNO,2019-10-21-14-09-12,7,57,0.5536623383037935,right,probe,ambiguous-stable,-1,5,right,right,0.426
MON1991WRNO,2019-10-21-14-09-12,7,58,0.5096701638313564,right,both,ambiguous-stable,110,5,left,right,0.298
MON1991WRNO,2019-10-21-14-09-12,7,59,0.6376783594635568,right,probe,ambiguous-stable,-1,20,right,right,0.293
MON1991WRNO,2019-10-21-14-09-12,7,60,0.5947315910339497,right,both,ambiguous-stable,101,20,left,right,0.325
MON1991WRNO,2019-10-21-14-09-12,8,1,0.5284562148764884,left,probe,biased-switch,-1,30,right,right,0.358
MON1991WRNO,2019-10-21-14-09-12,8,2,0.5894293613421547,left,both,biased-switch,108,30,right,left,0.377
MON1991WRNO,2019-10-21-14-09-12,8,3,0.6442158958948827,left,probe,ambiguous-stable,-1,5,right,right,0.357
MON1991WRNO,2019-10-21-14-09-12,8,4,0.6443744381738706,left,both,ambiguous-stable,93,5,left,right,0.312
MON1991WRNO,2019-10-21-14-09-12,8,5,0.5570115281749286,left,probe,ambiguous-switch,-1,20,right,right,0.416
MON1991WRNO,2019-10-21-14-09-12,8,6,0.634661462873805,left,both,ambiguous-switch,93,20,right,right,0.269
MON1991WRNO,2019-10-21-14-09-12,8,7,0.6342505554489694,left,probe,ambiguous-switch,-1,-5,right,right,0.418
MON1991WRNO,2019-10-21-14-09-12,8,8,0.5050188326214449,left,both,ambiguous-switch,91,-5,right,right,0.26
MON1991WRNO,2019-10-21-14-09-12,8,9,0.5374901757847304,left,probe,biased-switch,-1,20,right,right,0.386
MON1991WRNO,2019-10-21-14-09-12,8,10,0.6094803251908288,left,both,biased-switch,109,20,right,left,0.29
MON1991WRNO,2019-10-21-14-09-12,8,11,0.5760541695103681,left,probe,ambiguous-switch,-1,5,left,left,0.269
MON1991WRNO,2019-10-21-14-09-12,8,12,0.5633883763857428,left,both,ambiguous-switch,103,5,left,right,0.299
MON1991WRNO,2019-10-21-14-09-12,8,13,0.5795470438696593,left,probe,ambiguous-switch,-1,30,right,right,0.288
MON1991WRNO,2019-10-21-14-09-12,8,14,0.5041548263226162,left,both,ambiguous-switch,92,30,right,right,0.31
MON1991WRNO,2019-10-21-14-09-12,8,15,0.5602049946481735,left,probe,ambiguous-stable,-1,10,right,right,0.522
MON1991WRNO,2019-10-21-14-09-12,8,16,0.6659727286837597,left,both,ambiguous-stable,106,10,left,right,0.29
MON1991WRNO,2019-10-21-14-09-12,8,17,0.5225377922769782,right,probe,ambiguous-switch,-1,-10,left,left,0.358
MON1991WRNO,2019-10-21-14-09-12,8,18,0.6198444760281674,right,both,ambiguous-switch,97,-10,left,left,0.295
MON1991WRNO,2019-10-21-14-09-12,8,19,0.5346620749182668,right,probe,biased-switch,-1,0,left,left,0.406
MON1991WRNO,2019-10-21-14-09-12,8,20,0.5089574200138719,right,both,biased-switch,101,0,left,right,0.368
MON1991WRNO,2019-10-21-14-09-12,8,21,0.5131761097260855,right,probe,ambiguous-stable,-1,40,right,right,0.478
MON1991WRNO,2019-10-21-14-09-12,8,22,0.6675768877018091,right,both,ambiguous-stable,95,40,left,right,0.333
MON1991WRNO,2019-10-21-14-09-12,8,23,0.6241387256527763,right,probe,ambiguous-switch,-1,10,right,right,0.431
MON1991WRNO,2019-10-21-14-09-12,8,24,0.6934007908756986,right,both,ambiguous-switch,104,10,right,right,0.293
MON1991WRNO,2019-10-21-14-09-12,8,25,0.5999938642606526,right,probe,biased-switch,-1,5,right,right,0.388
MON1991WRNO,2019-10-21-14-09-12,8,26,0.5785875415369802,right,both,biased-switch,98,5,right,left,0.339
MON1991WRNO,2019-10-21-14-09-12,8,27,0.6823993844596531,left,probe,ambiguous-switch,-1,0,right,right,0.438
MON1991WRNO,2019-10-21-14-09-12,8,28,0.5936710921918116,left,both,ambiguous-switch,98,0,right,left,0.286
MON1991WRNO,2019-10-21-14-09-12,8,29,0.5882242672976661,left,probe,biased-switch,-1,-30,right,right,0.316
MON1991WRNO,2019-10-21-14-09-12,8,30,0.6082062562050002,left,both,biased-switch,98,-30,right,right,0.037
MON1991WRNO,2019-10-21-14-09-12,8,31,0.631720964590154,left,probe,biased-switch,-1,-20,right,right,0.784
MON1991WRNO,2019-10-21-14-09-12,8,32,0.5396916500281237,left,both,biased-switch,99,-20,right,right,0.366
MON1991WRNO,2019-10-21-14-09-12,8,33,0.6406303965575915,right,probe,ambiguous-switch,-1,40,right,right,0.342
MON1991WRNO,2019-10-21-14-09-12,8,34,0.5215298773667408,right,both,ambiguous-switch,101,40,right,right,0.278
MON1991WRNO,2019-10-21-14-09-12,8,35,0.51795052466543,right,probe,biased-switch,-1,40,right,right,0.348
MON1991WRNO,2019-10-21-14-09-12,8,36,0.56651099077405,right,both,biased-switch,103,40,right,right,0.206
MON1991WRNO,2019-10-21-14-09-12,8,37,0.54642098828772,right,probe,biased-switch,-1,-5,right,right,0.257
MON1991WRNO,2019-10-21-14-09-12,8,38,0.5664351357552049,right,both,biased-switch,109,-5,right,right,0.201
MON1991WRNO,2019-10-21-14-09-12,8,39,0.5406138284033705,right,probe,ambiguous-stable,-1,-5,right,right,0.311
MON1991WRNO,2019-10-21-14-09-12,8,40,0.6080134597349722,right,both,ambiguous-stable,90,-5,left,right,0.281
MON1991WRNO,2019-10-21-14-09-12,8,41,0.5511867770876004,left,probe,ambiguous-stable,-1,-20,right,right,0.303
MON1991WRNO,2019-10-21-14-09-12,8,42,0.5183895175217976,left,both,ambiguous-stable,103,-20,left,right,0.203
MON1991WRNO,2019-10-21-14-09-12,8,43,0.5665455354928334,right,probe,ambiguous-switch,-1,-30,right,right,0.147
MON1991WRNO,2019-10-21-14-09-12,8,44,0.6235757331054491,right,both,ambiguous-switch,90,-30,right,right,0.066
MON1991WRNO,2019-10-21-14-09-12,8,45,0.6951002969571027,right,probe,ambiguous-stable,-1,30,right,right,0.271
MON1991WRNO,2019-10-21-14-09-12,8,46,0.6493958629447978,right,both,ambiguous-stable,105,30,left,right,0.156
MON1991WRNO,2019-10-21-14-09-12,8,47,0.6818191345606035,right,probe,ambiguous-stable,-1,0,right,right,0.237
MON1991WRNO,2019-10-21-14-09-12,8,48,0.5592163003740227,right,both,ambiguous-stable,96,0,left,right,0.19
MON1991WRNO,2019-10-21-14-09-12,8,49,0.534842637718815,left,probe,ambiguous-switch,-1,-20,left,left,0.628
MON1991WRNO,2019-10-21-14-09-12,8,50,0.6730584321054389,left,both,ambiguous-switch,102,-20,left,left,0.264
MON1991WRNO,2019-10-21-14-09-12,8,51,0.5754084072955773,left,probe,biased-switch,-1,-10,right,right,0.179
MON1991WRNO,2019-10-21-14-09-12,8,52,0.6796962335081007,left,both,biased-switch,102,-10,right,right,0.252
MON1991WRNO,2019-10-21-14-09-12,8,53,0.5528039629814071,left,probe,ambiguous-stable,-1,-10,right,right,0.587
MON1991WRNO,2019-10-21-14-09-12,8,54,0.654901796309529,left,both,ambiguous-stable,105,-10,left,left,0.199
MON1991WRNO,2019-10-21-14-09-12,8,55,0.5385738964559367,right,probe,ambiguous-stable,-1,20,right,right,0.107
MON1991WRNO,2019-10-21-14-09-12,8,56,0.5298136855270694,right,both,ambiguous-stable,93,20,left,left,0.297
MON1991WRNO,2019-10-21-14-09-12,8,57,0.6956967869718712,left,probe,biased-switch,-1,10,right,right,0.431
MON1991WRNO,2019-10-21-14-09-12,8,58,0.5350310336914474,left,both,biased-switch,99,10,right,left,0.296
MON1991WRNO,2019-10-21-14-09-12,8,59,0.5885167828157691,right,probe,ambiguous-stable,-1,-30,right,right,0.298
MON1991WRNO,2019-10-21-14-09-12,8,60,0.6250153648853142,right,both,ambiguous-stable,95,-30,left,right,1.067
MON1991WRNO,2019-10-21-14-09-12,9,1,0.5040565204556772,right,probe,ambiguous-stable,-1,-5,left,left,0.548
MON1991WRNO,2019-10-21-14-09-12,9,2,0.6409973911634462,right,both,ambiguous-stable,107,-5,right,right,1.003
MON1991WRNO,2019-10-21-14-09-12,9,3,0.6151586086740611,right,probe,ambiguous-switch,-1,5,right,right,0.421
MON1991WRNO,2019-10-21-14-09-12,9,4,0.5116392080117056,right,both,ambiguous-switch,100,5,right,left,7.275
MON1991WRNO,2019-10-21-14-09-12,9,5,0.5497192483530342,left,probe,ambiguous-switch,-1,20,right,right,0.347
MON1991WRNO,2019-10-21-14-09-12,9,6,0.5797327784613295,left,both,ambiguous-switch,103,20,right,right,0.26
MON1991WRNO,2019-10-21-14-09-12,9,7,0.5394609912662679,right,probe,ambiguous-switch,-1,-20,right,right,0.275
MON1991WRNO,2019-10-21-14-09-12,9,8,0.5332103188663561,right,both,ambiguous-switch,109,-20,right,right,0.43
MON1991WRNO,2019-10-21-14-09-12,9,9,0.6397966426539535,left,probe,ambiguous-stable,-1,10,right,right,0.301
MON1991WRNO,2019-10-21-14-09-12,9,10,0.6521262482248331,left,both,ambiguous-stable,107,10,left,left,0.28
MON1991WRNO,2019-10-21-14-09-12,9,11,0.5670102206633494,right,probe,ambiguous-switch,-1,30,left,left,0.399
MON1991WRNO,2019-10-21-14-09-12,9,12,0.6837285143350329,right,both,ambiguous-switch,90,30,left,right,0.246
MON1991WRNO,2019-10-21-14-09-12,9,13,0.5385441164631033,left,probe,biased-switch,-1,30,right,right,0.396
MON1991WRNO,2019-10-21-14-09-12,9,14,0.5134289044721295,left,both,biased-switch,109,30,right,right,0.228
MON1991WRNO,2019-10-21-14-09-12,9,15,0.6056256206931625,right,probe,ambiguous-stable,-1,40,right,right,0.294
MON1991WRNO,2019-10-21-14-09-12,9,16,0.6535880805345009,right,both,ambiguous-stable,107,40,left,right,0.274
MON1991WRNO,2019-10-21-14-09-12,9,17,0.5063738224274184,right,probe,ambiguous-switch,-1,10,right,right,0.245
MON1991WRNO,2019-10-21-14-09-12,9,18,0.5923779938366522,right,both,ambiguous-switch,97,10,right,right,0.299
MON1991WRNO,2019-10-21-14-09-12,9,19,0.5256302192723602,left,probe,biased-switch,-1,0,right,right,0.469
MON1991WRNO,2019-10-21-14-09-12,9,20,0.6127568931588689,left,both,biased-switch,104,0,right,right,0.262
MON1991WRNO,2019-10-21-14-09-12,9,21,0.655837430600863,right,probe,biased-switch,-1,-30,right,right,0.289
MON1991WRNO,2019-10-21-14-09-12,9,22,0.6418648077545615,right,both,biased-switch,101,-30,right,right,0.069
MON1991WRNO,2019-10-21-14-09-12,9,23,0.5675140282427127,left,probe,biased-switch,-1,10,right,right,0.193
MON1991WRNO,2019-10-21-14-09-12,9,24,0.68575895315882,left,both,biased-switch,104,10,right,left,0.358
MON1991WRNO,2019-10-21-14-09-12,9,25,0.6728959339553764,right,probe,ambiguous-stable,-1,-30,right,right,0.291
MON1991WRNO,2019-10-21-14-09-12,9,26,0.5953219481588619,right,both,ambiguous-stable,96,-30,left,right,0.008
MON1991WRNO,2019-10-21-14-09-12,9,27,0.6204842710707924,left,probe,ambiguous-stable,-1,5,right,right,0.328
MON1991WRNO,2019-10-21-14-09-12,9,28,0.608711381179442,left,both,ambiguous-stable,103,5,left,right,0.365
MON1991WRNO,2019-10-21-14-09-12,9,29,0.6272455006660845,left,probe,biased-switch,-1,40,right,right,0.459
MON1991WRNO,2019-10-21-14-09-12,9,30,0.5111083209509661,left,both,biased-switch,108,40,right,right,0.334
MON1991WRNO,2019-10-21-14-09-12,9,31,0.5560475704852392,left,probe,ambiguous-switch,-1,-30,right,right,0.339
MON1991WRNO,2019-10-21-14-09-12,9,32,0.6180650034502511,left,both,ambiguous-switch,97,-30,right,right,0.324
MON1991WRNO,2019-10-21-14-09-12,9,33,0.5727980003870026,right,probe,ambiguous-switch,-1,40,right,right,0.501
MON1991WRNO,2019-10-21-14-09-12,9,34,0.5727566641951383,right,both,ambiguous-switch,92,40,right,right,0.321
MON1991WRNO,2019-10-21-14-09-12,9,35,0.6036417715518209,right,probe,biased-switch,-1,20,right,right,0.251
MON1991WRNO,2019-10-21-14-09-12,9,36,0.5657334117814412,right,both,biased-switch,104,20,right,right,0.329
MON1991WRNO,2019-10-21-14-09-12,9,37,0.5403758803773678,left,probe,ambiguous-switch,-1,-10,right,right,0.327
MON1991WRNO,2019-10-21-14-09-12,9,38,0.6567151062735906,left,both,ambiguous-switch,104,-10,right,right,0.235
MON1991WRNO,2019-10-21-14-09-12,9,39,0.6615978936040531,left,probe,biased-switch,-1,-5,right,right,0.423
MON1991WRNO,2019-10-21-14-09-12,9,40,0.6298624526005598,left,both,biased-switch,106,-5,right,left,0.506
MON1991WRNO,2019-10-21-14-09-12,9,41,0.5327236458113692,right,probe,ambiguous-stable,-1,30,right,right,0.396
MON1991WRNO,2019-10-21-14-09-12,9,42,0.526762518941545,right,both,ambiguous-stable,100,30,left,right,0.251
MON1991WRNO,2019-10-21-14-09-12,9,43,0.6059271628263464,left,probe,ambiguous-switch,-1,0,right,right,0.392
MON1991WRNO,2019-10-21-14-09-12,9,44,0.6468171820869855,left,both,ambiguous-switch,97,0,right,right,0.212
MON1991WRNO,2019-10-21-14-09-12,9,45,0.5873092002909908,right,probe,biased-switch,-1,5,right,right,0.26
MON1991WRNO,2019-10-21-14-09-12,9,46,0.5762424012865776,right,both,biased-switch,93,5,right,right,3.676
MON1991WRNO,2019-10-21-14-09-12,9,47,0.556762165570744,right,probe,biased-switch,-1,-10,right,right,0.281
MON1991WRNO,2019-10-21-14-09-12,9,48,0.5291535089783617,right,both,biased-switch,99,-10,right,right,0.184
MON1991WRNO,2019-10-21-14-09-12,9,49,0.6733632486907185,right,probe,ambiguous-stable,-1,20,right,right,0.236
MON1991WRNO,2019-10-21-14-09-12,9,50,0.6651290398484311,right,both,ambiguous-stable,108,20,left,right,0.205
MON1991WRNO,2019-10-21-14-09-12,9,51,0.699585127487045,left,probe,ambiguous-stable,-1,0,left,left,0.029
MON1991WRNO,2019-10-21-14-09-12,9,52,0.6461692036450655,left,both,ambiguous-stable,99,0,right,left,0.36
MON1991WRNO,2019-10-21-14-09-12,9,53,0.5938533618311321,right,probe,ambiguous-stable,-1,-10,right,right,0.249
MON1991WRNO,2019-10-21-14-09-12,9,54,0.5617224627877654,right,both,ambiguous-stable,101,-10,left,right,1.879
MON1991WRNO,2019-10-21-14-09-12,9,55,0.5813004578224517,left,probe,ambiguous-switch,-1,-5,right,right,0.302
MON1991WRNO,2019-10-21-14-09-12,9,56,0.6766523608314672,left,both,ambiguous-switch,98,-5,right,right,0.387
MON1991WRNO,2019-10-21-14-09-12,9,57,0.5648667357751714,left,probe,biased-switch,-1,-20,right,right,0.388
MON1991WRNO,2019-10-21-14-09-12,9,58,0.595286818974271,left,both,biased-switch,106,-20,right,right,0.302
MON1991WRNO,2019-10-21-14-09-12,9,59,0.6888729281160717,right,probe,ambiguous-stable,-1,-20,right,right,0.239
MON1991WRNO,2019-10-21-14-09-12,9,60,0.5816872640999585,right,both,ambiguous-stable,97,-20,left,right,0.076
MON1991WRNO,2019-10-21-14-09-12,10,1,0.613952977262505,left,probe,biased-switch,-1,40,right,right,0.34
MON1991WRNO,2019-10-21-14-09-12,10,2,0.5615343932736347,left,both,biased-switch,91,40,right,right,0.375
MON1991WRNO,2019-10-21-14-09-12,10,3,0.6789171353268654,right,probe,ambiguous-switch,-1,30,right,right,0.338
MON1991WRNO,2019-10-21-14-09-12,10,4,0.6620244555355249,right,both,ambiguous-switch,102,30,right,right,0.284
MON1991WRNO,2019-10-21-14-09-12,10,5,0.5532644858713243,left,probe,biased-switch,-1,0,right,right,0.308
MON1991WRNO,2019-10-21-14-09-12,10,6,0.574038038963077,left,both,biased-switch,106,0,right,right,0.254
MON1991WRNO,2019-10-21-14-09-12,10,7,0.6373845400806806,left,probe,ambiguous-stable,-1,40,right,right,0.366
MON1991WRNO,2019-10-21-14-09-12,10,8,0.6801411207263002,left,both,ambiguous-stable,102,40,left,right,0.321
MON1991WRNO,2019-10-21-14-09-12,10,9,0.5897538344095911,right,probe,biased-switch,-1,-20,right,right,0.295
MON1991WRNO,2019-10-21-14-09-12,10,10,0.5913735748335581,right,both,biased-switch,95,-20,right,right,0.252
MON1991WRNO,2019-10-21-14-09-12,10,11,0.6101796062940794,left,probe,ambiguous-switch,-1,10,right,right,0.362
MON1991WRNO,2019-10-21-14-09-12,10,12,0.620668262022805,left,both,ambiguous-switch,110,10,right,right,0.302
MON1991WRNO,2019-10-21-14-09-12,10,13,0.6175152565010713,right,probe,biased-switch,-1,20,right,right,0.337
MON1991WRNO,2019-10-21-14-09-12,10,14,0.665229237578366,right,both,biased-switch,92,20,right,right,0.29
MON1991WRNO,2019-10-21-14-09-12,10,15,0.5808186756063791,right,probe,ambiguous-switch,-1,-5,right,right,0.375
MON1991WRNO,2019-10-21-14-09-12,10,16,0.6451241554298353,right,both,ambiguous-switch,93,-5,right,right,0.225
MON1991WRNO,2019-10-21-14-09-12,10,17,0.529055943733708,left,probe,ambiguous-stable,-1,-5,right,right,0.288
MON1991WRNO,2019-10-21-14-09-12,10,18,0.5245979992329523,left,both,ambiguous-stable,103,-5,left,right,0.281
MON1991WRNO,2019-10-21-14-09-12,10,19,0.5326693902440274,right,probe,ambiguous-stable,-1,0,right,right,0.272
MON1991WRNO,2019-10-21-14-09-12,10,20,0.5965538535070656,right,both,ambiguous-stable,91,0,left,right,0.303
MON1991WRNO,2019-10-21-14-09-12,10,21,0.5447839701605667,right,probe,biased-switch,-1,5,right,right,0.238
MON1991WRNO,2019-10-21-14-09-12,10,22,0.5038320837051518,right,both,biased-switch,106,5,right,left,0.345
MON1991WRNO,2019-10-21-14-09-12,10,23,0.6536787795717354,right,probe,ambiguous-stable,-1,20,left,left,0.31
MON1991WRNO,2019-10-21-14-09-12,10,24,0.6578144862871945,right,both,ambiguous-stable,107,20,right,left,0.364
MON1991WRNO,2019-10-21-14-09-12,10,25,0.6981544581550405,right,probe,ambiguous-stable,-1,30,left,left,0.351
MON1991WRNO,2019-10-21-14-09-12,10,26,0.6665205208179007,right,both,ambiguous-stable,102,30,right,left,0.305
MON1991WRNO,2019-10-21-14-09-12,10,27,0.5709980503710587,left,probe,ambiguous-switch,-1,-10,right,right,0.361
MON1991WRNO,2019-10-21-14-09-12,10,28,0.5773539235729251,left,both,ambiguous-switch,102,-10,right,right,0.363
MON1991WRNO,2019-10-21-14-09-12,10,29,0.5461183683746403,right,probe,ambiguous-stable,-1,-10,right,right,0.237
MON1991WRNO,2019-10-21-14-09-12,10,30,0.5922992828092976,right,both,ambiguous-stable,106,-10,left,right,0.232
MON1991WRNO,2019-10-21-14-09-12,10,31,0.6982412626904122,right,probe,ambiguous-stable,-1,-20,right,right,0.348
MON1991WRNO,2019-10-21-14-09-12,10,32,0.6122317762296432,right,both,ambiguous-stable,108,-20,left,right,0.296
MON1991WRNO,2019-10-21-14-09-12,10,33,0.5232439269506787,left,probe,ambiguous-switch,-1,-30,right,right,0.403
MON1991WRNO,2019-10-21-14-09-12,10,34,0.6420233238804203,left,both,ambiguous-switch,91,-30,right,right,0.08
MON1991WRNO,2019-10-21-14-09-12,10,35,0.6134972474191912,right,probe,biased-switch,-1,-30,right,right,0.277
MON1991WRNO,2019-10-21-14-09-12,10,36,0.6050983766408319,right,both,biased-switch,97,-30,right,right,1.684
MON1991WRNO,2019-10-21-14-09-12,10,37,0.6536752985822857,left,probe,ambiguous-switch,-1,-20,right,right,0.525
MON1991WRNO,2019-10-21-14-09-12,10,38,0.642072927094713,left,both,ambiguous-switch,105,-20,right,right,0.251
MON1991WRNO,2019-10-21-14-09-12,10,39,0.6114714001901452,right,probe,biased-switch,-1,10,right,right,0.11
MON1991WRNO,2019-10-21-14-09-12,10,40,0.5568073172605429,right,both,biased-switch,96,10,right,right,0.28
MON1991WRNO,2019-10-21-14-09-12,10,41,0.6528543458535916,left,probe,biased-switch,-1,-5,right,right,0.328
MON1991WRNO,2019-10-21-14-09-12,10,42,0.6682329244940831,left,both,biased-switch,98,-5,right,right,0.277
MON1991WRNO,2019-10-21-14-09-12,10,43,0.670708326809892,left,probe,ambiguous-switch,-1,5,right,right,0.425
MON1991WRNO,2019-10-21-14-09-12,10,44,0.6598692079659745,left,both,ambiguous-switch,98,5,right,left,0.2
MON1991WRNO,2019-10-21-14-09-12,10,45,0.6771468556967825,right,probe,ambiguous-stable,-1,5,right,right,0.208
MON1991WRNO,2019-10-21-14-09-12,10,46,0.6016351549932089,right,both,ambiguous-stable,105,5,left,right,2.855
MON1991WRNO,2019-10-21-14-09-12,10,47,0.5096237957667028,left,probe,ambiguous-switch,-1,20,left,left,0.452
MON1991WRNO,2019-10-21-14-09-12,10,48,0.5537652439283405,left,both,ambiguous-switch,104,20,left,left,0.254
MON1991WRNO,2019-10-21-14-09-12,10,49,0.6525409644710894,left,probe,biased-switch,-1,-10,right,right,0.275
MON1991WRNO,2019-10-21-14-09-12,10,50,0.6682911876811455,left,both,biased-switch,107,-10,right,right,0.174
MON1991WRNO,2019-10-21-14-09-12,10,51,0.6698968799992837,right,probe,ambiguous-switch,-1,40,right,right,0.326
MON1991WRNO,2019-10-21-14-09-12,10,52,0.518528475431649,right,both,ambiguous-switch,109,40,right,right,0.237
MON1991WRNO,2019-10-21-14-09-12,10,53,0.577058746687891,right,probe,ambiguous-stable,-1,10,right,right,0.398
MON1991WRNO,2019-10-21-14-09-12,10,54,0.6617727289730718,right,both,ambiguous-stable,104,10,left,right,0.046
MON1991WRNO,2019-10-21-14-09-12,10,55,0.6842302189080461,right,probe,ambiguous-switch,-1,0,right,right,0.3
MON1991WRNO,2019-10-21-14-09-12,10,56,0.5987843464652017,right,both,ambiguous-switch,103,0,right,left,0.165
MON1991WRNO,2019-10-21-14-09-12,10,57,0.6177249430966033,right,probe,biased-switch,-1,30,left,left,0.273
MON1991WRNO,2019-10-21-14-09-12,10,58,0.6178253989024034,right,both,biased-switch,97,30,left,right,0.332
MON1991WRNO,2019-10-21-14-09-12,10,59,0.6409050281958312,right,probe,ambiguous-stable,-1,-30,right,right,0.43
MON1991WRNO,2019-10-21-14-09-12,10,60,0.6280743481942583,right,both,ambiguous-stable,106,-30,left,right,0.364
