Participant,Session,Block,Trial,OnsetDelay,ProbeLocation,WhatIsReported,Condition,TriggerTime,ProbeSOA,PrimeDirection,Response,RT
VTM1984WRNO,2019-10-08-14-27-35,1,1,0.6178128157392967,right,probe,ambiguous-stable,-1,20,left,left,0.665
VTM1984WRNO,2019-10-08-14-27-35,1,2,0.5499282014826758,right,both,ambiguous-stable,92,20,right,left,0.778
VTM1984WRNO,2019-10-08-14-27-35,1,3,0.6739300618692895,right,probe,ambiguous-stable,-1,30,left,left,0.616
VTM1984WRNO,2019-10-08-14-27-35,1,4,0.5399014212290119,right,both,ambiguous-stable,108,30,right,left,0.364
VTM1984WRNO,2019-10-08-14-27-35,1,5,0.6397424154185467,left,probe,ambiguous-stable,-1,-10,right,right,0.559
VTM1984WRNO,2019-10-08-14-27-35,1,6,0.5702024936446006,left,both,ambiguous-stable,95,-10,left,right,0.406
VTM1984WRNO,2019-10-08-14-27-35,1,7,0.5189394463335893,left,probe,ambiguous-stable,-1,40,right,right,0.437
VTM1984WRNO,2019-10-08-14-27-35,1,8,0.5959417391810145,left,both,ambiguous-stable,97,40,left,right,0.358
VTM1984WRNO,2019-10-08-14-27-35,1,9,0.6800105886459371,right,probe,ambiguous-switch,-1,5,left,left,0.395
VTM1984WRNO,2019-10-08-14-27-35,1,10,0.5288286203439457,right,both,ambiguous-switch,100,5,left,right,0.86
VTM1984WRNO,2019-10-08-14-27-35,1,11,0.5877194500653092,left,probe,biased-switch,-1,0,right,right,0.417
VTM1984WRNO,2019-10-08-14-27-35,1,12,0.5929922276054465,left,both,biased-switch,110,0,right,right,0.211
VTM1984WRNO,2019-10-08-14-27-35,1,13,0.6729964048618652,right,probe,ambiguous-switch,-1,10,left,left,0.801
VTM1984WRNO,2019-10-08-14-27-35,1,14,0.5258842887302393,right,both,ambiguous-switch,100,10,left,left,0.28
VTM1984WRNO,2019-10-08-14-27-35,1,15,0.6055955826385513,right,probe,biased-switch,-1,-10,left,left,0.233
VTM1984WRNO,2019-10-08-14-27-35,1,16,0.5841037771362992,right,both,biased-switch,91,-10,left,right,1.378
VTM1984WRNO,2019-10-08-14-27-35,1,17,0.6714288788024174,left,probe,ambiguous-switch,-1,-20,right,right,1.098
VTM1984WRNO,2019-10-08-14-27-35,1,18,0.6018969799087278,left,both,ambiguous-switch,96,-20,right,right,0.447
VTM1984WRNO,2019-10-08-14-27-35,1,19,0.5948225958952116,right,probe,biased-switch,-1,10,left,left,1.593
VTM1984WRNO,2019-10-08-14-27-35,1,20,0.608493636985394,right,both,biased-switch,102,10,left,right,0.263
VTM1984WRNO,2019-10-08-14-27-35,1,21,0.6893548563393319,left,probe,ambiguous-switch,-1,40,right,right,0.31
VTM1984WRNO,2019-10-08-14-27-35,1,22,0.6368402464044538,left,both,ambiguous-switch,96,40,right,right,0.113
VTM1984WRNO,2019-10-08-14-27-35,1,23,0.6674279417661643,right,probe,ambiguous-switch,-1,-5,left,left,0.346
VTM1984WRNO,2019-10-08-14-27-35,1,24,0.6908691688203472,right,both,ambiguous-switch,92,-5,left,right,0.181
VTM1984WRNO,2019-10-08-14-27-35,1,25,0.6976231599284946,left,probe,biased-switch,-1,-30,right,right,0.088
VTM1984WRNO,2019-10-08-14-27-35,1,26,0.6980472435037217,left,both,biased-switch,99,-30,right,right,0.171
VTM1984WRNO,2019-10-08-14-27-35,1,27,0.534262549516404,right,probe,biased-switch,-1,40,left,left,0.184
VTM1984WRNO,2019-10-08-14-27-35,1,28,0.6701843977966593,right,both,biased-switch,105,40,left,left,0.004
VTM1984WRNO,2019-10-08-14-27-35,1,29,0.6097812953855162,left,probe,ambiguous-stable,-1,-5,right,right,0.136
VTM1984WRNO,2019-10-08-14-27-35,1,30,0.5678798833636718,left,both,ambiguous-stable,108,-5,left,right,5.221
VTM1984WRNO,2019-10-08-14-27-35,1,31,0.5830031132529456,right,probe,ambiguous-switch,-1,30,left,left,0.461
VTM1984WRNO,2019-10-08-14-27-35,1,32,0.5448494271405825,right,both,ambiguous-switch,106,30,left,left,0.81
VTM1984WRNO,2019-10-08-14-27-35,1,33,0.6622644654338002,left,probe,ambiguous-switch,-1,-10,right,right,0.524
VTM1984WRNO,2019-10-08-14-27-35,1,34,0.5707594126085486,left,both,ambiguous-switch,92,-10,right,right,0.299
VTM1984WRNO,2019-10-08-14-27-35,1,35,0.5914091397043325,left,probe,ambiguous-stable,-1,5,right,right,0.405
VTM1984WRNO,2019-10-08-14-27-35,1,36,0.674158840726285,left,both,ambiguous-stable,93,5,left,right,0.421
VTM1984WRNO,2019-10-08-14-27-35,1,37,0.6296194343279715,left,probe,biased-switch,-1,30,right,right,0.559
VTM1984WRNO,2019-10-08-14-27-35,1,38,0.5847214028212027,left,both,biased-switch,90,30,right,right,0.348
VTM1984WRNO,2019-10-08-14-27-35,1,39,0.6691151871990277,left,probe,biased-switch,-1,20,right,right,0.428
VTM1984WRNO,2019-10-08-14-27-35,1,40,0.6424578879536857,left,both,biased-switch,103,20,right,left,0.429
VTM1984WRNO,2019-10-08-14-27-35,1,41,0.6811832062900595,right,probe,biased-switch,-1,5,left,left,0.436
VTM1984WRNO,2019-10-08-14-27-35,1,42,0.5327821892487548,right,both,biased-switch,107,5,left,right,0.299
VTM1984WRNO,2019-10-08-14-27-35,1,43,0.5751308777637962,right,probe,ambiguous-stable,-1,0,left,left,0.343
VTM1984WRNO,2019-10-08-14-27-35,1,44,0.5586804530597673,right,both,ambiguous-stable,103,0,right,left,0.238
VTM1984WRNO,2019-10-08-14-27-35,1,45,0.6549806041023674,left,probe,biased-switch,-1,-20,right,right,0.282
VTM1984WRNO,2019-10-08-14-27-35,1,46,0.5519777334856442,left,both,biased-switch,110,-20,right,right,0.238
VTM1984WRNO,2019-10-08-14-27-35,1,47,0.6311575764019248,right,probe,ambiguous-switch,-1,-30,left,left,0.255
VTM1984WRNO,2019-10-08-14-27-35,1,48,0.5861696779016939,right,both,ambiguous-switch,103,-30,left,left,0.194
VTM1984WRNO,2019-10-08-14-27-35,1,49,0.6468741964120607,right,probe,ambiguous-stable,-1,10,left,left,0.195
VTM1984WRNO,2019-10-08-14-27-35,1,50,0.690153575647456,right,both,ambiguous-stable,97,10,right,left,3.732
VTM1984WRNO,2019-10-08-14-27-35,1,51,0.6802297216218994,left,probe,ambiguous-switch,-1,20,right,right,0.518
VTM1984WRNO,2019-10-08-14-27-35,1,52,0.603244370125514,left,both,ambiguous-switch,102,20,right,left,0.48
VTM1984WRNO,2019-10-08-14-27-35,1,53,0.5620400978193775,right,probe,biased-switch,-1,-5,left,left,0.479
VTM1984WRNO,2019-10-08-14-27-35,1,54,0.6296091781797037,right,both,biased-switch,101,-5,left,left,0.386
VTM1984WRNO,2019-10-08-14-27-35,1,55,0.5566202228096275,right,probe,ambiguous-switch,-1,0,left,left,0.903
VTM1984WRNO,2019-10-08-14-27-35,1,56,0.5279163854163538,right,both,ambiguous-switch,110,0,left,right,0.56
VTM1984WRNO,2019-10-08-14-27-35,1,57,0.5376879310697243,left,probe,ambiguous-stable,-1,-20,left,left,0.399
VTM1984WRNO,2019-10-08-14-27-35,1,58,0.5447652776827221,left,both,ambiguous-stable,103,-20,right,right,0.456
VTM1984WRNO,2019-10-08-14-27-35,1,59,0.6999410067360528,right,probe,ambiguous-stable,-1,-30,left,left,0.491
VTM1984WRNO,2019-10-08-14-27-35,1,60,0.6147060575136206,right,both,ambiguous-stable,106,-30,right,right,0.448
VTM1984WRNO,2019-10-08-14-27-35,2,1,0.6941230293021441,right,probe,ambiguous-stable,-1,0,left,left,0.447
VTM1984WRNO,2019-10-08-14-27-35,2,2,0.5340261100471326,right,both,ambiguous-stable,93,0,right,left,0.292
VTM1984WRNO,2019-10-08-14-27-35,2,3,0.590576804058092,left,probe,ambiguous-switch,-1,10,right,right,0.277
VTM1984WRNO,2019-10-08-14-27-35,2,4,0.6427850117858738,left,both,ambiguous-switch,103,10,right,left,2.985
VTM1984WRNO,2019-10-08-14-27-35,2,5,0.5426295312075302,left,probe,ambiguous-switch,-1,40,left,left,0.496
VTM1984WRNO,2019-10-08-14-27-35,2,6,0.549251383311052,left,both,ambiguous-switch,97,40,left,right,0.018
VTM1984WRNO,2019-10-08-14-27-35,2,7,0.6375738067229291,right,probe,ambiguous-stable,-1,20,left,left,0.141
VTM1984WRNO,2019-10-08-14-27-35,2,8,0.6815059508620885,right,both,ambiguous-stable,91,20,right,left,0.253
VTM1984WRNO,2019-10-08-14-27-35,2,9,0.5367704926924873,left,probe,ambiguous-stable,-1,30,right,right,0.409
VTM1984WRNO,2019-10-08-14-27-35,2,10,0.5285844499526737,left,both,ambiguous-stable,104,30,left,right,0.162
VTM1984WRNO,2019-10-08-14-27-35,2,11,0.517671983356833,right,probe,biased-switch,-1,-5,left,left,0.231
VTM1984WRNO,2019-10-08-14-27-35,2,12,0.6613076376954861,right,both,biased-switch,92,-5,left,right,0.021
VTM1984WRNO,2019-10-08-14-27-35,2,13,0.6894320137371306,left,probe,ambiguous-stable,-1,40,right,right,0.513
VTM1984WRNO,2019-10-08-14-27-35,2,14,0.5434616227833827,left,both,ambiguous-stable,93,40,left,right,0.392
VTM1984WRNO,2019-10-08-14-27-35,2,15,0.6297291234770107,left,probe,ambiguous-switch,-1,20,right,right,0.359
VTM1984WRNO,2019-10-08-14-27-35,2,16,0.6329190345025378,left,both,ambiguous-switch,104,20,right,left,0.08
VTM1984WRNO,2019-10-08-14-27-35,2,17,0.5641143020664952,right,probe,ambiguous-switch,-1,-30,left,left,0.498
VTM1984WRNO,2019-10-08-14-27-35,2,18,0.6817996078750322,right,both,ambiguous-switch,97,-30,left,left,0.705
VTM1984WRNO,2019-10-08-14-27-35,2,19,0.6228646404612822,right,probe,ambiguous-stable,-1,5,left,left,0.569
VTM1984WRNO,2019-10-08-14-27-35,2,20,0.6057144298776836,right,both,ambiguous-stable,107,5,right,left,0.213
VTM1984WRNO,2019-10-08-14-27-35,2,21,0.5462492748035189,left,probe,ambiguous-stable,-1,10,right,right,0.45
VTM1984WRNO,2019-10-08-14-27-35,2,22,0.5842622578661415,left,both,ambiguous-stable,107,10,left,right,0.455
VTM1984WRNO,2019-10-08-14-27-35,2,23,0.6558240187990367,right,probe,biased-switch,-1,10,left,left,0.371
VTM1984WRNO,2019-10-08-14-27-35,2,24,0.5674399659618625,right,both,biased-switch,106,10,left,left,0.287
VTM1984WRNO,2019-10-08-14-27-35,2,25,0.6546509543446356,left,probe,ambiguous-switch,-1,-10,right,right,0.45
VTM1984WRNO,2019-10-08-14-27-35,2,26,0.563244154422933,left,both,ambiguous-switch,98,-10,right,right,0.328
VTM1984WRNO,2019-10-08-14-27-35,2,27,0.541389367790726,left,probe,biased-switch,-1,20,right,right,0.581
VTM1984WRNO,2019-10-08-14-27-35,2,28,0.6528811480904178,left,both,biased-switch,98,20,right,left,0.398
VTM1984WRNO,2019-10-08-14-27-35,2,29,0.653773355723515,right,probe,biased-switch,-1,-20,left,left,0.592
VTM1984WRNO,2019-10-08-14-27-35,2,30,0.5911123503683282,right,both,biased-switch,103,-20,left,left,0.452
VTM1984WRNO,2019-10-08-14-27-35,2,31,0.5597135175611052,right,probe,ambiguous-switch,-1,30,left,left,0.578
VTM1984WRNO,2019-10-08-14-27-35,2,32,0.6791907791398767,right,both,ambiguous-switch,92,30,left,right,0.306
VTM1984WRNO,2019-10-08-14-27-35,2,33,0.5307646286898489,left,probe,biased-switch,-1,-10,right,right,0.54
VTM1984WRNO,2019-10-08-14-27-35,2,34,0.649861302054136,left,both,biased-switch,109,-10,right,right,0.451
VTM1984WRNO,2019-10-08-14-27-35,2,35,0.5998230525402624,left,probe,ambiguous-stable,-1,-30,right,right,0.642
VTM1984WRNO,2019-10-08-14-27-35,2,36,0.6162187721165125,left,both,ambiguous-stable,95,-30,left,right,0.514
VTM1984WRNO,2019-10-08-14-27-35,2,37,0.5582191629837621,right,probe,ambiguous-switch,-1,-20,left,left,0.404
VTM1984WRNO,2019-10-08-14-27-35,2,38,0.5296878744462957,right,both,ambiguous-switch,101,-20,left,left,0.34
VTM1984WRNO,2019-10-08-14-27-35,2,39,0.6908826444843199,right,probe,biased-switch,-1,-30,left,left,0.568
VTM1984WRNO,2019-10-08-14-27-35,2,40,0.6942817752496522,right,both,biased-switch,109,-30,left,left,0.451
VTM1984WRNO,2019-10-08-14-27-35,2,41,0.5712449040878648,right,probe,ambiguous-stable,-1,-5,left,left,0.606
VTM1984WRNO,2019-10-08-14-27-35,2,42,0.6844203292159872,right,both,ambiguous-stable,95,-5,right,left,0.375
VTM1984WRNO,2019-10-08-14-27-35,2,43,0.607700968590945,right,probe,ambiguous-switch,-1,0,left,left,0.345
VTM1984WRNO,2019-10-08-14-27-35,2,44,0.5006839214647075,right,both,ambiguous-switch,92,0,left,left,0.31
VTM1984WRNO,2019-10-08-14-27-35,2,45,0.6136816012400654,right,probe,ambiguous-switch,-1,5,left,left,0.48
VTM1984WRNO,2019-10-08-14-27-35,2,46,0.5716403152985097,right,both,ambiguous-switch,94,5,left,left,0.329
VTM1984WRNO,2019-10-08-14-27-35,2,47,0.5142021611064609,right,probe,biased-switch,-1,40,left,left,0.287
VTM1984WRNO,2019-10-08-14-27-35,2,48,0.6669358295896729,right,both,biased-switch,92,40,left,left,2.93
VTM1984WRNO,2019-10-08-14-27-35,2,49,0.6832946240428256,right,probe,ambiguous-stable,-1,-10,left,left,0.368
VTM1984WRNO,2019-10-08-14-27-35,2,50,0.6788232660038962,right,both,ambiguous-stable,106,-10,right,left,0.01
VTM1984WRNO,2019-10-08-14-27-35,2,51,0.5447527946011717,left,probe,biased-switch,-1,5,right,right,0.078
VTM1984WRNO,2019-10-08-14-27-35,2,52,0.5273804024462778,left,both,biased-switch,93,5,right,left,1.734
VTM1984WRNO,2019-10-08-14-27-35,2,53,0.5746477986626765,left,probe,ambiguous-switch,-1,-5,left,left,0.616
VTM1984WRNO,2019-10-08-14-27-35,2,54,0.5985496169754678,left,both,ambiguous-switch,94,-5,left,left,0.393
VTM1984WRNO,2019-10-08-14-27-35,2,55,0.6711010384543005,right,probe,biased-switch,-1,30,left,left,0.397
VTM1984WRNO,2019-10-08-14-27-35,2,56,0.501244853106235,right,both,biased-switch,98,30,left,left,0.469
VTM1984WRNO,2019-10-08-14-27-35,2,57,0.6143307561181063,right,probe,biased-switch,-1,0,left,left,0.458
VTM1984WRNO,2019-10-08-14-27-35,2,58,0.5161868127111314,right,both,biased-switch,105,0,left,left,0.439
VTM1984WRNO,2019-10-08-14-27-35,2,59,0.5549503872568172,right,probe,ambiguous-stable,-1,-20,left,left,0.671
VTM1984WRNO,2019-10-08-14-27-35,2,60,0.6592896296977,right,both,ambiguous-stable,102,-20,right,left,0.45
VTM1984WRNO,2019-10-08-14-27-35,3,1,0.6851473190008551,right,probe,ambiguous-switch,-1,-20,left,left,0.537
VTM1984WRNO,2019-10-08-14-27-35,3,2,0.549686086849046,right,both,ambiguous-switch,94,-20,left,left,0.29
VTM1984WRNO,2019-10-08-14-27-35,3,3,0.501941507098352,right,probe,biased-switch,-1,20,left,left,0.401
VTM1984WRNO,2019-10-08-14-27-35,3,4,0.5113110177824137,right,both,biased-switch,109,20,left,left,0.296
VTM1984WRNO,2019-10-08-14-27-35,3,5,0.5514074105586115,right,probe,ambiguous-stable,-1,-30,left,left,0.372
VTM1984WRNO,2019-10-08-14-27-35,3,6,0.5694788893288681,right,both,ambiguous-stable,97,-30,right,left,0.372
VTM1984WRNO,2019-10-08-14-27-35,3,7,0.5969873958376095,left,probe,ambiguous-switch,-1,20,right,right,0.386
VTM1984WRNO,2019-10-08-14-27-35,3,8,0.5174887868014131,left,both,ambiguous-switch,104,20,right,left,0.377
VTM1984WRNO,2019-10-08-14-27-35,3,9,0.6253264485218192,left,probe,ambiguous-switch,-1,0,left,left,0.65
VTM1984WRNO,2019-10-08-14-27-35,3,10,0.5254295241868164,left,both,ambiguous-switch,91,0,left,left,0.615
VTM1984WRNO,2019-10-08-14-27-35,3,11,0.6308060676673004,left,probe,biased-switch,-1,-5,left,left,0.857
VTM1984WRNO,2019-10-08-14-27-35,3,12,0.6154758847276603,left,both,biased-switch,91,-5,left,left,0.687
VTM1984WRNO,2019-10-08-14-27-35,3,13,0.5351701322411018,left,probe,ambiguous-stable,-1,30,right,right,1.046
VTM1984WRNO,2019-10-08-14-27-35,3,14,0.5770647511415508,left,both,ambiguous-stable,100,30,left,left,0.405
VTM1984WRNO,2019-10-08-14-27-35,3,15,0.6385538122504006,right,probe,ambiguous-stable,-1,-20,left,left,0.469
VTM1984WRNO,2019-10-08-14-27-35,3,16,0.5835661822009787,right,both,ambiguous-stable,104,-20,right,left,0.262
VTM1984WRNO,2019-10-08-14-27-35,3,17,0.5684420872080864,right,probe,ambiguous-stable,-1,-10,left,left,0.428
VTM1984WRNO,2019-10-08-14-27-35,3,18,0.6557557645921773,right,both,ambiguous-stable,108,-10,right,left,0.334
VTM1984WRNO,2019-10-08-14-27-35,3,19,0.5331762179790346,right,probe,ambiguous-switch,-1,5,left,left,0.564
VTM1984WRNO,2019-10-08-14-27-35,3,20,0.6363599211981258,right,both,ambiguous-switch,101,5,left,left,0.337
VTM1984WRNO,2019-10-08-14-27-35,3,21,0.618264560510359,left,probe,ambiguous-switch,-1,10,right,right,0.377
VTM1984WRNO,2019-10-08-14-27-35,3,22,0.5963965122101071,left,both,ambiguous-switch,104,10,right,right,0.364
VTM1984WRNO,2019-10-08-14-27-35,3,23,0.5307763204519185,right,probe,biased-switch,-1,5,left,left,0.416
VTM1984WRNO,2019-10-08-14-27-35,3,24,0.6189655788619612,right,both,biased-switch,105,5,left,right,0.302
VTM1984WRNO,2019-10-08-14-27-35,3,25,0.5649381419297144,left,probe,ambiguous-stable,-1,20,left,left,0.397
VTM1984WRNO,2019-10-08-14-27-35,3,26,0.5499423414768623,left,both,ambiguous-stable,100,20,right,left,0.37
VTM1984WRNO,2019-10-08-14-27-35,3,27,0.5893270476930246,right,probe,biased-switch,-1,-10,left,left,0.67
VTM1984WRNO,2019-10-08-14-27-35,3,28,0.6928490171656991,right,both,biased-switch,95,-10,left,left,0.429
VTM1984WRNO,2019-10-08-14-27-35,3,29,0.5758989791863544,right,probe,ambiguous-stable,-1,40,left,left,0.445
VTM1984WRNO,2019-10-08-14-27-35,3,30,0.6693220902103928,right,both,ambiguous-stable,110,40,right,left,0.506
VTM1984WRNO,2019-10-08-14-27-35,3,31,0.5736016499482419,left,probe,ambiguous-switch,-1,-10,left,left,0.442
VTM1984WRNO,2019-10-08-14-27-35,3,32,0.5615147665515415,left,both,ambiguous-switch,100,-10,left,left,0.475
VTM1984WRNO,2019-10-08-14-27-35,3,33,0.63039148353762,right,probe,biased-switch,-1,10,left,left,0.469
VTM1984WRNO,2019-10-08-14-27-35,3,34,0.6529497875324394,right,both,biased-switch,109,10,left,right,0.351
VTM1984WRNO,2019-10-08-14-27-35,3,35,0.6036957945188076,left,probe,ambiguous-stable,-1,5,left,left,0.331
VTM1984WRNO,2019-10-08-14-27-35,3,36,0.6944081132393574,left,both,ambiguous-stable,108,5,right,left,0.501
VTM1984WRNO,2019-10-08-14-27-35,3,37,0.6771655089496432,right,probe,ambiguous-switch,-1,-5,left,left,0.344
VTM1984WRNO,2019-10-08-14-27-35,3,38,0.697107229101159,right,both,ambiguous-switch,104,-5,left,left,0.488
VTM1984WRNO,2019-10-08-14-27-35,3,39,0.6689153231151552,left,probe,biased-switch,-1,30,left,left,0.378
VTM1984WRNO,2019-10-08-14-27-35,3,40,0.6840709384647152,left,both,biased-switch,94,30,left,left,0.492
VTM1984WRNO,2019-10-08-14-27-35,3,41,0.57758139043198,right,probe,ambiguous-switch,-1,40,left,left,0.454
VTM1984WRNO,2019-10-08-14-27-35,3,42,0.5616929258040945,right,both,ambiguous-switch,98,40,left,left,0.333
VTM1984WRNO,2019-10-08-14-27-35,3,43,0.5109595748838931,left,probe,biased-switch,-1,-20,left,left,0.789
VTM1984WRNO,2019-10-08-14-27-35,3,44,0.6512509554084328,left,both,biased-switch,101,-20,left,left,0.463
VTM1984WRNO,2019-10-08-14-27-35,3,45,0.6612980479268145,right,probe,ambiguous-switch,-1,-30,left,left,0.382
VTM1984WRNO,2019-10-08-14-27-35,3,46,0.6133846020670687,right,both,ambiguous-switch,106,-30,left,left,0.478
VTM1984WRNO,2019-10-08-14-27-35,3,47,0.5108362217295888,right,probe,ambiguous-stable,-1,10,left,left,0.436
VTM1984WRNO,2019-10-08-14-27-35,3,48,0.6528864338617543,right,both,ambiguous-stable,90,10,right,left,12.101
VTM1984WRNO,2019-10-08-14-27-35,3,49,0.6175668506028029,left,probe,ambiguous-stable,-1,0,left,left,0.573
VTM1984WRNO,2019-10-08-14-27-35,3,50,0.6859102386101248,left,both,ambiguous-stable,110,0,right,left,0.636
VTM1984WRNO,2019-10-08-14-27-35,3,51,0.5991426493733835,right,probe,biased-switch,-1,0,left,left,3.5
VTM1984WRNO,2019-10-08-14-27-35,3,52,0.6074820287584762,right,both,biased-switch,102,0,left,right,0.245
VTM1984WRNO,2019-10-08-14-27-35,3,53,0.6568307248986995,left,probe,ambiguous-switch,-1,30,right,right,0.441
VTM1984WRNO,2019-10-08-14-27-35,3,54,0.5423620806672613,left,both,ambiguous-switch,107,30,right,left,0.315
VTM1984WRNO,2019-10-08-14-27-35,3,55,0.5306058488516614,left,probe,biased-switch,-1,-30,right,right,0.318
VTM1984WRNO,2019-10-08-14-27-35,3,56,0.6276117435644737,left,both,biased-switch,95,-30,right,right,0.403
VTM1984WRNO,2019-10-08-14-27-35,3,57,0.590871100245206,right,probe,biased-switch,-1,40,left,left,0.329
VTM1984WRNO,2019-10-08-14-27-35,3,58,0.5637139453149439,right,both,biased-switch,105,40,left,left,0.061
VTM1984WRNO,2019-10-08-14-27-35,3,59,0.6398334390487539,right,probe,ambiguous-stable,-1,-5,left,left,0.528
VTM1984WRNO,2019-10-08-14-27-35,3,60,0.5539067571891251,right,both,ambiguous-stable,108,-5,right,left,0.44
VTM1984WRNO,2019-10-08-14-27-35,4,1,0.6003421945520647,right,probe,ambiguous-stable,-1,30,left,left,0.523
VTM1984WRNO,2019-10-08-14-27-35,4,2,0.6603786590265749,right,both,ambiguous-stable,94,30,right,left,0.332
VTM1984WRNO,2019-10-08-14-27-35,4,3,0.5713229365919754,left,probe,ambiguous-stable,-1,20,right,right,0.435
VTM1984WRNO,2019-10-08-14-27-35,4,4,0.5764619158603699,left,both,ambiguous-stable,99,20,left,right,0.484
VTM1984WRNO,2019-10-08-14-27-35,4,5,0.5399731516854477,left,probe,ambiguous-switch,-1,0,right,right,0.413
VTM1984WRNO,2019-10-08-14-27-35,4,6,0.5292649814779186,left,both,ambiguous-switch,108,0,right,right,0.365
VTM1984WRNO,2019-10-08-14-27-35,4,7,0.5122213909848623,left,probe,ambiguous-switch,-1,-30,right,right,0.6
VTM1984WRNO,2019-10-08-14-27-35,4,8,0.577904390883398,left,both,ambiguous-switch,101,-30,right,right,0.448
VTM1984WRNO,2019-10-08-14-27-35,4,9,0.5248825647201177,left,probe,ambiguous-switch,-1,-20,right,right,0.391
VTM1984WRNO,2019-10-08-14-27-35,4,10,0.5944867910370157,left,both,ambiguous-switch,107,-20,right,right,0.388
VTM1984WRNO,2019-10-08-14-27-35,4,11,0.5453951976228472,left,probe,ambiguous-stable,-1,-5,right,right,0.54
VTM1984WRNO,2019-10-08-14-27-35,4,12,0.6450893288377377,left,both,ambiguous-stable,107,-5,left,right,0.309
VTM1984WRNO,2019-10-08-14-27-35,4,13,0.6557959955945772,left,probe,biased-switch,-1,-5,right,right,0.56
VTM1984WRNO,2019-10-08-14-27-35,4,14,0.6878270050698065,left,both,biased-switch,98,-5,right,right,0.401
VTM1984WRNO,2019-10-08-14-27-35,4,15,0.5574783733932711,right,probe,ambiguous-stable,-1,-30,left,left,0.5
VTM1984WRNO,2019-10-08-14-27-35,4,16,0.5957637230846718,right,both,ambiguous-stable,105,-30,right,left,0.533
VTM1984WRNO,2019-10-08-14-27-35,4,17,0.6071746519139792,left,probe,ambiguous-stable,-1,10,right,right,0.623
VTM1984WRNO,2019-10-08-14-27-35,4,18,0.6800467239665094,left,both,ambiguous-stable,103,10,left,right,0.327
VTM1984WRNO,2019-10-08-14-27-35,4,19,0.6811374243871985,right,probe,ambiguous-switch,-1,40,left,left,0.409
VTM1984WRNO,2019-10-08-14-27-35,4,20,0.566709660558417,right,both,ambiguous-switch,101,40,left,left,0.323
VTM1984WRNO,2019-10-08-14-27-35,4,21,0.6182571334407079,left,probe,ambiguous-stable,-1,5,right,right,0.323
VTM1984WRNO,2019-10-08-14-27-35,4,22,0.5354100656672965,left,both,ambiguous-stable,103,5,left,right,0.337
VTM1984WRNO,2019-10-08-14-27-35,4,23,0.5837607358051919,right,probe,biased-switch,-1,10,left,left,0.325
VTM1984WRNO,2019-10-08-14-27-35,4,24,0.6500907015457917,right,both,biased-switch,106,10,left,right,0.354
VTM1984WRNO,2019-10-08-14-27-35,4,25,0.5447299529197049,left,probe,biased-switch,-1,20,right,right,0.382
VTM1984WRNO,2019-10-08-14-27-35,4,26,0.5742979808561356,left,both,biased-switch,99,20,right,right,0.318
VTM1984WRNO,2019-10-08-14-27-35,4,27,0.6142687015214385,left,probe,ambiguous-stable,-1,40,right,right,0.39
VTM1984WRNO,2019-10-08-14-27-35,4,28,0.6923671923662633,left,both,ambiguous-stable,92,40,left,right,0.018
VTM1984WRNO,2019-10-08-14-27-35,4,29,0.5042934964062854,right,probe,ambiguous-switch,-1,5,left,left,0.313
VTM1984WRNO,2019-10-08-14-27-35,4,30,0.6704372364259941,right,both,ambiguous-switch,108,5,left,left,0.078
VTM1984WRNO,2019-10-08-14-27-35,4,31,0.5510823050328831,left,probe,biased-switch,-1,-30,right,right,0.293
VTM1984WRNO,2019-10-08-14-27-35,4,32,0.5966423559281,left,both,biased-switch,108,-30,right,right,0.301
VTM1984WRNO,2019-10-08-14-27-35,4,33,0.615112038402328,left,probe,biased-switch,-1,-20,right,right,0.301
VTM1984WRNO,2019-10-08-14-27-35,4,34,0.6967056532729066,left,both,biased-switch,98,-20,right,right,0.15
VTM1984WRNO,2019-10-08-14-27-35,4,35,0.5888791839676095,right,probe,ambiguous-stable,-1,0,left,left,0.366
VTM1984WRNO,2019-10-08-14-27-35,4,36,0.6204835384788904,right,both,ambiguous-stable,108,0,right,left,0.33
VTM1984WRNO,2019-10-08-14-27-35,4,37,0.6985047003546816,left,probe,ambiguous-stable,-1,-10,right,right,0.249
VTM1984WRNO,2019-10-08-14-27-35,4,38,0.6046240051231938,left,both,ambiguous-stable,108,-10,left,right,0.137
VTM1984WRNO,2019-10-08-14-27-35,4,39,0.5439759038375547,left,probe,ambiguous-switch,-1,20,right,right,0.378
VTM1984WRNO,2019-10-08-14-27-35,4,40,0.5636392710974888,left,both,ambiguous-switch,98,20,right,right,0.287
VTM1984WRNO,2019-10-08-14-27-35,4,41,0.5802473014303355,right,probe,ambiguous-switch,-1,30,left,left,0.423
VTM1984WRNO,2019-10-08-14-27-35,4,42,0.5482055420836266,right,both,ambiguous-switch,93,30,left,left,0.365
VTM1984WRNO,2019-10-08-14-27-35,4,43,0.5478698070951831,left,probe,ambiguous-switch,-1,-5,right,right,0.313
VTM1984WRNO,2019-10-08-14-27-35,4,44,0.6392651638976907,left,both,ambiguous-switch,95,-5,right,right,0.266
VTM1984WRNO,2019-10-08-14-27-35,4,45,0.6199832583278577,right,probe,ambiguous-switch,-1,-10,right,right,0.375
VTM1984WRNO,2019-10-08-14-27-35,4,46,0.5548487914738367,right,both,ambiguous-switch,92,-10,right,left,0.327
VTM1984WRNO,2019-10-08-14-27-35,4,47,0.6409830916844446,right,probe,biased-switch,-1,0,left,left,0.367
VTM1984WRNO,2019-10-08-14-27-35,4,48,0.6296319301899829,right,both,biased-switch,110,0,left,right,0.327
VTM1984WRNO,2019-10-08-14-27-35,4,49,0.5595693947137937,left,probe,biased-switch,-1,40,right,right,0.291
VTM1984WRNO,2019-10-08-14-27-35,4,50,0.6490190551353647,left,both,biased-switch,98,40,right,right,0.31
VTM1984WRNO,2019-10-08-14-27-35,4,51,0.5144744891894457,left,probe,biased-switch,-1,5,right,right,0.29
VTM1984WRNO,2019-10-08-14-27-35,4,52,0.5614786185522248,left,both,biased-switch,96,5,right,left,0.293
VTM1984WRNO,2019-10-08-14-27-35,4,53,0.6411667746129067,left,probe,biased-switch,-1,-10,left,left,0.328
VTM1984WRNO,2019-10-08-14-27-35,4,54,0.6412729037359445,left,both,biased-switch,104,-10,left,left,0.35
VTM1984WRNO,2019-10-08-14-27-35,4,55,0.6134587595779054,left,probe,ambiguous-switch,-1,10,left,left,0.406
VTM1984WRNO,2019-10-08-14-27-35,4,56,0.5878285553353738,left,both,ambiguous-switch,90,10,left,left,0.418
VTM1984WRNO,2019-10-08-14-27-35,4,57,0.6206019508983553,left,probe,biased-switch,-1,30,left,left,0.427
VTM1984WRNO,2019-10-08-14-27-35,4,58,0.5090842410300165,left,both,biased-switch,110,30,left,left,0.345
VTM1984WRNO,2019-10-08-14-27-35,4,59,0.6112645952982766,right,probe,ambiguous-stable,-1,-20,left,left,0.345
VTM1984WRNO,2019-10-08-14-27-35,4,60,0.6911114744466973,right,both,ambiguous-stable,96,-20,right,left,0.336
VTM1984WRNO,2019-10-08-14-27-35,5,1,0.5001397410088118,left,probe,ambiguous-stable,-1,10,left,left,0.407
VTM1984WRNO,2019-10-08-14-27-35,5,2,0.6112258881263694,left,both,ambiguous-stable,108,10,right,left,0.33
VTM1984WRNO,2019-10-08-14-27-35,5,3,0.6882913357883699,left,probe,ambiguous-stable,-1,0,left,left,0.339
VTM1984WRNO,2019-10-08-14-27-35,5,4,0.5693097949285383,left,both,ambiguous-stable,100,0,right,left,0.398
VTM1984WRNO,2019-10-08-14-27-35,5,5,0.5242710938595546,right,probe,biased-switch,-1,30,right,right,0.373
VTM1984WRNO,2019-10-08-14-27-35,5,6,0.6810123603576438,right,both,biased-switch,99,30,right,right,0.279
VTM1984WRNO,2019-10-08-14-27-35,5,7,0.5913493302210021,left,probe,ambiguous-switch,-1,0,right,right,0.413
VTM1984WRNO,2019-10-08-14-27-35,5,8,0.6518583844158613,left,both,ambiguous-switch,99,0,right,left,0.329
VTM1984WRNO,2019-10-08-14-27-35,5,9,0.5644858903832906,right,probe,ambiguous-stable,-1,20,left,left,0.345
VTM1984WRNO,2019-10-08-14-27-35,5,10,0.5671689718341242,right,both,ambiguous-stable,96,20,right,left,0.325
VTM1984WRNO,2019-10-08-14-27-35,5,11,0.6925674945654707,left,probe,ambiguous-stable,-1,-5,right,right,0.303
VTM1984WRNO,2019-10-08-14-27-35,5,12,0.5942213529333633,left,both,ambiguous-stable,109,-5,left,right,0.365
VTM1984WRNO,2019-10-08-14-27-35,5,13,0.6428662644477536,right,probe,biased-switch,-1,-10,left,left,0.331
VTM1984WRNO,2019-10-08-14-27-35,5,14,0.6300124467429862,right,both,biased-switch,99,-10,left,left,0.303
VTM1984WRNO,2019-10-08-14-27-35,5,15,0.5977605562871923,left,probe,ambiguous-stable,-1,-10,right,right,0.268
VTM1984WRNO,2019-10-08-14-27-35,5,16,0.6106549684724745,left,both,ambiguous-stable,107,-10,left,left,0.295
VTM1984WRNO,2019-10-08-14-27-35,5,17,0.5416342754524179,right,probe,biased-switch,-1,0,left,left,0.29
VTM1984WRNO,2019-10-08-14-27-35,5,18,0.5638310836093766,right,both,biased-switch,106,0,left,right,0.264
VTM1984WRNO,2019-10-08-14-27-35,5,19,0.529095069765763,right,probe,biased-switch,-1,-20,right,right,0.132
VTM1984WRNO,2019-10-08-14-27-35,5,20,0.5537770493529277,right,both,biased-switch,98,-20,right,right,3.282
VTM1984WRNO,2019-10-08-14-27-35,5,21,0.6644972981934429,left,probe,ambiguous-switch,-1,-5,right,right,0.579
VTM1984WRNO,2019-10-08-14-27-35,5,22,0.6265487321602264,left,both,ambiguous-switch,96,-5,right,right,0.367
VTM1984WRNO,2019-10-08-14-27-35,5,23,0.6115148369558308,left,probe,ambiguous-switch,-1,5,right,right,0.506
VTM1984WRNO,2019-10-08-14-27-35,5,24,0.6391771320288382,left,both,ambiguous-switch,93,5,right,right,0.279
VTM1984WRNO,2019-10-08-14-27-35,5,25,0.5775360512202925,left,probe,ambiguous-switch,-1,30,right,right,0.308
VTM1984WRNO,2019-10-08-14-27-35,5,26,0.5889197785355677,left,both,ambiguous-switch,98,30,right,right,0.295
VTM1984WRNO,2019-10-08-14-27-35,5,27,0.5144624647327829,right,probe,ambiguous-stable,-1,30,right,right,0.322
VTM1984WRNO,2019-10-08-14-27-35,5,28,0.6442690514133476,right,both,ambiguous-stable,92,30,left,right,0.423
VTM1984WRNO,2019-10-08-14-27-35,5,29,0.538472192648722,left,probe,ambiguous-switch,-1,40,right,right,0.336
VTM1984WRNO,2019-10-08-14-27-35,5,30,0.5312200184300785,left,both,ambiguous-switch,102,40,right,right,0.326
VTM1984WRNO,2019-10-08-14-27-35,5,31,0.5647292248067958,right,probe,ambiguous-switch,-1,10,right,right,0.373
VTM1984WRNO,2019-10-08-14-27-35,5,32,0.6361294351351053,right,both,ambiguous-switch,103,10,right,left,0.396
VTM1984WRNO,2019-10-08-14-27-35,5,33,0.6246389000433863,right,probe,biased-switch,-1,20,left,left,0.318
VTM1984WRNO,2019-10-08-14-27-35,5,34,0.5446905150682101,right,both,biased-switch,94,20,left,right,0.303
VTM1984WRNO,2019-10-08-14-27-35,5,35,0.5257377705235536,right,probe,ambiguous-switch,-1,-30,right,right,0.346
VTM1984WRNO,2019-10-08-14-27-35,5,36,0.694680536450569,right,both,ambiguous-switch,109,-30,right,right,0.353
VTM1984WRNO,2019-10-08-14-27-35,5,37,0.6273185642253685,left,probe,biased-switch,-1,40,right,right,0.312
VTM1984WRNO,2019-10-08-14-27-35,5,38,0.683324389926195,left,both,biased-switch,103,40,right,left,0.306
VTM1984WRNO,2019-10-08-14-27-35,5,39,0.5187590474321196,left,probe,ambiguous-stable,-1,40,left,left,0.308
VTM1984WRNO,2019-10-08-14-27-35,5,40,0.5771118718361687,left,both,ambiguous-stable,91,40,right,left,0.285
VTM1984WRNO,2019-10-08-14-27-35,5,41,0.5630506063688323,right,probe,ambiguous-stable,-1,5,right,right,0.344
VTM1984WRNO,2019-10-08-14-27-35,5,42,0.6666551698451435,right,both,ambiguous-stable,97,5,left,right,0.331
VTM1984WRNO,2019-10-08-14-27-35,5,43,0.5792784035086987,right,probe,ambiguous-switch,-1,-20,right,right,0.346
VTM1984WRNO,2019-10-08-14-27-35,5,44,0.5428249176821955,right,both,ambiguous-switch,104,-20,right,right,0.379
VTM1984WRNO,2019-10-08-14-27-35,5,45,0.6212158099373182,left,probe,biased-switch,-1,-30,left,left,0.34
VTM1984WRNO,2019-10-08-14-27-35,5,46,0.6039957092902524,left,both,biased-switch,100,-30,left,left,0.445
VTM1984WRNO,2019-10-08-14-27-35,5,47,0.5911146578760182,left,probe,ambiguous-stable,-1,-20,left,left,0.511
VTM1984WRNO,2019-10-08-14-27-35,5,48,0.5910833783370304,left,both,ambiguous-stable,99,-20,right,left,0.414
VTM1984WRNO,2019-10-08-14-27-35,5,49,0.5626640600422107,left,probe,biased-switch,-1,10,left,left,0.428
VTM1984WRNO,2019-10-08-14-27-35,5,50,0.6128551541240636,left,both,biased-switch,100,10,left,right,0.324
VTM1984WRNO,2019-10-08-14-27-35,5,51,0.5945866969430104,left,probe,biased-switch,-1,5,left,left,0.295
VTM1984WRNO,2019-10-08-14-27-35,5,52,0.591151950476497,left,both,biased-switch,106,5,left,right,0.295
VTM1984WRNO,2019-10-08-14-27-35,5,53,0.6702936052868396,right,probe,ambiguous-switch,-1,-10,left,left,0.275
VTM1984WRNO,2019-10-08-14-27-35,5,54,0.6124565730694925,right,both,ambiguous-switch,94,-10,left,right,0.278
VTM1984WRNO,2019-10-08-14-27-35,5,55,0.6648397630408617,left,probe,ambiguous-stable,-1,-30,left,left,0.869
VTM1984WRNO,2019-10-08-14-27-35,5,56,0.620137803312445,left,both,ambiguous-stable,102,-30,right,left,0.43
VTM1984WRNO,2019-10-08-14-27-35,5,57,0.6942450612323894,right,probe,biased-switch,-1,-5,right,right,0.267
VTM1984WRNO,2019-10-08-14-27-35,5,58,0.5249128978172554,right,both,biased-switch,95,-5,right,right,0.305
VTM1984WRNO,2019-10-08-14-27-35,5,59,0.6411445123275239,left,probe,ambiguous-switch,-1,20,left,left,0.243
VTM1984WRNO,2019-10-08-14-27-35,5,60,0.6694283613042776,left,both,ambiguous-switch,100,20,left,right,0.283
VTM1984WRNO,2019-10-08-14-27-35,6,1,0.6392150593440878,left,probe,biased-switch,-1,20,left,left,0.331
VTM1984WRNO,2019-10-08-14-27-35,6,2,0.6567168885903351,left,both,biased-switch,106,20,left,right,0.352
VTM1984WRNO,2019-10-08-14-27-35,6,3,0.5147582880055676,left,probe,biased-switch,-1,-30,right,right,0.354
VTM1984WRNO,2019-10-08-14-27-35,6,4,0.6579292967345305,left,both,biased-switch,97,-30,right,right,0.319
VTM1984WRNO,2019-10-08-14-27-35,6,5,0.536496821423995,left,probe,biased-switch,-1,-10,right,right,0.27
VTM1984WRNO,2019-10-08-14-27-35,6,6,0.6472778789178251,left,both,biased-switch,109,-10,right,right,0.297
VTM1984WRNO,2019-10-08-14-27-35,6,7,0.5021150084877516,left,probe,ambiguous-stable,-1,-30,right,right,0.286
VTM1984WRNO,2019-10-08-14-27-35,6,8,0.6940638137642612,left,both,ambiguous-stable,99,-30,left,right,0.308
VTM1984WRNO,2019-10-08-14-27-35,6,9,0.5704897059443997,right,probe,biased-switch,-1,0,left,left,0.258
VTM1984WRNO,2019-10-08-14-27-35,6,10,0.699383222735416,right,both,biased-switch,107,0,left,right,0.278
VTM1984WRNO,2019-10-08-14-27-35,6,11,0.598212306911279,left,probe,ambiguous-stable,-1,30,right,right,0.232
VTM1984WRNO,2019-10-08-14-27-35,6,12,0.6067357988785594,left,both,ambiguous-stable,96,30,left,right,0.28
VTM1984WRNO,2019-10-08-14-27-35,6,13,0.5330809888721831,right,probe,biased-switch,-1,5,left,left,0.266
VTM1984WRNO,2019-10-08-14-27-35,6,14,0.6249968550156383,right,both,biased-switch,103,5,left,right,0.266
VTM1984WRNO,2019-10-08-14-27-35,6,15,0.652865784238719,right,probe,ambiguous-switch,-1,20,left,left,0.24
VTM1984WRNO,2019-10-08-14-27-35,6,16,0.5622490092127684,right,both,ambiguous-switch,90,20,left,left,0.26
VTM1984WRNO,2019-10-08-14-27-35,6,17,0.6036274919425406,right,probe,ambiguous-switch,-1,40,left,left,0.273
VTM1984WRNO,2019-10-08-14-27-35,6,18,0.618145762745456,right,both,ambiguous-switch,100,40,left,left,0.294
VTM1984WRNO,2019-10-08-14-27-35,6,19,0.5285882722799476,right,probe,ambiguous-stable,-1,-20,left,left,0.314
VTM1984WRNO,2019-10-08-14-27-35,6,20,0.5740855805922859,right,both,ambiguous-stable,97,-20,right,left,0.31
VTM1984WRNO,2019-10-08-14-27-35,6,21,0.5718015297371165,right,probe,biased-switch,-1,-5,left,left,0.326
VTM1984WRNO,2019-10-08-14-27-35,6,22,0.595474674733194,right,both,biased-switch,98,-5,left,left,0.389
VTM1984WRNO,2019-10-08-14-27-35,6,23,0.6427788197389267,left,probe,ambiguous-switch,-1,10,left,left,0.309
VTM1984WRNO,2019-10-08-14-27-35,6,24,0.617984163577446,left,both,ambiguous-switch,105,10,left,right,0.295
VTM1984WRNO,2019-10-08-14-27-35,6,25,0.5660925668930651,right,probe,ambiguous-switch,-1,-10,left,left,0.312
VTM1984WRNO,2019-10-08-14-27-35,6,26,0.6928540536585199,right,both,ambiguous-switch,96,-10,left,left,0.286
VTM1984WRNO,2019-10-08-14-27-35,6,27,0.6962396564964822,right,probe,ambiguous-stable,-1,0,left,left,0.33
VTM1984WRNO,2019-10-08-14-27-35,6,28,0.6161899058440545,right,both,ambiguous-stable,103,0,right,left,0.318
VTM1984WRNO,2019-10-08-14-27-35,6,29,0.6252504759187064,right,probe,ambiguous-switch,-1,30,left,left,0.316
VTM1984WRNO,2019-10-08-14-27-35,6,30,0.5925925996880896,right,both,ambiguous-switch,109,30,left,left,0.374
VTM1984WRNO,2019-10-08-14-27-35,6,31,0.578974623681024,right,probe,biased-switch,-1,40,left,left,0.457
VTM1984WRNO,2019-10-08-14-27-35,6,32,0.5714868598416201,right,both,biased-switch,103,40,left,left,0.291
VTM1984WRNO,2019-10-08-14-27-35,6,33,0.5954007359752664,right,probe,ambiguous-switch,-1,0,left,left,0.313
VTM1984WRNO,2019-10-08-14-27-35,6,34,0.644540081978427,right,both,ambiguous-switch,97,0,left,left,0.323
VTM1984WRNO,2019-10-08-14-27-35,6,35,0.6264566155019218,right,probe,biased-switch,-1,-20,left,left,0.269
VTM1984WRNO,2019-10-08-14-27-35,6,36,0.6528754332339632,right,both,biased-switch,91,-20,left,left,0.326
VTM1984WRNO,2019-10-08-14-27-35,6,37,0.5002465012151383,left,probe,ambiguous-stable,-1,-5,left,left,0.283
VTM1984WRNO,2019-10-08-14-27-35,6,38,0.6274924614589358,left,both,ambiguous-stable,105,-5,right,left,0.292
VTM1984WRNO,2019-10-08-14-27-35,6,39,0.5908811451518777,right,probe,ambiguous-stable,-1,5,left,left,0.281
VTM1984WRNO,2019-10-08-14-27-35,6,40,0.571060953634132,right,both,ambiguous-stable,108,5,right,left,0.307
VTM1984WRNO,2019-10-08-14-27-35,6,41,0.6580665212054535,left,probe,biased-switch,-1,30,left,left,0.302
VTM1984WRNO,2019-10-08-14-27-35,6,42,0.6410890350450645,left,both,biased-switch,106,30,left,right,0.348
VTM1984WRNO,2019-10-08-14-27-35,6,43,0.6267285996791513,left,probe,ambiguous-stable,-1,20,right,right,0.366
VTM1984WRNO,2019-10-08-14-27-35,6,44,0.6947203122729046,left,both,ambiguous-stable,106,20,left,right,0.298
VTM1984WRNO,2019-10-08-14-27-35,6,45,0.6833377711622982,left,probe,biased-switch,-1,10,right,right,0.32
VTM1984WRNO,2019-10-08-14-27-35,6,46,0.5421629621333157,left,both,biased-switch,105,10,right,left,0.281
VTM1984WRNO,2019-10-08-14-27-35,6,47,0.6462099227263047,left,probe,ambiguous-switch,-1,-20,left,left,0.274
VTM1984WRNO,2019-10-08-14-27-35,6,48,0.6067470148377421,left,both,ambiguous-switch,106,-20,left,left,0.279
VTM1984WRNO,2019-10-08-14-27-35,6,49,0.5015105865117697,right,probe,ambiguous-stable,-1,40,left,left,0.35
VTM1984WRNO,2019-10-08-14-27-35,6,50,0.5636635585723405,right,both,ambiguous-stable,107,40,right,left,0.261
VTM1984WRNO,2019-10-08-14-27-35,6,51,0.6329209126895137,right,probe,ambiguous-switch,-1,-5,left,left,0.293
VTM1984WRNO,2019-10-08-14-27-35,6,52,0.6472932833247445,right,both,ambiguous-switch,92,-5,left,left,0.307
VTM1984WRNO,2019-10-08-14-27-35,6,53,0.5208101808090042,left,probe,ambiguous-switch,-1,-30,left,left,0.317
VTM1984WRNO,2019-10-08-14-27-35,6,54,0.5621556822229692,left,both,ambiguous-switch,96,-30,left,left,0.3
VTM1984WRNO,2019-10-08-14-27-35,6,55,0.5007732519245377,left,probe,ambiguous-stable,-1,-10,left,left,0.264
VTM1984WRNO,2019-10-08-14-27-35,6,56,0.6638290101290345,left,both,ambiguous-stable,100,-10,right,left,0.248
VTM1984WRNO,2019-10-08-14-27-35,6,57,0.5569352857756791,right,probe,ambiguous-stable,-1,10,left,left,0.255
VTM1984WRNO,2019-10-08-14-27-35,6,58,0.6981875574048944,right,both,ambiguous-stable,101,10,right,left,0.258
VTM1984WRNO,2019-10-08-14-27-35,6,59,0.551769500350898,left,probe,ambiguous-switch,-1,5,right,right,0.253
VTM1984WRNO,2019-10-08-14-27-35,6,60,0.545858918114907,left,both,ambiguous-switch,91,5,right,left,0.28
VTM1984WRNO,2019-10-08-14-27-35,7,1,0.5450431447341644,right,probe,ambiguous-stable,-1,10,right,right,0.362
VTM1984WRNO,2019-10-08-14-27-35,7,2,0.6942172294057593,right,both,ambiguous-stable,92,10,left,right,0.283
VTM1984WRNO,2019-10-08-14-27-35,7,3,0.6976948175541247,right,probe,biased-switch,-1,20,right,right,0.326
VTM1984WRNO,2019-10-08-14-27-35,7,4,0.5419588962232326,right,both,biased-switch,91,20,right,left,0.273
VTM1984WRNO,2019-10-08-14-27-35,7,5,0.5396227700439055,right,probe,biased-switch,-1,-20,left,left,0.271
VTM1984WRNO,2019-10-08-14-27-35,7,6,0.5491918807732303,right,both,biased-switch,92,-20,left,left,0.513
VTM1984WRNO,2019-10-08-14-27-35,7,7,0.5717806431285916,right,probe,biased-switch,-1,-5,left,left,0.302
VTM1984WRNO,2019-10-08-14-27-35,7,8,0.5214753290177858,right,both,biased-switch,107,-5,left,right,0.322
VTM1984WRNO,2019-10-08-14-27-35,7,9,0.6804379153966617,left,probe,ambiguous-stable,-1,-5,left,left,0.278
VTM1984WRNO,2019-10-08-14-27-35,7,10,0.6869446756514066,left,both,ambiguous-stable,99,-5,right,right,0.315
VTM1984WRNO,2019-10-08-14-27-35,7,11,0.5261595356173812,right,probe,ambiguous-switch,-1,40,left,left,0.293
VTM1984WRNO,2019-10-08-14-27-35,7,12,0.5738704235081661,right,both,ambiguous-switch,107,40,left,right,0.259
VTM1984WRNO,2019-10-08-14-27-35,7,13,0.6183721699230155,left,probe,ambiguous-stable,-1,30,right,right,0.326
VTM1984WRNO,2019-10-08-14-27-35,7,14,0.6946137235825436,left,both,ambiguous-stable,94,30,left,right,0.22
VTM1984WRNO,2019-10-08-14-27-35,7,15,0.6818212824708341,right,probe,ambiguous-switch,-1,-5,left,left,0.15
VTM1984WRNO,2019-10-08-14-27-35,7,16,0.6342537618726254,right,both,ambiguous-switch,94,-5,left,right,0.273
VTM1984WRNO,2019-10-08-14-27-35,7,17,0.6332530540438519,right,probe,ambiguous-stable,-1,5,right,right,0.307
VTM1984WRNO,2019-10-08-14-27-35,7,18,0.5050676704686073,right,both,ambiguous-stable,109,5,left,right,0.345
VTM1984WRNO,2019-10-08-14-27-35,7,19,0.5709185801089462,left,probe,ambiguous-stable,-1,-10,left,left,0.276
VTM1984WRNO,2019-10-08-14-27-35,7,20,0.5798033721260907,left,both,ambiguous-stable,108,-10,right,left,0.285
VTM1984WRNO,2019-10-08-14-27-35,7,21,0.5159433556692632,right,probe,ambiguous-stable,-1,0,right,right,0.273
VTM1984WRNO,2019-10-08-14-27-35,7,22,0.6517151218323302,right,both,ambiguous-stable,107,0,left,right,0.307
VTM1984WRNO,2019-10-08-14-27-35,7,23,0.6562325778528635,right,probe,biased-switch,-1,-30,right,right,0.327
VTM1984WRNO,2019-10-08-14-27-35,7,24,0.6629928928261454,right,both,biased-switch,95,-30,right,right,0.275
VTM1984WRNO,2019-10-08-14-27-35,7,25,0.6168049698270481,right,probe,ambiguous-switch,-1,20,right,right,0.291
VTM1984WRNO,2019-10-08-14-27-35,7,26,0.6716286425608875,right,both,ambiguous-switch,103,20,right,right,0.275
VTM1984WRNO,2019-10-08-14-27-35,7,27,0.6151725052845609,right,probe,ambiguous-stable,-1,-30,right,right,0.262
VTM1984WRNO,2019-10-08-14-27-35,7,28,0.6672491561542828,right,both,ambiguous-stable,98,-30,left,right,0.324
VTM1984WRNO,2019-10-08-14-27-35,7,29,0.6971406883778334,right,probe,ambiguous-switch,-1,0,right,right,0.331
VTM1984WRNO,2019-10-08-14-27-35,7,30,0.5931176858990256,right,both,ambiguous-switch,96,0,right,right,0.288
VTM1984WRNO,2019-10-08-14-27-35,7,31,0.5302521488139015,right,probe,ambiguous-switch,-1,-30,right,right,0.269
VTM1984WRNO,2019-10-08-14-27-35,7,32,0.5148438344380531,right,both,ambiguous-switch,98,-30,right,right,0.321
VTM1984WRNO,2019-10-08-14-27-35,7,33,0.5935528530576136,left,probe,ambiguous-switch,-1,10,right,right,0.312
VTM1984WRNO,2019-10-08-14-27-35,7,34,0.5396782143329165,left,both,ambiguous-switch,98,10,right,right,0.295
VTM1984WRNO,2019-10-08-14-27-35,7,35,0.5887447073779805,right,probe,biased-switch,-1,10,right,right,0.252
VTM1984WRNO,2019-10-08-14-27-35,7,36,0.580605166754359,right,both,biased-switch,97,10,right,left,0.268
VTM1984WRNO,2019-10-08-14-27-35,7,37,0.6977992127820096,right,probe,biased-switch,-1,40,right,right,0.286
VTM1984WRNO,2019-10-08-14-27-35,7,38,0.5804782494632108,right,both,biased-switch,99,40,right,right,0.279
VTM1984WRNO,2019-10-08-14-27-35,7,39,0.5460289782928222,left,probe,biased-switch,-1,5,right,right,0.274
VTM1984WRNO,2019-10-08-14-27-35,7,40,0.6932604720518438,left,both,biased-switch,98,5,right,left,0.241
VTM1984WRNO,2019-10-08-14-27-35,7,41,0.6396945213521822,right,probe,ambiguous-switch,-1,5,right,right,0.257
VTM1984WRNO,2019-10-08-14-27-35,7,42,0.5589400223557345,right,both,ambiguous-switch,103,5,right,right,0.321
VTM1984WRNO,2019-10-08-14-27-35,7,43,0.6340457092831817,right,probe,biased-switch,-1,-10,right,right,0.288
VTM1984WRNO,2019-10-08-14-27-35,7,44,0.580486326888799,right,both,biased-switch,93,-10,right,right,0.302
VTM1984WRNO,2019-10-08-14-27-35,7,45,0.5524833001951416,left,probe,biased-switch,-1,0,right,right,0.331
VTM1984WRNO,2019-10-08-14-27-35,7,46,0.5806992621195994,left,both,biased-switch,96,0,right,left,0.264
VTM1984WRNO,2019-10-08-14-27-35,7,47,0.508128019502198,right,probe,ambiguous-switch,-1,-20,right,right,0.293
VTM1984WRNO,2019-10-08-14-27-35,7,48,0.5450147453311968,right,both,ambiguous-switch,91,-20,right,right,0.306
VTM1984WRNO,2019-10-08-14-27-35,7,49,0.5754887575568682,left,probe,ambiguous-switch,-1,30,right,right,0.306
VTM1984WRNO,2019-10-08-14-27-35,7,50,0.567433945094076,left,both,ambiguous-switch,100,30,right,right,0.243
VTM1984WRNO,2019-10-08-14-27-35,7,51,0.5456713920472247,right,probe,ambiguous-stable,-1,40,right,right,0.291
VTM1984WRNO,2019-10-08-14-27-35,7,52,0.6292369322063129,right,both,ambiguous-stable,98,40,left,right,0.297
VTM1984WRNO,2019-10-08-14-27-35,7,53,0.5673949153832591,left,probe,biased-switch,-1,30,left,left,0.254
VTM1984WRNO,2019-10-08-14-27-35,7,54,0.5269312185860755,left,both,biased-switch,106,30,left,right,0.259
VTM1984WRNO,2019-10-08-14-27-35,7,55,0.6992165797323714,left,probe,ambiguous-stable,-1,20,right,right,0.276
VTM1984WRNO,2019-10-08-14-27-35,7,56,0.6804742300350637,left,both,ambiguous-stable,99,20,left,right,0.324
VTM1984WRNO,2019-10-08-14-27-35,7,57,0.5639406253805669,right,probe,ambiguous-stable,-1,-20,right,right,0.099
VTM1984WRNO,2019-10-08-14-27-35,7,58,0.510498104202417,right,both,ambiguous-stable,105,-20,left,left,0.244
VTM1984WRNO,2019-10-08-14-27-35,7,59,0.5478041045383844,right,probe,ambiguous-switch,-1,-10,left,left,0.244
VTM1984WRNO,2019-10-08-14-27-35,7,60,0.5464346116203984,right,both,ambiguous-switch,104,-10,left,left,0.26
VTM1984WRNO,2019-10-08-14-27-35,8,1,0.5989276756834612,left,probe,biased-switch,-1,-30,right,right,0.367
VTM1984WRNO,2019-10-08-14-27-35,8,2,0.524149967056859,left,both,biased-switch,91,-30,right,left,0.34
VTM1984WRNO,2019-10-08-14-27-35,8,3,0.5462472075475882,right,probe,ambiguous-stable,-1,10,right,right,0.299
VTM1984WRNO,2019-10-08-14-27-35,8,4,0.5913446182809887,right,both,ambiguous-stable,93,10,left,right,0.28
VTM1984WRNO,2019-10-08-14-27-35,8,5,0.5572304867085172,left,probe,ambiguous-stable,-1,-10,left,left,0.376
VTM1984WRNO,2019-10-08-14-27-35,8,6,0.5102922227559161,left,both,ambiguous-stable,95,-10,right,left,0.301
VTM1984WRNO,2019-10-08-14-27-35,8,7,0.6453463646356273,right,probe,biased-switch,-1,40,right,right,0.256
VTM1984WRNO,2019-10-08-14-27-35,8,8,0.5046061916116831,right,both,biased-switch,101,40,right,right,0.316
VTM1984WRNO,2019-10-08-14-27-35,8,9,0.6976875784255282,left,probe,ambiguous-switch,-1,40,right,right,0.259
VTM1984WRNO,2019-10-08-14-27-35,8,10,0.5265762513561039,left,both,ambiguous-switch,103,40,right,right,0.32
VTM1984WRNO,2019-10-08-14-27-35,8,11,0.664424649289386,left,probe,biased-switch,-1,0,right,right,0.275
VTM1984WRNO,2019-10-08-14-27-35,8,12,0.6512059846832654,left,both,biased-switch,94,0,right,left,0.298
VTM1984WRNO,2019-10-08-14-27-35,8,13,0.6114390054518389,right,probe,ambiguous-switch,-1,20,right,right,0.257
VTM1984WRNO,2019-10-08-14-27-35,8,14,0.5415737968484149,right,both,ambiguous-switch,103,20,right,right,0.29
VTM1984WRNO,2019-10-08-14-27-35,8,15,0.6852818674280259,left,probe,ambiguous-switch,-1,30,right,right,0.264
VTM1984WRNO,2019-10-08-14-27-35,8,16,0.626718969825339,left,both,ambiguous-switch,105,30,right,left,0.25
VTM1984WRNO,2019-10-08-14-27-35,8,17,0.6976441416405774,right,probe,ambiguous-stable,-1,-5,right,right,0.279
VTM1984WRNO,2019-10-08-14-27-35,8,18,0.576939451743757,right,both,ambiguous-stable,98,-5,left,right,0.251
VTM1984WRNO,2019-10-08-14-27-35,8,19,0.5663844564836648,right,probe,ambiguous-switch,-1,0,right,right,0.264
VTM1984WRNO,2019-10-08-14-27-35,8,20,0.5169592213660349,right,both,ambiguous-switch,92,0,right,right,0.251
VTM1984WRNO,2019-10-08-14-27-35,8,21,0.5283973341206433,left,probe,ambiguous-stable,-1,-30,right,right,0.212
VTM1984WRNO,2019-10-08-14-27-35,8,22,0.6141368126138951,left,both,ambiguous-stable,105,-30,left,right,0.298
VTM1984WRNO,2019-10-08-14-27-35,8,23,0.5549762363513382,right,probe,ambiguous-stable,-1,40,left,left,0.276
VTM1984WRNO,2019-10-08-14-27-35,8,24,0.5465308978121226,right,both,ambiguous-stable,104,40,right,left,0.222
VTM1984WRNO,2019-10-08-14-27-35,8,25,0.6520103741029019,right,probe,ambiguous-switch,-1,-30,left,left,0.272
VTM1984WRNO,2019-10-08-14-27-35,8,26,0.5376877740487774,right,both,ambiguous-switch,94,-30,left,left,0.259
VTM1984WRNO,2019-10-08-14-27-35,8,27,0.6246989601158174,left,probe,ambiguous-switch,-1,10,right,right,0.266
VTM1984WRNO,2019-10-08-14-27-35,8,28,0.505027370867176,left,both,ambiguous-switch,102,10,right,left,0.181
VTM1984WRNO,2019-10-08-14-27-35,8,29,0.5963509759098973,left,probe,ambiguous-switch,-1,-20,left,left,0.274
VTM1984WRNO,2019-10-08-14-27-35,8,30,0.6511378690824718,left,both,ambiguous-switch,104,-20,left,left,0.266
VTM1984WRNO,2019-10-08-14-27-35,8,31,0.5159884155543569,left,probe,biased-switch,-1,10,left,left,0.28
VTM1984WRNO,2019-10-08-14-27-35,8,32,0.6680646967644608,left,both,biased-switch,94,10,left,right,0.246
VTM1984WRNO,2019-10-08-14-27-35,8,33,0.5098425714857537,left,probe,biased-switch,-1,20,right,right,0.293
VTM1984WRNO,2019-10-08-14-27-35,8,34,0.6018355551603438,left,both,biased-switch,105,20,right,left,0.272
VTM1984WRNO,2019-10-08-14-27-35,8,35,0.6172899521951521,left,probe,ambiguous-stable,-1,30,left,left,0.247
VTM1984WRNO,2019-10-08-14-27-35,8,36,0.5309297380561299,left,both,ambiguous-stable,99,30,right,left,0.26
VTM1984WRNO,2019-10-08-14-27-35,8,37,0.5370747203839278,right,probe,biased-switch,-1,5,right,right,0.274
VTM1984WRNO,2019-10-08-14-27-35,8,38,0.5007706524898444,right,both,biased-switch,94,5,right,left,0.191
VTM1984WRNO,2019-10-08-14-27-35,8,39,0.549750840346182,right,probe,ambiguous-stable,-1,-20,left,left,0.222
VTM1984WRNO,2019-10-08-14-27-35,8,40,0.6903256185257742,right,both,ambiguous-stable,102,-20,right,left,0.014
VTM1984WRNO,2019-10-08-14-27-35,8,41,0.6787723827042361,left,probe,ambiguous-switch,-1,-5,left,left,0.288
VTM1984WRNO,2019-10-08-14-27-35,8,42,0.646209216145505,left,both,ambiguous-switch,104,-5,left,left,0.268
VTM1984WRNO,2019-10-08-14-27-35,8,43,0.5394694575892874,right,probe,biased-switch,-1,30,left,left,0.289
VTM1984WRNO,2019-10-08-14-27-35,8,44,0.604676186795926,right,both,biased-switch,104,30,left,left,0.032
VTM1984WRNO,2019-10-08-14-27-35,8,45,0.6674957779110655,right,probe,biased-switch,-1,-20,left,left,0.234
VTM1984WRNO,2019-10-08-14-27-35,8,46,0.5835956123107021,right,both,biased-switch,97,-20,left,left,0.293
VTM1984WRNO,2019-10-08-14-27-35,8,47,0.6339888620672591,left,probe,ambiguous-stable,-1,0,left,left,0.279
VTM1984WRNO,2019-10-08-14-27-35,8,48,0.5674923304959336,left,both,ambiguous-stable,109,0,right,left,0.278
VTM1984WRNO,2019-10-08-14-27-35,8,49,0.6235864785389955,left,probe,biased-switch,-1,-5,left,left,0.265
VTM1984WRNO,2019-10-08-14-27-35,8,50,0.5130651541201846,left,both,biased-switch,97,-5,left,left,0.279
VTM1984WRNO,2019-10-08-14-27-35,8,51,0.6053486198665979,left,probe,ambiguous-switch,-1,-10,left,left,0.27
VTM1984WRNO,2019-10-08-14-27-35,8,52,0.5095332014297943,left,both,ambiguous-switch,107,-10,left,left,0.281
VTM1984WRNO,2019-10-08-14-27-35,8,53,0.5914411888435389,right,probe,ambiguous-switch,-1,5,left,left,0.272
VTM1984WRNO,2019-10-08-14-27-35,8,54,0.5170918183938306,right,both,ambiguous-switch,108,5,left,right,0.313
VTM1984WRNO,2019-10-08-14-27-35,8,55,0.6930784909348706,left,probe,ambiguous-stable,-1,5,left,left,0.219
VTM1984WRNO,2019-10-08-14-27-35,8,56,0.6214484118536574,left,both,ambiguous-stable,91,5,right,left,0.249
VTM1984WRNO,2019-10-08-14-27-35,8,57,0.595558075643338,left,probe,biased-switch,-1,-10,left,left,0.212
VTM1984WRNO,2019-10-08-14-27-35,8,58,0.5947417992417845,left,both,biased-switch,105,-10,left,left,0.31
VTM1984WRNO,2019-10-08-14-27-35,8,59,0.6303370704795759,left,probe,ambiguous-stable,-1,20,left,left,0.244
VTM1984WRNO,2019-10-08-14-27-35,8,60,0.674392115257706,left,both,ambiguous-stable,92,20,right,left,0.217
VTM1984WRNO,2019-10-08-14-27-35,9,1,0.62852112625407,right,probe,ambiguous-switch,-1,40,left,left,0.164
VTM1984WRNO,2019-10-08-14-27-35,9,2,0.5352319410746181,right,both,ambiguous-switch,98,40,left,left,1.306
VTM1984WRNO,2019-10-08-14-27-35,9,3,0.5719945733186399,right,probe,biased-switch,-1,-30,left,left,0.438
VTM1984WRNO,2019-10-08-14-27-35,9,4,0.6714152372457806,right,both,biased-switch,109,-30,left,left,0.343
VTM1984WRNO,2019-10-08-14-27-35,9,5,0.5043555764308579,right,probe,biased-switch,-1,5,left,left,0.317
VTM1984WRNO,2019-10-08-14-27-35,9,6,0.5711829075362201,right,both,biased-switch,102,5,left,right,0.289
VTM1984WRNO,2019-10-08-14-27-35,9,7,0.5653600543071136,left,probe,ambiguous-switch,-1,20,left,left,0.253
VTM1984WRNO,2019-10-08-14-27-35,9,8,0.5045050133594886,left,both,ambiguous-switch,93,20,left,left,0.28
VTM1984WRNO,2019-10-08-14-27-35,9,9,0.5054019965532404,left,probe,ambiguous-stable,-1,-30,left,left,0.248
VTM1984WRNO,2019-10-08-14-27-35,9,10,0.5424977731280017,left,both,ambiguous-stable,104,-30,right,left,0.169
VTM1984WRNO,2019-10-08-14-27-35,9,11,0.5390759053824659,right,probe,ambiguous-switch,-1,-10,left,left,0.259
VTM1984WRNO,2019-10-08-14-27-35,9,12,0.5319881185680522,right,both,ambiguous-switch,109,-10,left,left,0.274
VTM1984WRNO,2019-10-08-14-27-35,9,13,0.5021002190110408,left,probe,ambiguous-switch,-1,-5,left,left,0.367
VTM1984WRNO,2019-10-08-14-27-35,9,14,0.6190189577271336,left,both,ambiguous-switch,101,-5,left,left,0.333
VTM1984WRNO,2019-10-08-14-27-35,9,15,0.5627539318156991,left,probe,biased-switch,-1,10,left,left,0.268
VTM1984WRNO,2019-10-08-14-27-35,9,16,0.5270461283962612,left,both,biased-switch,104,10,left,left,0.294
VTM1984WRNO,2019-10-08-14-27-35,9,17,0.5666409709145743,right,probe,ambiguous-switch,-1,5,left,left,0.294
VTM1984WRNO,2019-10-08-14-27-35,9,18,0.523597954453482,right,both,ambiguous-switch,91,5,left,left,0.301
VTM1984WRNO,2019-10-08-14-27-35,9,19,0.590689202298173,left,probe,ambiguous-stable,-1,40,left,left,0.239
VTM1984WRNO,2019-10-08-14-27-35,9,20,0.5869067066287705,left,both,ambiguous-stable,98,40,right,left,0.276
VTM1984WRNO,2019-10-08-14-27-35,9,21,0.615146938141922,right,probe,ambiguous-stable,-1,30,left,left,0.291
VTM1984WRNO,2019-10-08-14-27-35,9,22,0.620207511442757,right,both,ambiguous-stable,93,30,right,left,0.292
VTM1984WRNO,2019-10-08-14-27-35,9,23,0.5478171819803828,right,probe,ambiguous-stable,-1,-10,left,left,0.368
VTM1984WRNO,2019-10-08-14-27-35,9,24,0.558479409220148,right,both,ambiguous-stable,102,-10,right,left,0.368
VTM1984WRNO,2019-10-08-14-27-35,9,25,0.6083965473373283,right,probe,biased-switch,-1,0,left,left,0.349
VTM1984WRNO,2019-10-08-14-27-35,9,26,0.6409116646368911,right,both,biased-switch,92,0,left,left,0.37
VTM1984WRNO,2019-10-08-14-27-35,9,27,0.641585296331512,right,probe,ambiguous-switch,-1,-30,left,left,0.317
VTM1984WRNO,2019-10-08-14-27-35,9,28,0.6461825723894846,right,both,ambiguous-switch,107,-30,left,left,0.318
VTM1984WRNO,2019-10-08-14-27-35,9,29,0.570685599321676,left,probe,ambiguous-switch,-1,30,right,right,0.319
VTM1984WRNO,2019-10-08-14-27-35,9,30,0.6666396331949669,left,both,ambiguous-switch,104,30,right,left,0.251
VTM1984WRNO,2019-10-08-14-27-35,9,31,0.5249691434768073,right,probe,ambiguous-switch,-1,0,left,left,0.251
VTM1984WRNO,2019-10-08-14-27-35,9,32,0.5877565472910558,right,both,ambiguous-switch,105,0,left,left,0.275
VTM1984WRNO,2019-10-08-14-27-35,9,33,0.6656847080208633,left,probe,ambiguous-stable,-1,0,left,left,0.249
VTM1984WRNO,2019-10-08-14-27-35,9,34,0.6696036568235607,left,both,ambiguous-stable,103,0,right,left,0.356
VTM1984WRNO,2019-10-08-14-27-35,9,35,0.5607705631740387,left,probe,biased-switch,-1,-5,left,left,0.218
VTM1984WRNO,2019-10-08-14-27-35,9,36,0.5020060885615886,left,both,biased-switch,94,-5,left,left,0.254
VTM1984WRNO,2019-10-08-14-27-35,9,37,0.5379158032659688,right,probe,biased-switch,-1,20,left,left,0.221
VTM1984WRNO,2019-10-08-14-27-35,9,38,0.5397159387631552,right,both,biased-switch,107,20,left,right,0.175
VTM1984WRNO,2019-10-08-14-27-35,9,39,0.5145937188158058,right,probe,ambiguous-switch,-1,-20,left,left,0.277
VTM1984WRNO,2019-10-08-14-27-35,9,40,0.6657536568597049,right,both,ambiguous-switch,100,-20,left,left,0.191
VTM1984WRNO,2019-10-08-14-27-35,9,41,0.6489961138799583,left,probe,ambiguous-stable,-1,20,left,left,0.259
VTM1984WRNO,2019-10-08-14-27-35,9,42,0.5218214945450107,left,both,ambiguous-stable,92,20,right,left,0.284
VTM1984WRNO,2019-10-08-14-27-35,9,43,0.6445097651816099,right,probe,ambiguous-stable,-1,-20,left,left,0.27
VTM1984WRNO,2019-10-08-14-27-35,9,44,0.5646751626877515,right,both,ambiguous-stable,103,-20,right,left,0.235
VTM1984WRNO,2019-10-08-14-27-35,9,45,0.6367542584080271,right,probe,biased-switch,-1,40,left,left,0.25
VTM1984WRNO,2019-10-08-14-27-35,9,46,0.6524423581113185,right,both,biased-switch,99,40,left,left,0.22
VTM1984WRNO,2019-10-08-14-27-35,9,47,0.6570672219735321,right,probe,biased-switch,-1,-20,left,left,0.279
VTM1984WRNO,2019-10-08-14-27-35,9,48,0.6703653256190161,right,both,biased-switch,97,-20,left,left,0.299
VTM1984WRNO,2019-10-08-14-27-35,9,49,0.6792817112629104,left,probe,ambiguous-stable,-1,10,left,left,0.356
VTM1984WRNO,2019-10-08-14-27-35,9,50,0.6202784238762595,left,both,ambiguous-stable,97,10,right,left,0.286
VTM1984WRNO,2019-10-08-14-27-35,9,51,0.5347631707034713,left,probe,ambiguous-stable,-1,-5,left,left,0.299
VTM1984WRNO,2019-10-08-14-27-35,9,52,0.6712779019450114,left,both,ambiguous-stable,94,-5,right,left,0.293
VTM1984WRNO,2019-10-08-14-27-35,9,53,0.588230241375132,left,probe,biased-switch,-1,30,left,left,0.301
VTM1984WRNO,2019-10-08-14-27-35,9,54,0.5580645334567274,left,both,biased-switch,97,30,left,left,0.255
VTM1984WRNO,2019-10-08-14-27-35,9,55,0.6950049752199772,left,probe,ambiguous-switch,-1,10,left,left,0.262
VTM1984WRNO,2019-10-08-14-27-35,9,56,0.6772125004682992,left,both,ambiguous-switch,94,10,left,left,0.278
VTM1984WRNO,2019-10-08-14-27-35,9,57,0.6105580316621247,right,probe,ambiguous-stable,-1,5,left,left,0.462
VTM1984WRNO,2019-10-08-14-27-35,9,58,0.5596026251375873,right,both,ambiguous-stable,95,5,right,left,0.271
VTM1984WRNO,2019-10-08-14-27-35,9,59,0.6490485267223157,right,probe,biased-switch,-1,-10,left,left,0.33
VTM1984WRNO,2019-10-08-14-27-35,9,60,0.5824245957564588,right,both,biased-switch,100,-10,left,left,0.285
VTM1984WRNO,2019-10-08-14-27-35,10,1,0.6811205634979476,right,probe,ambiguous-switch,-1,-20,left,left,0.271
VTM1984WRNO,2019-10-08-14-27-35,10,2,0.6115659604371437,right,both,ambiguous-switch,94,-20,left,left,0.329
VTM1984WRNO,2019-10-08-14-27-35,10,3,0.5705161115191033,right,probe,ambiguous-switch,-1,30,left,left,0.298
VTM1984WRNO,2019-10-08-14-27-35,10,4,0.5678384157411305,right,both,ambiguous-switch,101,30,left,left,0.271
VTM1984WRNO,2019-10-08-14-27-35,10,5,0.6538405535997598,left,probe,ambiguous-stable,-1,-20,left,left,0.26
VTM1984WRNO,2019-10-08-14-27-35,10,6,0.6402421434170921,left,both,ambiguous-stable,98,-20,right,left,0.306
VTM1984WRNO,2019-10-08-14-27-35,10,7,0.6692807003647013,right,probe,biased-switch,-1,-30,left,left,0.278
VTM1984WRNO,2019-10-08-14-27-35,10,8,0.574146511387819,right,both,biased-switch,101,-30,left,left,0.632
VTM1984WRNO,2019-10-08-14-27-35,10,9,0.6427399911758302,left,probe,biased-switch,-1,40,left,left,0.282
VTM1984WRNO,2019-10-08-14-27-35,10,10,0.6924148777446523,left,both,biased-switch,106,40,left,left,0.335
VTM1984WRNO,2019-10-08-14-27-35,10,11,0.5898981295334437,right,probe,ambiguous-stable,-1,40,left,left,0.272
VTM1984WRNO,2019-10-08-14-27-35,10,12,0.6094063700117517,right,both,ambiguous-stable,104,40,right,left,0.466
VTM1984WRNO,2019-10-08-14-27-35,10,13,0.6766638456238959,left,probe,ambiguous-switch,-1,10,left,left,0.279
VTM1984WRNO,2019-10-08-14-27-35,10,14,0.5947682268668034,left,both,ambiguous-switch,101,10,left,left,0.302
VTM1984WRNO,2019-10-08-14-27-35,10,15,0.5194055667664307,right,probe,ambiguous-switch,-1,-10,left,left,0.229
VTM1984WRNO,2019-10-08-14-27-35,10,16,0.5790697051540079,right,both,ambiguous-switch,93,-10,left,left,0.314
VTM1984WRNO,2019-10-08-14-27-35,10,17,0.578208637742478,right,probe,biased-switch,-1,-20,left,left,0.23
VTM1984WRNO,2019-10-08-14-27-35,10,18,0.6707286643623216,right,both,biased-switch,106,-20,left,left,0.339
VTM1984WRNO,2019-10-08-14-27-35,10,19,0.5432109029940686,right,probe,ambiguous-switch,-1,20,left,left,0.263
VTM1984WRNO,2019-10-08-14-27-35,10,20,0.5262165044843272,right,both,ambiguous-switch,95,20,left,left,0.281
VTM1984WRNO,2019-10-08-14-27-35,10,21,0.5766135496006343,right,probe,ambiguous-stable,-1,20,left,left,0.272
VTM1984WRNO,2019-10-08-14-27-35,10,22,0.5331153171940172,right,both,ambiguous-stable,96,20,right,left,0.265
VTM1984WRNO,2019-10-08-14-27-35,10,23,0.6493845493075192,left,probe,biased-switch,-1,-10,left,left,0.221
VTM1984WRNO,2019-10-08-14-27-35,10,24,0.5591377503801084,left,both,biased-switch,107,-10,left,left,0.388
VTM1984WRNO,2019-10-08-14-27-35,10,25,0.6675941405157519,right,probe,biased-switch,-1,20,left,left,0.543
VTM1984WRNO,2019-10-08-14-27-35,10,26,0.6054930613056977,right,both,biased-switch,108,20,left,left,0.282
VTM1984WRNO,2019-10-08-14-27-35,10,27,0.588404965986525,right,probe,biased-switch,-1,30,left,left,0.292
VTM1984WRNO,2019-10-08-14-27-35,10,28,0.5422370674408966,right,both,biased-switch,103,30,left,right,0.289
VTM1984WRNO,2019-10-08-14-27-35,10,29,0.5802154189579635,right,probe,biased-switch,-1,5,left,left,0.238
VTM1984WRNO,2019-10-08-14-27-35,10,30,0.5945827386879449,right,both,biased-switch,98,5,left,right,0.306
VTM1984WRNO,2019-10-08-14-27-35,10,31,0.558271104745409,right,probe,ambiguous-stable,-1,-30,left,left,0.224
VTM1984WRNO,2019-10-08-14-27-35,10,32,0.5467788985620115,right,both,ambiguous-stable,94,-30,right,left,0.038
VTM1984WRNO,2019-10-08-14-27-35,10,33,0.5630793647345507,right,probe,biased-switch,-1,0,left,left,0.213
VTM1984WRNO,2019-10-08-14-27-35,10,34,0.6255079791285573,right,both,biased-switch,105,0,left,left,0.28
VTM1984WRNO,2019-10-08-14-27-35,10,35,0.676801349141722,left,probe,ambiguous-switch,-1,5,left,left,0.292
VTM1984WRNO,2019-10-08-14-27-35,10,36,0.6349410753830832,left,both,ambiguous-switch,105,5,left,left,0.339
VTM1984WRNO,2019-10-08-14-27-35,10,37,0.5905086158657364,right,probe,biased-switch,-1,-5,left,left,0.332
VTM1984WRNO,2019-10-08-14-27-35,10,38,0.5751742733018747,right,both,biased-switch,103,-5,left,left,0.324
VTM1984WRNO,2019-10-08-14-27-35,10,39,0.5594193939393602,right,probe,ambiguous-switch,-1,0,left,left,0.351
VTM1984WRNO,2019-10-08-14-27-35,10,40,0.6242067482249168,right,both,ambiguous-switch,94,0,left,left,0.252
VTM1984WRNO,2019-10-08-14-27-35,10,41,0.6578179757040143,right,probe,ambiguous-stable,-1,5,left,left,0.371
VTM1984WRNO,2019-10-08-14-27-35,10,42,0.5525214742745788,right,both,ambiguous-stable,100,5,right,left,0.316
VTM1984WRNO,2019-10-08-14-27-35,10,43,0.6001878401355917,right,probe,ambiguous-stable,-1,30,left,left,0.315
VTM1984WRNO,2019-10-08-14-27-35,10,44,0.6362951879390614,right,both,ambiguous-stable,98,30,right,left,0.284
VTM1984WRNO,2019-10-08-14-27-35,10,45,0.5261725907077446,left,probe,ambiguous-stable,-1,10,right,right,0.391
VTM1984WRNO,2019-10-08-14-27-35,10,46,0.5960810495949986,left,both,ambiguous-stable,104,10,left,right,0.412
VTM1984WRNO,2019-10-08-14-27-35,10,47,0.5678883619228836,right,probe,ambiguous-switch,-1,-5,left,left,0.221
VTM1984WRNO,2019-10-08-14-27-35,10,48,0.6572152988416955,right,both,ambiguous-switch,91,-5,left,left,0.319
VTM1984WRNO,2019-10-08-14-27-35,10,49,0.5449503005715363,left,probe,ambiguous-switch,-1,40,left,left,0.265
VTM1984WRNO,2019-10-08-14-27-35,10,50,0.5678071056070134,left,both,ambiguous-switch,102,40,left,right,0.238
VTM1984WRNO,2019-10-08-14-27-35,10,51,0.6361657885433303,left,probe,ambiguous-stable,-1,-5,right,right,0.305
VTM1984WRNO,2019-10-08-14-27-35,10,52,0.595902926284315,left,both,ambiguous-stable,92,-5,left,right,0.302
VTM1984WRNO,2019-10-08-14-27-35,10,53,0.6078891322826057,right,probe,ambiguous-stable,-1,-10,left,left,0.378
VTM1984WRNO,2019-10-08-14-27-35,10,54,0.6460875372040916,right,both,ambiguous-stable,101,-10,right,left,0.036
VTM1984WRNO,2019-10-08-14-27-35,10,55,0.5386325948999386,left,probe,ambiguous-stable,-1,0,right,right,0.197
VTM1984WRNO,2019-10-08-14-27-35,10,56,0.5710693955801455,left,both,ambiguous-stable,91,0,left,right,2.719
VTM1984WRNO,2019-10-08-14-27-35,10,57,0.5712078609928043,left,probe,biased-switch,-1,10,right,right,0.233
VTM1984WRNO,2019-10-08-14-27-35,10,58,0.6053544764401152,left,both,biased-switch,108,10,right,left,0.192
VTM1984WRNO,2019-10-08-14-27-35,10,59,0.6883955482429485,right,probe,ambiguous-switch,-1,-30,right,right,0.297
VTM1984WRNO,2019-10-08-14-27-35,10,60,0.6731461423550535,right,both,ambiguous-switch,95,-30,right,left,0.102
