Participant,Session,Block,Trial,OnsetDelay,ProbeLocation,WhatIsReported,Condition,TriggerTime,ProbeSOA,PrimeDirection,Response,RT
HKG2000WRNO,2019-10-29-16-02-03,1,1,0.6468178540705096,right,probe,ambiguous-switch,-1,-10,left,left,4.601
HKG2000WRNO,2019-10-29-16-02-03,1,2,0.5252813535225653,right,both,ambiguous-switch,101,-10,left,left,0.896
HKG2000WRNO,2019-10-29-16-02-03,1,3,0.5995812040107129,right,probe,biased-switch,-1,30,left,left,0.453
HKG2000WRNO,2019-10-29-16-02-03,1,4,0.6440750028677769,right,both,biased-switch,92,30,left,left,0.287
HKG2000WRNO,2019-10-29-16-02-03,1,5,0.6441849531218689,right,probe,biased-switch,-1,10,left,left,0.316
HKG2000WRNO,2019-10-29-16-02-03,1,6,0.5612166709457613,right,both,biased-switch,98,10,left,left,0.312
HKG2000WRNO,2019-10-29-16-02-03,1,7,0.5358478753206821,right,probe,ambiguous-switch,-1,-30,left,left,0.31
HKG2000WRNO,2019-10-29-16-02-03,1,8,0.5222873409519427,right,both,ambiguous-switch,91,-30,left,left,0.191
HKG2000WRNO,2019-10-29-16-02-03,1,9,0.6167228013700847,right,probe,ambiguous-switch,-1,5,left,left,0.277
HKG2000WRNO,2019-10-29-16-02-03,1,10,0.5279068157165953,right,both,ambiguous-switch,98,5,left,left,0.269
HKG2000WRNO,2019-10-29-16-02-03,1,11,0.5520045236495218,right,probe,biased-switch,-1,-30,left,left,0.285
HKG2000WRNO,2019-10-29-16-02-03,1,12,0.619930169629361,right,both,biased-switch,109,-30,left,left,0.23
HKG2000WRNO,2019-10-29-16-02-03,1,13,0.5162793453510722,left,probe,biased-switch,-1,-20,left,left,0.277
HKG2000WRNO,2019-10-29-16-02-03,1,14,0.5339281076907968,left,both,biased-switch,91,-20,left,left,0.335
HKG2000WRNO,2019-10-29-16-02-03,1,15,0.5236814364917299,left,probe,ambiguous-switch,-1,0,left,left,0.357
HKG2000WRNO,2019-10-29-16-02-03,1,16,0.6274340009018602,left,both,ambiguous-switch,107,0,left,left,0.508
HKG2000WRNO,2019-10-29-16-02-03,1,17,0.5943485166799855,left,probe,biased-switch,-1,20,left,left,0.778
HKG2000WRNO,2019-10-29-16-02-03,1,18,0.6759186940948616,left,both,biased-switch,93,20,left,left,0.549
HKG2000WRNO,2019-10-29-16-02-03,1,19,0.5128918335926403,right,probe,ambiguous-switch,-1,-5,left,left,0.471
HKG2000WRNO,2019-10-29-16-02-03,1,20,0.6900329698575334,right,both,ambiguous-switch,108,-5,left,left,0.284
HKG2000WRNO,2019-10-29-16-02-03,1,21,0.5264841741265458,left,probe,ambiguous-switch,-1,40,left,left,0.397
HKG2000WRNO,2019-10-29-16-02-03,1,22,0.5889165304741609,left,both,ambiguous-switch,108,40,left,left,0.054
HKG2000WRNO,2019-10-29-16-02-03,1,23,0.655325690454192,left,probe,biased-switch,-1,40,left,left,0.278
HKG2000WRNO,2019-10-29-16-02-03,1,24,0.5918002317756407,left,both,biased-switch,107,40,left,left,0.111
HKG2000WRNO,2019-10-29-16-02-03,1,25,0.6364665122111701,right,probe,biased-switch,-1,-5,left,left,0.175
HKG2000WRNO,2019-10-29-16-02-03,1,26,0.6802715587975541,right,both,biased-switch,103,-5,left,left,0.323
HKG2000WRNO,2019-10-29-16-02-03,1,27,0.6429556512885887,right,probe,biased-switch,-1,5,left,left,0.347
HKG2000WRNO,2019-10-29-16-02-03,1,28,0.572725741370493,right,both,biased-switch,93,5,left,left,0.291
HKG2000WRNO,2019-10-29-16-02-03,1,29,0.5300973016349366,right,probe,biased-switch,-1,0,left,left,0.275
HKG2000WRNO,2019-10-29-16-02-03,1,30,0.521603169729759,right,both,biased-switch,94,0,left,left,0.359
HKG2000WRNO,2019-10-29-16-02-03,1,31,0.5241450667505703,left,probe,ambiguous-switch,-1,-20,left,left,0.23
HKG2000WRNO,2019-10-29-16-02-03,1,32,0.5303844710729523,left,both,ambiguous-switch,100,-20,left,left,0.271
HKG2000WRNO,2019-10-29-16-02-03,1,33,0.5951630603687131,right,probe,ambiguous-switch,-1,10,left,left,0.297
HKG2000WRNO,2019-10-29-16-02-03,1,34,0.593831024297539,right,both,ambiguous-switch,93,10,left,left,0.192
HKG2000WRNO,2019-10-29-16-02-03,1,35,0.6941079876613837,right,probe,biased-switch,-1,-10,left,left,0.179
HKG2000WRNO,2019-10-29-16-02-03,1,36,0.5893960849074895,right,both,biased-switch,97,-10,left,left,0.207
HKG2000WRNO,2019-10-29-16-02-03,1,37,0.6433307025764996,right,probe,ambiguous-switch,-1,20,left,left,0.216
HKG2000WRNO,2019-10-29-16-02-03,1,38,0.645782077597616,right,both,ambiguous-switch,108,20,left,left,0.353
HKG2000WRNO,2019-10-29-16-02-03,1,39,0.608904681890317,left,probe,ambiguous-switch,-1,30,left,left,0.439
HKG2000WRNO,2019-10-29-16-02-03,1,40,0.6395635791926559,left,both,ambiguous-switch,105,30,left,left,0.312
HKG2000WRNO,2019-10-29-16-02-03,1,41,0.6480707314977354,left,probe,ambiguous-switch,-1,-10,left,left,0.307
HKG2000WRNO,2019-10-29-16-02-03,1,42,0.5843286660497671,left,both,ambiguous-switch,91,-10,left,left,0.243
HKG2000WRNO,2019-10-29-16-02-03,1,43,0.6006050021701583,left,probe,biased-switch,-1,30,left,left,0.294
HKG2000WRNO,2019-10-29-16-02-03,1,44,0.6568506612278033,left,both,biased-switch,98,30,left,left,0.194
HKG2000WRNO,2019-10-29-16-02-03,1,45,0.5377215986416528,left,probe,biased-switch,-1,10,left,left,0.184
HKG2000WRNO,2019-10-29-16-02-03,1,46,0.678295402068537,left,both,biased-switch,96,10,left,left,0.124
HKG2000WRNO,2019-10-29-16-02-03,1,47,0.6936985437630376,left,probe,ambiguous-switch,-1,-30,left,left,0.2
HKG2000WRNO,2019-10-29-16-02-03,1,48,0.5719487347304698,left,both,ambiguous-switch,104,-30,left,left,0.289
HKG2000WRNO,2019-10-29-16-02-03,1,49,0.6780887990386292,left,probe,ambiguous-switch,-1,5,left,left,0.304
HKG2000WRNO,2019-10-29-16-02-03,1,50,0.6482523732975338,left,both,ambiguous-switch,92,5,left,right,0.284
HKG2000WRNO,2019-10-29-16-02-03,1,51,0.5374703293347598,right,probe,biased-switch,-1,-30,left,left,0.267
HKG2000WRNO,2019-10-29-16-02-03,1,52,0.5011038239268047,right,both,biased-switch,99,-30,left,left,0.291
HKG2000WRNO,2019-10-29-16-02-03,1,53,0.6267223120943854,right,probe,biased-switch,-1,-20,left,left,0.205
HKG2000WRNO,2019-10-29-16-02-03,1,54,0.5997026576965221,right,both,biased-switch,92,-20,left,left,0.125
HKG2000WRNO,2019-10-29-16-02-03,1,55,0.559286778773205,left,probe,ambiguous-switch,-1,0,left,left,0.597
HKG2000WRNO,2019-10-29-16-02-03,1,56,0.5819565867099064,left,both,ambiguous-switch,109,0,left,right,0.183
HKG2000WRNO,2019-10-29-16-02-03,1,57,0.6564052213005734,left,probe,biased-switch,-1,20,left,left,0.228
HKG2000WRNO,2019-10-29-16-02-03,1,58,0.6797317460796141,left,both,biased-switch,102,20,left,right,0.162
HKG2000WRNO,2019-10-29-16-02-03,1,59,0.5381157804885914,left,probe,ambiguous-switch,-1,-5,left,left,0.276
HKG2000WRNO,2019-10-29-16-02-03,1,60,0.5280119065757996,left,both,ambiguous-switch,108,-5,left,right,0.301
HKG2000WRNO,2019-10-29-16-02-03,1,61,0.5185994472250829,right,probe,ambiguous-switch,-1,40,left,left,0.322
HKG2000WRNO,2019-10-29-16-02-03,1,62,0.5442962782823213,right,both,ambiguous-switch,92,40,left,left,1.048
HKG2000WRNO,2019-10-29-16-02-03,1,63,0.5088547866883443,right,probe,biased-switch,-1,40,left,left,0.747
HKG2000WRNO,2019-10-29-16-02-03,1,64,0.5593466718159137,right,both,biased-switch,92,40,left,left,0.166
HKG2000WRNO,2019-10-29-16-02-03,1,65,0.6351204851031652,left,probe,biased-switch,-1,-5,left,left,0.227
HKG2000WRNO,2019-10-29-16-02-03,1,66,0.5971230015365819,left,both,biased-switch,102,-5,left,right,0.227
HKG2000WRNO,2019-10-29-16-02-03,1,67,0.6448665931388052,right,probe,biased-switch,-1,5,left,left,0.233
HKG2000WRNO,2019-10-29-16-02-03,1,68,0.6992505058602445,right,both,biased-switch,99,5,left,left,0.196
HKG2000WRNO,2019-10-29-16-02-03,1,69,0.52676282597269,left,probe,biased-switch,-1,0,left,left,0.299
HKG2000WRNO,2019-10-29-16-02-03,1,70,0.5018524173803667,left,both,biased-switch,96,0,left,right,0.292
HKG2000WRNO,2019-10-29-16-02-03,1,71,0.5397598126681513,right,probe,ambiguous-switch,-1,-20,left,left,0.716
HKG2000WRNO,2019-10-29-16-02-03,1,72,0.6366063507952067,right,both,ambiguous-switch,93,-20,left,left,0.353
HKG2000WRNO,2019-10-29-16-02-03,1,73,0.5307908814892889,right,probe,ambiguous-switch,-1,10,left,left,0.402
HKG2000WRNO,2019-10-29-16-02-03,1,74,0.6536387558011693,right,both,ambiguous-switch,95,10,left,left,0.172
HKG2000WRNO,2019-10-29-16-02-03,1,75,0.552245167110749,left,probe,biased-switch,-1,-10,right,right,0.231
HKG2000WRNO,2019-10-29-16-02-03,1,76,0.5649688955782132,left,both,biased-switch,98,-10,right,left,0.304
HKG2000WRNO,2019-10-29-16-02-03,1,77,0.6598320020203987,left,probe,ambiguous-switch,-1,20,left,left,0.603
HKG2000WRNO,2019-10-29-16-02-03,1,78,0.5414727500599459,left,both,ambiguous-switch,94,20,left,right,0.319
HKG2000WRNO,2019-10-29-16-02-03,1,79,0.5211029954723027,left,probe,ambiguous-switch,-1,30,right,right,0.154
HKG2000WRNO,2019-10-29-16-02-03,1,80,0.6826579787101636,left,both,ambiguous-switch,102,30,right,right,0.259
HKG2000WRNO,2019-10-29-16-02-03,2,1,0.5998458260482208,left,probe,biased-switch,-1,10,left,left,0.234
HKG2000WRNO,2019-10-29-16-02-03,2,2,0.6003669465791196,left,both,biased-switch,99,10,left,right,0.224
HKG2000WRNO,2019-10-29-16-02-03,2,3,0.5184986910952,right,probe,ambiguous-switch,-1,0,left,left,0.198
HKG2000WRNO,2019-10-29-16-02-03,2,4,0.6388184553653865,right,both,ambiguous-switch,104,0,left,left,0.348
HKG2000WRNO,2019-10-29-16-02-03,2,5,0.57206252198997,right,probe,ambiguous-switch,-1,5,left,left,0.054
HKG2000WRNO,2019-10-29-16-02-03,2,6,0.5736944372197852,right,both,ambiguous-switch,93,5,left,left,0.163
HKG2000WRNO,2019-10-29-16-02-03,2,7,0.6333819191149132,left,probe,ambiguous-switch,-1,40,right,right,0.404
HKG2000WRNO,2019-10-29-16-02-03,2,8,0.5642273212719743,left,both,ambiguous-switch,96,40,right,left,0.24
HKG2000WRNO,2019-10-29-16-02-03,2,9,0.6993561844873768,right,probe,ambiguous-switch,-1,-5,left,left,0.278
HKG2000WRNO,2019-10-29-16-02-03,2,10,0.6748093226512082,right,both,ambiguous-switch,95,-5,left,left,0.24
HKG2000WRNO,2019-10-29-16-02-03,2,11,0.6587273785680283,left,probe,ambiguous-switch,-1,-10,right,right,0.273
HKG2000WRNO,2019-10-29-16-02-03,2,12,0.540908181994978,left,both,ambiguous-switch,95,-10,right,right,0.239
HKG2000WRNO,2019-10-29-16-02-03,2,13,0.6539346039737515,left,probe,biased-switch,-1,-20,right,right,0.253
HKG2000WRNO,2019-10-29-16-02-03,2,14,0.6737802566072205,left,both,biased-switch,98,-20,right,right,0.178
HKG2000WRNO,2019-10-29-16-02-03,2,15,0.6659948066113814,left,probe,biased-switch,-1,0,right,right,0.266
HKG2000WRNO,2019-10-29-16-02-03,2,16,0.637981284236957,left,both,biased-switch,95,0,right,right,0.302
HKG2000WRNO,2019-10-29-16-02-03,2,17,0.6246161692811267,left,probe,biased-switch,-1,-10,right,right,0.272
HKG2000WRNO,2019-10-29-16-02-03,2,18,0.5827643844482229,left,both,biased-switch,103,-10,right,right,0.065
HKG2000WRNO,2019-10-29-16-02-03,2,19,0.5941730532144849,left,probe,biased-switch,-1,-30,right,right,0.241
HKG2000WRNO,2019-10-29-16-02-03,2,20,0.5729484659933872,left,both,biased-switch,100,-30,right,right,0.33
HKG2000WRNO,2019-10-29-16-02-03,2,21,0.5621382363752534,right,probe,biased-switch,-1,20,left,left,0.316
HKG2000WRNO,2019-10-29-16-02-03,2,22,0.684373229747037,right,both,biased-switch,108,20,left,left,0.164
HKG2000WRNO,2019-10-29-16-02-03,2,23,0.5778183189944409,left,probe,ambiguous-switch,-1,10,right,right,0.39
HKG2000WRNO,2019-10-29-16-02-03,2,24,0.5116397489124267,left,both,ambiguous-switch,107,10,right,right,0.208
HKG2000WRNO,2019-10-29-16-02-03,2,25,0.5207336791797055,right,probe,ambiguous-switch,-1,30,right,right,0.257
HKG2000WRNO,2019-10-29-16-02-03,2,26,0.6393756097906972,right,both,ambiguous-switch,101,30,right,right,0.239
HKG2000WRNO,2019-10-29-16-02-03,2,27,0.6367919251189275,right,probe,ambiguous-switch,-1,-20,right,right,0.529
HKG2000WRNO,2019-10-29-16-02-03,2,28,0.6693514008937183,right,both,ambiguous-switch,96,-20,right,right,0.107
HKG2000WRNO,2019-10-29-16-02-03,2,29,0.6518836074333908,right,probe,biased-switch,-1,40,right,right,0.281
HKG2000WRNO,2019-10-29-16-02-03,2,30,0.6123335607145042,right,both,biased-switch,109,40,right,left,0.168
HKG2000WRNO,2019-10-29-16-02-03,2,31,0.63885893969412,left,probe,biased-switch,-1,-5,right,right,0.304
HKG2000WRNO,2019-10-29-16-02-03,2,32,0.6565390950665713,left,both,biased-switch,95,-5,right,right,0.24
HKG2000WRNO,2019-10-29-16-02-03,2,33,0.5444324553178115,right,probe,ambiguous-switch,-1,20,right,right,0.361
HKG2000WRNO,2019-10-29-16-02-03,2,34,0.6790016947794203,right,both,ambiguous-switch,99,20,right,left,0.082
HKG2000WRNO,2019-10-29-16-02-03,2,35,0.5785539823223782,right,probe,ambiguous-switch,-1,-30,right,right,0.258
HKG2000WRNO,2019-10-29-16-02-03,2,36,0.5321802413031679,right,both,ambiguous-switch,93,-30,right,right,0.058
HKG2000WRNO,2019-10-29-16-02-03,2,37,0.6997075002115126,left,probe,biased-switch,-1,5,right,right,0.42
HKG2000WRNO,2019-10-29-16-02-03,2,38,0.5740681299374855,left,both,biased-switch,104,5,right,right,0.749
HKG2000WRNO,2019-10-29-16-02-03,2,39,0.6618249514811461,left,probe,biased-switch,-1,30,right,right,0.252
HKG2000WRNO,2019-10-29-16-02-03,2,40,0.5327584311414162,left,both,biased-switch,95,30,right,right,0.286
HKG2000WRNO,2019-10-29-16-02-03,2,41,0.5775019787128299,left,probe,biased-switch,-1,10,right,right,0.182
HKG2000WRNO,2019-10-29-16-02-03,2,42,0.5250985064018494,left,both,biased-switch,109,10,right,right,0.203
HKG2000WRNO,2019-10-29-16-02-03,2,43,0.6543515829839459,right,probe,ambiguous-switch,-1,0,right,right,0.31
HKG2000WRNO,2019-10-29-16-02-03,2,44,0.6325196988900139,right,both,ambiguous-switch,103,0,right,left,0.261
HKG2000WRNO,2019-10-29-16-02-03,2,45,0.6758779573341929,right,probe,ambiguous-switch,-1,5,right,right,0.163
HKG2000WRNO,2019-10-29-16-02-03,2,46,0.6004638588681144,right,both,ambiguous-switch,109,5,right,right,0.245
HKG2000WRNO,2019-10-29-16-02-03,2,47,0.6028838602307659,left,probe,ambiguous-switch,-1,40,right,right,0.359
HKG2000WRNO,2019-10-29-16-02-03,2,48,0.5424562477235779,left,both,ambiguous-switch,97,40,right,right,0.308
HKG2000WRNO,2019-10-29-16-02-03,2,49,0.6665014393930502,right,probe,ambiguous-switch,-1,-5,right,right,0.354
HKG2000WRNO,2019-10-29-16-02-03,2,50,0.6286217236026366,right,both,ambiguous-switch,105,-5,right,left,0.864
HKG2000WRNO,2019-10-29-16-02-03,2,51,0.6982397149194337,left,probe,ambiguous-switch,-1,-10,right,right,0.258
HKG2000WRNO,2019-10-29-16-02-03,2,52,0.5829433642914543,left,both,ambiguous-switch,99,-10,right,right,0.264
HKG2000WRNO,2019-10-29-16-02-03,2,53,0.5708072615943985,left,probe,biased-switch,-1,-20,right,right,0.245
HKG2000WRNO,2019-10-29-16-02-03,2,54,0.6773479075602433,left,both,biased-switch,107,-20,right,right,0.304
HKG2000WRNO,2019-10-29-16-02-03,2,55,0.6863476784696931,right,probe,biased-switch,-1,0,right,right,0.225
HKG2000WRNO,2019-10-29-16-02-03,2,56,0.5579417955337226,right,both,biased-switch,92,0,right,right,0.258
HKG2000WRNO,2019-10-29-16-02-03,2,57,0.5688005589178793,right,probe,biased-switch,-1,-10,right,right,0.26
HKG2000WRNO,2019-10-29-16-02-03,2,58,0.5395203114524166,right,both,biased-switch,108,-10,right,right,0.235
HKG2000WRNO,2019-10-29-16-02-03,2,59,0.5614795638378912,right,probe,biased-switch,-1,-30,right,right,0.186
HKG2000WRNO,2019-10-29-16-02-03,2,60,0.5275351501889779,right,both,biased-switch,102,-30,right,right,0.249
HKG2000WRNO,2019-10-29-16-02-03,2,61,0.5387960781745453,left,probe,biased-switch,-1,20,right,right,0.325
HKG2000WRNO,2019-10-29-16-02-03,2,62,0.6301766759090601,left,both,biased-switch,94,20,right,right,0.167
HKG2000WRNO,2019-10-29-16-02-03,2,63,0.6425621688954976,right,probe,ambiguous-switch,-1,10,right,right,0.419
HKG2000WRNO,2019-10-29-16-02-03,2,64,0.5518686727072484,right,both,ambiguous-switch,109,10,right,left,1.146
HKG2000WRNO,2019-10-29-16-02-03,2,65,0.6726659652557166,left,probe,ambiguous-switch,-1,30,right,right,0.304
HKG2000WRNO,2019-10-29-16-02-03,2,66,0.5015830102733349,left,both,ambiguous-switch,97,30,right,right,0.359
HKG2000WRNO,2019-10-29-16-02-03,2,67,0.5616349169166497,left,probe,ambiguous-switch,-1,-20,right,right,0.193
HKG2000WRNO,2019-10-29-16-02-03,2,68,0.5660238341268615,left,both,ambiguous-switch,90,-20,right,right,0.262
HKG2000WRNO,2019-10-29-16-02-03,2,69,0.5389916760964446,left,probe,biased-switch,-1,40,right,right,0.267
HKG2000WRNO,2019-10-29-16-02-03,2,70,0.5543815344079082,left,both,biased-switch,93,40,right,right,0.108
HKG2000WRNO,2019-10-29-16-02-03,2,71,0.5599417388932498,left,probe,biased-switch,-1,-5,right,right,0.199
HKG2000WRNO,2019-10-29-16-02-03,2,72,0.66287499976866,left,both,biased-switch,96,-5,right,right,1.12
HKG2000WRNO,2019-10-29-16-02-03,2,73,0.5057258898892278,left,probe,ambiguous-switch,-1,20,right,right,0.303
HKG2000WRNO,2019-10-29-16-02-03,2,74,0.6924763265130806,left,both,ambiguous-switch,98,20,right,right,0.266
HKG2000WRNO,2019-10-29-16-02-03,2,75,0.5178262314664706,left,probe,ambiguous-switch,-1,-30,right,right,0.079
HKG2000WRNO,2019-10-29-16-02-03,2,76,0.6914115026827748,left,both,ambiguous-switch,107,-30,right,right,0.363
HKG2000WRNO,2019-10-29-16-02-03,2,77,0.6047537207336603,left,probe,biased-switch,-1,5,right,right,0.328
HKG2000WRNO,2019-10-29-16-02-03,2,78,0.5152081954090934,left,both,biased-switch,94,5,right,right,0.263
HKG2000WRNO,2019-10-29-16-02-03,2,79,0.5149698884864478,left,probe,biased-switch,-1,30,right,right,0.43
HKG2000WRNO,2019-10-29-16-02-03,2,80,0.5991476639399629,left,both,biased-switch,95,30,right,right,0.126
HKG2000WRNO,2019-10-29-16-02-03,3,1,0.5153287721031534,right,probe,ambiguous-switch,-1,10,right,right,0.239
HKG2000WRNO,2019-10-29-16-02-03,3,2,0.6031552801402651,right,both,ambiguous-switch,109,10,right,right,0.004
HKG2000WRNO,2019-10-29-16-02-03,3,3,0.6835964984697768,right,probe,biased-switch,-1,-5,right,right,0.214
HKG2000WRNO,2019-10-29-16-02-03,3,4,0.5701136917940928,right,both,biased-switch,97,-5,right,right,0.242
HKG2000WRNO,2019-10-29-16-02-03,3,5,0.6698735624288967,right,probe,biased-switch,-1,-10,right,right,0.369
HKG2000WRNO,2019-10-29-16-02-03,3,6,0.5935909385728526,right,both,biased-switch,103,-10,right,right,0.317
HKG2000WRNO,2019-10-29-16-02-03,3,7,0.5410953619050846,left,probe,biased-switch,-1,10,right,right,0.312
HKG2000WRNO,2019-10-29-16-02-03,3,8,0.5053698227648025,left,both,biased-switch,106,10,right,right,0.321
HKG2000WRNO,2019-10-29-16-02-03,3,9,0.6039181336752777,left,probe,ambiguous-switch,-1,0,right,right,0.208
HKG2000WRNO,2019-10-29-16-02-03,3,10,0.5237586427790754,left,both,ambiguous-switch,93,0,right,right,0.318
HKG2000WRNO,2019-10-29-16-02-03,3,11,0.5731194408463051,right,probe,ambiguous-switch,-1,40,right,right,0.236
HKG2000WRNO,2019-10-29-16-02-03,3,12,0.6601833982583545,right,both,ambiguous-switch,109,40,right,right,0.27
HKG2000WRNO,2019-10-29-16-02-03,3,13,0.5523062175449418,left,probe,ambiguous-switch,-1,30,right,right,0.233
HKG2000WRNO,2019-10-29-16-02-03,3,14,0.5284134494440021,left,both,ambiguous-switch,97,30,right,right,0.309
HKG2000WRNO,2019-10-29-16-02-03,3,15,0.5695497953699853,left,probe,biased-switch,-1,30,right,right,0.229
HKG2000WRNO,2019-10-29-16-02-03,3,16,0.6340303170678933,left,both,biased-switch,100,30,right,left,0.232
HKG2000WRNO,2019-10-29-16-02-03,3,17,0.5646029048514132,right,probe,biased-switch,-1,-30,right,right,0.314
HKG2000WRNO,2019-10-29-16-02-03,3,18,0.5506893395262364,right,both,biased-switch,104,-30,right,right,0.284
HKG2000WRNO,2019-10-29-16-02-03,3,19,0.5837802815781683,left,probe,ambiguous-switch,-1,-30,right,right,0.238
HKG2000WRNO,2019-10-29-16-02-03,3,20,0.5261130235213023,left,both,ambiguous-switch,94,-30,right,right,0.261
HKG2000WRNO,2019-10-29-16-02-03,3,21,0.5696414781017773,left,probe,biased-switch,-1,40,right,right,0.307
HKG2000WRNO,2019-10-29-16-02-03,3,22,0.5093890269020379,left,both,biased-switch,109,40,right,right,0.413
HKG2000WRNO,2019-10-29-16-02-03,3,23,0.6815680822123114,right,probe,biased-switch,-1,0,right,right,0.292
HKG2000WRNO,2019-10-29-16-02-03,3,24,0.6666345867785352,right,both,biased-switch,104,0,right,left,0.315
HKG2000WRNO,2019-10-29-16-02-03,3,25,0.6096047974565488,right,probe,ambiguous-switch,-1,-20,right,right,0.301
HKG2000WRNO,2019-10-29-16-02-03,3,26,0.5316993849607257,right,both,ambiguous-switch,105,-20,right,left,0.289
HKG2000WRNO,2019-10-29-16-02-03,3,27,0.6561460261007872,right,probe,biased-switch,-1,20,right,right,0.273
HKG2000WRNO,2019-10-29-16-02-03,3,28,0.5325593713290963,right,both,biased-switch,101,20,right,right,0.424
HKG2000WRNO,2019-10-29-16-02-03,3,29,0.5528104608301383,left,probe,ambiguous-switch,-1,5,right,right,0.287
HKG2000WRNO,2019-10-29-16-02-03,3,30,0.5618896433173381,left,both,ambiguous-switch,99,5,right,right,0.279
HKG2000WRNO,2019-10-29-16-02-03,3,31,0.5838869886476842,left,probe,biased-switch,-1,5,right,right,0.284
HKG2000WRNO,2019-10-29-16-02-03,3,32,0.5214640463699236,left,both,biased-switch,99,5,right,left,0.257
HKG2000WRNO,2019-10-29-16-02-03,3,33,0.5742846903205948,right,probe,ambiguous-switch,-1,-5,right,right,0.211
HKG2000WRNO,2019-10-29-16-02-03,3,34,0.5353990653933246,right,both,ambiguous-switch,100,-5,right,right,0.601
HKG2000WRNO,2019-10-29-16-02-03,3,35,0.6876952887608984,left,probe,biased-switch,-1,-20,right,right,0.313
HKG2000WRNO,2019-10-29-16-02-03,3,36,0.6211116659943033,left,both,biased-switch,92,-20,right,left,0.281
HKG2000WRNO,2019-10-29-16-02-03,3,37,0.6466577228203684,left,probe,ambiguous-switch,-1,20,right,right,0.445
HKG2000WRNO,2019-10-29-16-02-03,3,38,0.5262751863166725,left,both,ambiguous-switch,108,20,right,left,0.276
HKG2000WRNO,2019-10-29-16-02-03,3,39,0.6558742710975967,right,probe,ambiguous-switch,-1,-10,right,right,0.456
HKG2000WRNO,2019-10-29-16-02-03,3,40,0.6760656357377582,right,both,ambiguous-switch,93,-10,right,left,0.252
HKG2000WRNO,2019-10-29-16-02-03,3,41,0.6582797614432194,left,probe,ambiguous-switch,-1,10,right,right,0.298
HKG2000WRNO,2019-10-29-16-02-03,3,42,0.5255143923866376,left,both,ambiguous-switch,108,10,right,right,0.233
HKG2000WRNO,2019-10-29-16-02-03,3,43,0.677688397164027,left,probe,biased-switch,-1,-5,right,right,0.219
HKG2000WRNO,2019-10-29-16-02-03,3,44,0.6024095848695152,left,both,biased-switch,101,-5,right,left,0.308
HKG2000WRNO,2019-10-29-16-02-03,3,45,0.5804174842476227,left,probe,biased-switch,-1,-10,right,right,0.327
HKG2000WRNO,2019-10-29-16-02-03,3,46,0.6959486954334384,left,both,biased-switch,93,-10,right,right,0.298
HKG2000WRNO,2019-10-29-16-02-03,3,47,0.5945651882125352,right,probe,biased-switch,-1,10,right,right,0.276
HKG2000WRNO,2019-10-29-16-02-03,3,48,0.5228219903605786,right,both,biased-switch,96,10,right,left,0.109
HKG2000WRNO,2019-10-29-16-02-03,3,49,0.6468953853079216,left,probe,ambiguous-switch,-1,0,right,right,0.191
HKG2000WRNO,2019-10-29-16-02-03,3,50,0.5769934296048181,left,both,ambiguous-switch,105,0,right,left,0.289
HKG2000WRNO,2019-10-29-16-02-03,3,51,0.6787843134937532,left,probe,ambiguous-switch,-1,40,right,right,0.122
HKG2000WRNO,2019-10-29-16-02-03,3,52,0.6764842626549743,left,both,ambiguous-switch,105,40,right,right,0.261
HKG2000WRNO,2019-10-29-16-02-03,3,53,0.5072934593189752,left,probe,ambiguous-switch,-1,30,right,right,0.41
HKG2000WRNO,2019-10-29-16-02-03,3,54,0.5606015285398236,left,both,ambiguous-switch,94,30,right,right,0.062
HKG2000WRNO,2019-10-29-16-02-03,3,55,0.6360099764790923,left,probe,biased-switch,-1,30,right,right,0.154
HKG2000WRNO,2019-10-29-16-02-03,3,56,0.5618249599926408,left,both,biased-switch,104,30,right,right,0.57
HKG2000WRNO,2019-10-29-16-02-03,3,57,0.6293087997272558,right,probe,biased-switch,-1,-30,right,right,0.33
HKG2000WRNO,2019-10-29-16-02-03,3,58,0.5117328689782498,right,both,biased-switch,102,-30,right,left,0.269
HKG2000WRNO,2019-10-29-16-02-03,3,59,0.5370531752602945,left,probe,ambiguous-switch,-1,-30,right,right,0.283
HKG2000WRNO,2019-10-29-16-02-03,3,60,0.5287492297061962,left,both,ambiguous-switch,95,-30,right,right,0.231
HKG2000WRNO,2019-10-29-16-02-03,3,61,0.6698236217737661,left,probe,biased-switch,-1,40,right,right,0.279
HKG2000WRNO,2019-10-29-16-02-03,3,62,0.6186584944756475,left,both,biased-switch,94,40,right,right,0.244
HKG2000WRNO,2019-10-29-16-02-03,3,63,0.5965292523596202,right,probe,biased-switch,-1,0,right,right,0.292
HKG2000WRNO,2019-10-29-16-02-03,3,64,0.68828608403489,right,both,biased-switch,95,0,right,left,0.2
HKG2000WRNO,2019-10-29-16-02-03,3,65,0.6505640599573045,right,probe,ambiguous-switch,-1,-20,right,right,0.236
HKG2000WRNO,2019-10-29-16-02-03,3,66,0.6215848800210633,right,both,ambiguous-switch,100,-20,right,left,0.259
HKG2000WRNO,2019-10-29-16-02-03,3,67,0.5694052478678258,right,probe,biased-switch,-1,20,left,left,0.238
HKG2000WRNO,2019-10-29-16-02-03,3,68,0.5729279394515983,right,both,biased-switch,99,20,left,right,0.256
HKG2000WRNO,2019-10-29-16-02-03,3,69,0.6501084469499825,right,probe,ambiguous-switch,-1,5,right,right,0.316
HKG2000WRNO,2019-10-29-16-02-03,3,70,0.5507254584447551,right,both,ambiguous-switch,93,5,right,right,0.383
HKG2000WRNO,2019-10-29-16-02-03,3,71,0.5492631576071652,right,probe,biased-switch,-1,5,right,right,0.243
HKG2000WRNO,2019-10-29-16-02-03,3,72,0.6677451813150694,right,both,biased-switch,99,5,right,left,0.265
HKG2000WRNO,2019-10-29-16-02-03,3,73,0.6450916548085963,right,probe,ambiguous-switch,-1,-5,left,left,0.227
HKG2000WRNO,2019-10-29-16-02-03,3,74,0.5357305410710618,right,both,ambiguous-switch,103,-5,left,left,0.028
HKG2000WRNO,2019-10-29-16-02-03,3,75,0.6088112002331953,left,probe,biased-switch,-1,-20,right,right,0.228
HKG2000WRNO,2019-10-29-16-02-03,3,76,0.5775026723546535,left,both,biased-switch,95,-20,right,right,0.239
HKG2000WRNO,2019-10-29-16-02-03,3,77,0.6525162893192467,left,probe,ambiguous-switch,-1,20,right,right,0.303
HKG2000WRNO,2019-10-29-16-02-03,3,78,0.5181070675458053,left,both,ambiguous-switch,94,20,right,right,0.271
HKG2000WRNO,2019-10-29-16-02-03,3,79,0.6887830070530664,left,probe,ambiguous-switch,-1,-10,right,right,0.23
HKG2000WRNO,2019-10-29-16-02-03,3,80,0.5684928621539991,left,both,ambiguous-switch,101,-10,right,right,0.314
HKG2000WRNO,2019-10-29-16-02-03,4,1,0.5862137063963756,left,probe,ambiguous-switch,-1,-5,right,right,0.247
HKG2000WRNO,2019-10-29-16-02-03,4,2,0.5965686062416922,left,both,ambiguous-switch,94,-5,right,right,0.15
HKG2000WRNO,2019-10-29-16-02-03,4,3,0.5797919800913239,left,probe,ambiguous-switch,-1,40,right,right,0.341
HKG2000WRNO,2019-10-29-16-02-03,4,4,0.6503605056229351,left,both,ambiguous-switch,104,40,right,right,0.274
HKG2000WRNO,2019-10-29-16-02-03,4,5,0.553601093205864,left,probe,biased-switch,-1,-30,right,right,0.108
HKG2000WRNO,2019-10-29-16-02-03,4,6,0.6850521337129886,left,both,biased-switch,98,-30,right,right,1.128
HKG2000WRNO,2019-10-29-16-02-03,4,7,0.6882426307334887,right,probe,ambiguous-switch,-1,10,right,right,0.233
HKG2000WRNO,2019-10-29-16-02-03,4,8,0.6553764197975501,right,both,ambiguous-switch,107,10,right,right,0.308
HKG2000WRNO,2019-10-29-16-02-03,4,9,0.5189965255682358,left,probe,biased-switch,-1,-5,right,right,0.158
HKG2000WRNO,2019-10-29-16-02-03,4,10,0.694189399154119,left,both,biased-switch,108,-5,right,right,0.31
HKG2000WRNO,2019-10-29-16-02-03,4,11,0.6951690303989069,left,probe,ambiguous-switch,-1,30,right,right,0.027
HKG2000WRNO,2019-10-29-16-02-03,4,12,0.6273667990608612,left,both,ambiguous-switch,95,30,right,right,0.361
HKG2000WRNO,2019-10-29-16-02-03,4,13,0.5408005474864453,right,probe,ambiguous-switch,-1,-30,right,right,0.31
HKG2000WRNO,2019-10-29-16-02-03,4,14,0.5952004305456103,right,both,ambiguous-switch,109,-30,right,right,0.209
HKG2000WRNO,2019-10-29-16-02-03,4,15,0.6698402180473509,left,probe,biased-switch,-1,-20,right,right,0.161
HKG2000WRNO,2019-10-29-16-02-03,4,16,0.5550666228931137,left,both,biased-switch,93,-20,right,right,0.035
HKG2000WRNO,2019-10-29-16-02-03,4,17,0.6414017046787661,right,probe,biased-switch,-1,20,right,right,0.235
HKG2000WRNO,2019-10-29-16-02-03,4,18,0.587661777317457,right,both,biased-switch,98,20,right,left,0.23
HKG2000WRNO,2019-10-29-16-02-03,4,19,0.5076047213993022,left,probe,ambiguous-switch,-1,-20,right,right,0.243
HKG2000WRNO,2019-10-29-16-02-03,4,20,0.54858704519436,left,both,ambiguous-switch,95,-20,right,right,0.314
HKG2000WRNO,2019-10-29-16-02-03,4,21,0.6257006472470769,right,probe,ambiguous-switch,-1,-10,right,right,0.26
HKG2000WRNO,2019-10-29-16-02-03,4,22,0.5719059687309164,right,both,ambiguous-switch,108,-10,right,left,0.002
HKG2000WRNO,2019-10-29-16-02-03,4,23,0.530751501427284,right,probe,ambiguous-switch,-1,20,right,right,0.168
HKG2000WRNO,2019-10-29-16-02-03,4,24,0.6677357749440748,right,both,ambiguous-switch,109,20,right,left,0.007
HKG2000WRNO,2019-10-29-16-02-03,4,25,0.5137146936399002,right,probe,ambiguous-switch,-1,0,left,left,1.293
HKG2000WRNO,2019-10-29-16-02-03,4,26,0.5526212542346082,right,both,ambiguous-switch,104,0,left,left,0.081
HKG2000WRNO,2019-10-29-16-02-03,4,27,0.631660137227598,left,probe,biased-switch,-1,30,right,right,0.152
HKG2000WRNO,2019-10-29-16-02-03,4,28,0.6477724877303456,left,both,biased-switch,108,30,right,right,0.151
HKG2000WRNO,2019-10-29-16-02-03,4,29,0.5960706333644514,left,probe,biased-switch,-1,40,right,right,0.091
HKG2000WRNO,2019-10-29-16-02-03,4,30,0.6043344955024897,left,both,biased-switch,90,40,right,right,0.251
HKG2000WRNO,2019-10-29-16-02-03,4,31,0.6724910774573167,right,probe,biased-switch,-1,0,right,right,0.27
HKG2000WRNO,2019-10-29-16-02-03,4,32,0.5695813393572676,right,both,biased-switch,103,0,right,left,0.252
HKG2000WRNO,2019-10-29-16-02-03,4,33,0.6536423631488777,left,probe,ambiguous-switch,-1,5,right,right,1.084
HKG2000WRNO,2019-10-29-16-02-03,4,34,0.5087702380179897,left,both,ambiguous-switch,108,5,right,right,0.313
HKG2000WRNO,2019-10-29-16-02-03,4,35,0.6398714956913978,right,probe,biased-switch,-1,5,right,right,0.416
HKG2000WRNO,2019-10-29-16-02-03,4,36,0.6849109948588485,right,both,biased-switch,90,5,right,left,0.436
HKG2000WRNO,2019-10-29-16-02-03,4,37,0.5492762795928319,left,probe,biased-switch,-1,10,right,right,0.334
HKG2000WRNO,2019-10-29-16-02-03,4,38,0.68061669808152,left,both,biased-switch,93,10,right,left,0.215
HKG2000WRNO,2019-10-29-16-02-03,4,39,0.6983309908992184,right,probe,biased-switch,-1,-10,left,left,0.16
HKG2000WRNO,2019-10-29-16-02-03,4,40,0.5477941533676952,right,both,biased-switch,92,-10,left,left,2.573
HKG2000WRNO,2019-10-29-16-02-03,4,41,0.6348373707770713,right,probe,ambiguous-switch,-1,-5,left,left,0.185
HKG2000WRNO,2019-10-29-16-02-03,4,42,0.5075643705930253,right,both,ambiguous-switch,102,-5,left,left,0.077
HKG2000WRNO,2019-10-29-16-02-03,4,43,0.6634860815884015,right,probe,ambiguous-switch,-1,40,left,left,0.326
HKG2000WRNO,2019-10-29-16-02-03,4,44,0.5941813658474978,right,both,ambiguous-switch,93,40,left,left,0.099
HKG2000WRNO,2019-10-29-16-02-03,4,45,0.6389081598110244,left,probe,biased-switch,-1,-30,left,left,0.226
HKG2000WRNO,2019-10-29-16-02-03,4,46,0.5159886619806804,left,both,biased-switch,102,-30,left,right,0.239
HKG2000WRNO,2019-10-29-16-02-03,4,47,0.628685779040627,right,probe,ambiguous-switch,-1,10,left,left,0.16
HKG2000WRNO,2019-10-29-16-02-03,4,48,0.5629406453875803,right,both,ambiguous-switch,93,10,left,left,0.227
HKG2000WRNO,2019-10-29-16-02-03,4,49,0.5421696957381633,left,probe,biased-switch,-1,-5,left,left,0.194
HKG2000WRNO,2019-10-29-16-02-03,4,50,0.557903351288534,left,both,biased-switch,105,-5,left,left,1.132
HKG2000WRNO,2019-10-29-16-02-03,4,51,0.5998857943365657,left,probe,ambiguous-switch,-1,30,left,left,0.493
HKG2000WRNO,2019-10-29-16-02-03,4,52,0.5289038813095609,left,both,ambiguous-switch,109,30,left,left,1.476
HKG2000WRNO,2019-10-29-16-02-03,4,53,0.618181512420561,right,probe,ambiguous-switch,-1,-30,left,left,0.379
HKG2000WRNO,2019-10-29-16-02-03,4,54,0.5920210180487305,right,both,ambiguous-switch,93,-30,left,left,0.236
HKG2000WRNO,2019-10-29-16-02-03,4,55,0.6541783616164889,left,probe,biased-switch,-1,-20,left,left,0.353
HKG2000WRNO,2019-10-29-16-02-03,4,56,0.6152060354596911,left,both,biased-switch,92,-20,left,left,0.046
HKG2000WRNO,2019-10-29-16-02-03,4,57,0.5945968148123676,right,probe,biased-switch,-1,20,left,left,0.197
HKG2000WRNO,2019-10-29-16-02-03,4,58,0.6030676213098827,right,both,biased-switch,107,20,left,left,0.017
HKG2000WRNO,2019-10-29-16-02-03,4,59,0.5603228660181854,right,probe,ambiguous-switch,-1,-20,left,left,1.258
HKG2000WRNO,2019-10-29-16-02-03,4,60,0.5694151793576835,right,both,ambiguous-switch,91,-20,left,left,0.261
HKG2000WRNO,2019-10-29-16-02-03,4,61,0.606435305240452,right,probe,ambiguous-switch,-1,-10,left,left,1.138
HKG2000WRNO,2019-10-29-16-02-03,4,62,0.5768288937992609,right,both,ambiguous-switch,91,-10,left,left,1.133
HKG2000WRNO,2019-10-29-16-02-03,4,63,0.6480989463221185,right,probe,ambiguous-switch,-1,20,left,left,0.257
HKG2000WRNO,2019-10-29-16-02-03,4,64,0.5373608773021137,right,both,ambiguous-switch,104,20,left,left,0.269
HKG2000WRNO,2019-10-29-16-02-03,4,65,0.671839111193778,right,probe,ambiguous-switch,-1,0,left,left,0.263
HKG2000WRNO,2019-10-29-16-02-03,4,66,0.6556753395906392,right,both,ambiguous-switch,110,0,left,left,3.062
HKG2000WRNO,2019-10-29-16-02-03,4,67,0.54991650366194,right,probe,biased-switch,-1,30,left,left,1.115
HKG2000WRNO,2019-10-29-16-02-03,4,68,0.5273426851909762,right,both,biased-switch,102,30,left,left,0.286
HKG2000WRNO,2019-10-29-16-02-03,4,69,0.6222018615409253,left,probe,biased-switch,-1,40,left,left,0.325
HKG2000WRNO,2019-10-29-16-02-03,4,70,0.6346140274838985,left,both,biased-switch,100,40,left,left,0.484
HKG2000WRNO,2019-10-29-16-02-03,4,71,0.6009409015437439,left,probe,biased-switch,-1,0,left,left,0.233
HKG2000WRNO,2019-10-29-16-02-03,4,72,0.6061927791846906,left,both,biased-switch,105,0,left,right,0.078
HKG2000WRNO,2019-10-29-16-02-03,4,73,0.5893061719671263,left,probe,ambiguous-switch,-1,5,left,left,0.286
HKG2000WRNO,2019-10-29-16-02-03,4,74,0.5909163185132676,left,both,ambiguous-switch,101,5,left,left,0.214
HKG2000WRNO,2019-10-29-16-02-03,4,75,0.5837291027946263,right,probe,biased-switch,-1,5,left,left,0.307
HKG2000WRNO,2019-10-29-16-02-03,4,76,0.5202981452882708,right,both,biased-switch,99,5,left,left,0.771
HKG2000WRNO,2019-10-29-16-02-03,4,77,0.5940927991806491,left,probe,biased-switch,-1,10,left,left,0.262
HKG2000WRNO,2019-10-29-16-02-03,4,78,0.6850016543470298,left,both,biased-switch,95,10,left,right,1.714
HKG2000WRNO,2019-10-29-16-02-03,4,79,0.6838005267325928,left,probe,biased-switch,-1,-10,right,right,0.296
HKG2000WRNO,2019-10-29-16-02-03,4,80,0.5640731223027982,left,both,biased-switch,97,-10,right,left,0.301
HKG2000WRNO,2019-10-29-16-02-03,5,1,0.6185887981603775,right,probe,biased-switch,-1,5,left,left,0.244
HKG2000WRNO,2019-10-29-16-02-03,5,2,0.6556991395755782,right,both,biased-switch,109,5,left,left,0.239
HKG2000WRNO,2019-10-29-16-02-03,5,3,0.6133120485496705,left,probe,ambiguous-switch,-1,-30,left,left,0.179
HKG2000WRNO,2019-10-29-16-02-03,5,4,0.5019711946385923,left,both,ambiguous-switch,100,-30,left,left,0.646
HKG2000WRNO,2019-10-29-16-02-03,5,5,0.5438321224582272,left,probe,biased-switch,-1,-20,left,left,0.321
HKG2000WRNO,2019-10-29-16-02-03,5,6,0.5278488726200427,left,both,biased-switch,97,-20,left,left,0.292
HKG2000WRNO,2019-10-29-16-02-03,5,7,0.5774156061920037,left,probe,ambiguous-switch,-1,-20,left,left,0.296
HKG2000WRNO,2019-10-29-16-02-03,5,8,0.5993950721428992,left,both,ambiguous-switch,95,-20,left,left,0.247
HKG2000WRNO,2019-10-29-16-02-03,5,9,0.5736384529219334,right,probe,biased-switch,-1,30,left,left,0.271
HKG2000WRNO,2019-10-29-16-02-03,5,10,0.5715347444009143,right,both,biased-switch,104,30,left,left,0.198
HKG2000WRNO,2019-10-29-16-02-03,5,11,0.630999507429441,right,probe,ambiguous-switch,-1,-10,left,left,0.207
HKG2000WRNO,2019-10-29-16-02-03,5,12,0.5226391341425121,right,both,ambiguous-switch,109,-10,left,left,0.085
HKG2000WRNO,2019-10-29-16-02-03,5,13,0.5666560931379928,left,probe,biased-switch,-1,0,left,left,0.337
HKG2000WRNO,2019-10-29-16-02-03,5,14,0.5183752374297715,left,both,biased-switch,107,0,left,right,0.263
HKG2000WRNO,2019-10-29-16-02-03,5,15,0.590984111312006,left,probe,ambiguous-switch,-1,40,left,left,0.115
HKG2000WRNO,2019-10-29-16-02-03,5,16,0.6770088933495503,left,both,ambiguous-switch,97,40,left,left,0.252
HKG2000WRNO,2019-10-29-16-02-03,5,17,0.5072655838830836,right,probe,ambiguous-switch,-1,-5,left,left,0.195
HKG2000WRNO,2019-10-29-16-02-03,5,18,0.5567790294250777,right,both,ambiguous-switch,98,-5,left,left,0.004
HKG2000WRNO,2019-10-29-16-02-03,5,19,0.5395179674257979,right,probe,ambiguous-switch,-1,30,left,left,0.107
HKG2000WRNO,2019-10-29-16-02-03,5,20,0.6327291378559676,right,both,ambiguous-switch,104,30,left,left,0.058
HKG2000WRNO,2019-10-29-16-02-03,5,21,0.5818251145639574,right,probe,ambiguous-switch,-1,5,left,left,0.216
HKG2000WRNO,2019-10-29-16-02-03,5,22,0.6982521778694666,right,both,ambiguous-switch,101,5,left,left,0.018
HKG2000WRNO,2019-10-29-16-02-03,5,23,0.5428545653445805,right,probe,biased-switch,-1,-10,left,left,0.795
HKG2000WRNO,2019-10-29-16-02-03,5,24,0.6926567319547725,right,both,biased-switch,110,-10,left,left,0.187
HKG2000WRNO,2019-10-29-16-02-03,5,25,0.6049384750553513,left,probe,biased-switch,-1,-5,left,left,0.23
HKG2000WRNO,2019-10-29-16-02-03,5,26,0.6458724083309704,left,both,biased-switch,102,-5,left,right,0.303
HKG2000WRNO,2019-10-29-16-02-03,5,27,0.509341310294415,left,probe,ambiguous-switch,-1,0,left,left,0.208
HKG2000WRNO,2019-10-29-16-02-03,5,28,0.6146783886103153,left,both,ambiguous-switch,105,0,left,left,0.262
HKG2000WRNO,2019-10-29-16-02-03,5,29,0.6354854876054077,left,probe,biased-switch,-1,-30,left,left,0.143
HKG2000WRNO,2019-10-29-16-02-03,5,30,0.5932887862197858,left,both,biased-switch,101,-30,left,left,0.32
HKG2000WRNO,2019-10-29-16-02-03,5,31,0.661583123242445,left,probe,biased-switch,-1,20,left,left,0.21
HKG2000WRNO,2019-10-29-16-02-03,5,32,0.5058797208010872,left,both,biased-switch,91,20,left,left,0.195
HKG2000WRNO,2019-10-29-16-02-03,5,33,0.6395926050450721,left,probe,ambiguous-switch,-1,20,right,right,0.205
HKG2000WRNO,2019-10-29-16-02-03,5,34,0.5084069303685592,left,both,ambiguous-switch,103,20,right,left,0.222
HKG2000WRNO,2019-10-29-16-02-03,5,35,0.602080942797805,left,probe,ambiguous-switch,-1,10,left,left,0.265
HKG2000WRNO,2019-10-29-16-02-03,5,36,0.5679340539943039,left,both,ambiguous-switch,105,10,left,left,0.119
HKG2000WRNO,2019-10-29-16-02-03,5,37,0.5431692229013415,right,probe,biased-switch,-1,10,left,left,0.27
HKG2000WRNO,2019-10-29-16-02-03,5,38,0.5984099679263336,right,both,biased-switch,109,10,left,left,0.812
HKG2000WRNO,2019-10-29-16-02-03,5,39,0.6214376393467422,right,probe,biased-switch,-1,40,left,left,0.271
HKG2000WRNO,2019-10-29-16-02-03,5,40,0.6696149225529969,right,both,biased-switch,108,40,left,left,0.059
HKG2000WRNO,2019-10-29-16-02-03,5,41,0.6645490798075884,left,probe,biased-switch,-1,5,right,right,0.109
HKG2000WRNO,2019-10-29-16-02-03,5,42,0.598842362199411,left,both,biased-switch,92,5,right,left,0.1
HKG2000WRNO,2019-10-29-16-02-03,5,43,0.6337833350923491,left,probe,ambiguous-switch,-1,-30,left,left,0.189
HKG2000WRNO,2019-10-29-16-02-03,5,44,0.555409971414631,left,both,ambiguous-switch,99,-30,left,right,0.257
HKG2000WRNO,2019-10-29-16-02-03,5,45,0.6469757320022658,left,probe,biased-switch,-1,-20,right,right,0.407
HKG2000WRNO,2019-10-29-16-02-03,5,46,0.6011426953392766,left,both,biased-switch,107,-20,right,right,0.028
HKG2000WRNO,2019-10-29-16-02-03,5,47,0.5858487892580969,right,probe,ambiguous-switch,-1,-20,left,left,0.252
HKG2000WRNO,2019-10-29-16-02-03,5,48,0.5216447508724359,right,both,ambiguous-switch,104,-20,left,left,0.09
HKG2000WRNO,2019-10-29-16-02-03,5,49,0.5667171775651498,left,probe,biased-switch,-1,30,right,right,0.169
HKG2000WRNO,2019-10-29-16-02-03,5,50,0.6926990435129066,left,both,biased-switch,107,30,right,right,0.116
HKG2000WRNO,2019-10-29-16-02-03,5,51,0.5756743000491787,left,probe,ambiguous-switch,-1,-10,left,left,0.426
HKG2000WRNO,2019-10-29-16-02-03,5,52,0.6535291969337104,left,both,ambiguous-switch,94,-10,left,right,0.338
HKG2000WRNO,2019-10-29-16-02-03,5,53,0.6611757534455288,left,probe,biased-switch,-1,0,right,right,0.224
HKG2000WRNO,2019-10-29-16-02-03,5,54,0.5362087397916278,left,both,biased-switch,109,0,right,left,0.214
HKG2000WRNO,2019-10-29-16-02-03,5,55,0.6932216775238619,right,probe,ambiguous-switch,-1,40,left,left,0.968
HKG2000WRNO,2019-10-29-16-02-03,5,56,0.5340739407073714,right,both,ambiguous-switch,107,40,left,left,0.126
HKG2000WRNO,2019-10-29-16-02-03,5,57,0.5724712069988371,left,probe,ambiguous-switch,-1,-5,right,right,0.042
HKG2000WRNO,2019-10-29-16-02-03,5,58,0.675839813891795,left,both,ambiguous-switch,105,-5,right,right,0.274
HKG2000WRNO,2019-10-29-16-02-03,5,59,0.503422631850735,right,probe,ambiguous-switch,-1,30,left,left,0.288
HKG2000WRNO,2019-10-29-16-02-03,5,60,0.6829265175030601,right,both,ambiguous-switch,100,30,left,left,0.102
HKG2000WRNO,2019-10-29-16-02-03,5,61,0.6117452605286373,left,probe,ambiguous-switch,-1,5,left,left,0.266
HKG2000WRNO,2019-10-29-16-02-03,5,62,0.6459840675383179,left,both,ambiguous-switch,104,5,left,left,0.023
HKG2000WRNO,2019-10-29-16-02-03,5,63,0.5894849555764109,left,probe,biased-switch,-1,-10,left,left,0.264
HKG2000WRNO,2019-10-29-16-02-03,5,64,0.655239648091053,left,both,biased-switch,92,-10,left,right,0.183
HKG2000WRNO,2019-10-29-16-02-03,5,65,0.6384003797771083,left,probe,biased-switch,-1,-5,left,left,0.254
HKG2000WRNO,2019-10-29-16-02-03,5,66,0.6583036425592255,left,both,biased-switch,104,-5,left,right,0.058
HKG2000WRNO,2019-10-29-16-02-03,5,67,0.5862148250388327,right,probe,ambiguous-switch,-1,0,left,left,0.596
HKG2000WRNO,2019-10-29-16-02-03,5,68,0.6109370024404572,right,both,ambiguous-switch,104,0,left,left,0.31
HKG2000WRNO,2019-10-29-16-02-03,5,69,0.5215216878314143,right,probe,biased-switch,-1,-30,left,left,0.18
HKG2000WRNO,2019-10-29-16-02-03,5,70,0.681604183943445,right,both,biased-switch,95,-30,left,left,0.266
HKG2000WRNO,2019-10-29-16-02-03,5,71,0.6390740445083446,right,probe,biased-switch,-1,20,left,left,1.522
HKG2000WRNO,2019-10-29-16-02-03,5,72,0.5172646492203358,right,both,biased-switch,94,20,left,left,0.577
HKG2000WRNO,2019-10-29-16-02-03,5,73,0.67825881520049,left,probe,ambiguous-switch,-1,20,right,right,0.38
HKG2000WRNO,2019-10-29-16-02-03,5,74,0.6728647201743901,left,both,ambiguous-switch,104,20,right,left,0.052
HKG2000WRNO,2019-10-29-16-02-03,5,75,0.5401485813161122,right,probe,ambiguous-switch,-1,10,left,left,0.142
HKG2000WRNO,2019-10-29-16-02-03,5,76,0.6845597703010708,right,both,ambiguous-switch,105,10,left,right,0.272
HKG2000WRNO,2019-10-29-16-02-03,5,77,0.5311704082074832,right,probe,biased-switch,-1,10,left,left,0.382
HKG2000WRNO,2019-10-29-16-02-03,5,78,0.6603583167988369,right,both,biased-switch,96,10,left,left,0.131
HKG2000WRNO,2019-10-29-16-02-03,5,79,0.5485544582562559,left,probe,biased-switch,-1,40,left,left,0.46
HKG2000WRNO,2019-10-29-16-02-03,5,80,0.50832438472043,left,both,biased-switch,93,40,left,left,0.242
HKG2000WRNO,2019-10-29-16-02-03,6,1,0.5731687256523798,left,probe,biased-switch,-1,0,left,left,0.254
HKG2000WRNO,2019-10-29-16-02-03,6,2,0.6540068745064126,left,both,biased-switch,106,0,left,right,0.188
HKG2000WRNO,2019-10-29-16-02-03,6,3,0.5150958757673921,left,probe,biased-switch,-1,-30,left,left,0.166
HKG2000WRNO,2019-10-29-16-02-03,6,4,0.66955596399156,left,both,biased-switch,91,-30,left,right,0.28
HKG2000WRNO,2019-10-29-16-02-03,6,5,0.5836055964162682,left,probe,biased-switch,-1,-5,left,left,0.039
HKG2000WRNO,2019-10-29-16-02-03,6,6,0.5442774978545607,left,both,biased-switch,107,-5,left,left,0.225
HKG2000WRNO,2019-10-29-16-02-03,6,7,0.6695085115282058,right,probe,ambiguous-switch,-1,-30,left,left,0.253
HKG2000WRNO,2019-10-29-16-02-03,6,8,0.6952573028444908,right,both,ambiguous-switch,100,-30,left,left,0.129
HKG2000WRNO,2019-10-29-16-02-03,6,9,0.6508333691208832,right,probe,ambiguous-switch,-1,0,left,left,1.001
HKG2000WRNO,2019-10-29-16-02-03,6,10,0.6414678618378078,right,both,ambiguous-switch,107,0,left,left,0.038
HKG2000WRNO,2019-10-29-16-02-03,6,11,0.5498737492134794,left,probe,biased-switch,-1,-10,left,left,0.016
HKG2000WRNO,2019-10-29-16-02-03,6,12,0.5115433051056376,left,both,biased-switch,105,-10,left,right,0.296
HKG2000WRNO,2019-10-29-16-02-03,6,13,0.6579460709008452,right,probe,biased-switch,-1,10,left,left,0.097
HKG2000WRNO,2019-10-29-16-02-03,6,14,0.6954161496555127,right,both,biased-switch,102,10,left,left,0.166
HKG2000WRNO,2019-10-29-16-02-03,6,15,0.6375373701653055,left,probe,ambiguous-switch,-1,-20,left,left,0.285
HKG2000WRNO,2019-10-29-16-02-03,6,16,0.5498117464232469,left,both,ambiguous-switch,98,-20,left,right,0.16
HKG2000WRNO,2019-10-29-16-02-03,6,17,0.5979868101319378,left,probe,ambiguous-switch,-1,10,right,right,0.352
HKG2000WRNO,2019-10-29-16-02-03,6,18,0.6486499499646138,left,both,ambiguous-switch,98,10,right,right,3.136
HKG2000WRNO,2019-10-29-16-02-03,6,19,0.665539388590481,right,probe,ambiguous-switch,-1,5,left,left,0.633
HKG2000WRNO,2019-10-29-16-02-03,6,20,0.6451871682238698,right,both,ambiguous-switch,94,5,left,left,0.255
HKG2000WRNO,2019-10-29-16-02-03,6,21,0.5829362576760585,left,probe,biased-switch,-1,5,right,right,0.277
HKG2000WRNO,2019-10-29-16-02-03,6,22,0.6162004547866152,left,both,biased-switch,103,5,right,left,0.112
HKG2000WRNO,2019-10-29-16-02-03,6,23,0.5469355444530956,left,probe,biased-switch,-1,40,left,left,0.283
HKG2000WRNO,2019-10-29-16-02-03,6,24,0.5675380440927775,left,both,biased-switch,102,40,left,right,0.181
HKG2000WRNO,2019-10-29-16-02-03,6,25,0.651043354851279,left,probe,ambiguous-switch,-1,20,right,right,0.069
HKG2000WRNO,2019-10-29-16-02-03,6,26,0.5578941897794573,left,both,ambiguous-switch,109,20,right,left,1.099
HKG2000WRNO,2019-10-29-16-02-03,6,27,0.6625287620196585,left,probe,biased-switch,-1,30,right,right,0.226
HKG2000WRNO,2019-10-29-16-02-03,6,28,0.6785411072624882,left,both,biased-switch,106,30,right,right,0.35
HKG2000WRNO,2019-10-29-16-02-03,6,29,0.5664299187384809,left,probe,biased-switch,-1,20,right,right,0.25
HKG2000WRNO,2019-10-29-16-02-03,6,30,0.6530676767285107,left,both,biased-switch,96,20,right,right,0.098
HKG2000WRNO,2019-10-29-16-02-03,6,31,0.6521988789488382,right,probe,ambiguous-switch,-1,40,right,right,0.125
HKG2000WRNO,2019-10-29-16-02-03,6,32,0.6602800801210197,right,both,ambiguous-switch,109,40,right,left,0.088
HKG2000WRNO,2019-10-29-16-02-03,6,33,0.666609854964244,left,probe,ambiguous-switch,-1,-10,right,right,0.015
HKG2000WRNO,2019-10-29-16-02-03,6,34,0.6638825562068874,left,both,ambiguous-switch,102,-10,right,right,0.186
HKG2000WRNO,2019-10-29-16-02-03,6,35,0.5691166405120389,left,probe,biased-switch,-1,-20,right,right,0.207
HKG2000WRNO,2019-10-29-16-02-03,6,36,0.5662617911290794,left,both,biased-switch,108,-20,right,right,0.277
HKG2000WRNO,2019-10-29-16-02-03,6,37,0.5643763088087609,left,probe,ambiguous-switch,-1,-5,right,right,0.294
HKG2000WRNO,2019-10-29-16-02-03,6,38,0.6969576103530079,left,both,ambiguous-switch,105,-5,right,right,0.238
HKG2000WRNO,2019-10-29-16-02-03,6,39,0.6891363010915803,left,probe,ambiguous-switch,-1,30,right,right,0.225
HKG2000WRNO,2019-10-29-16-02-03,6,40,0.6365558088131684,left,both,ambiguous-switch,91,30,right,right,0.123
HKG2000WRNO,2019-10-29-16-02-03,6,41,0.5611133134966795,left,probe,biased-switch,-1,0,right,right,0.195
HKG2000WRNO,2019-10-29-16-02-03,6,42,0.6490499843538026,left,both,biased-switch,98,0,right,left,0.228
HKG2000WRNO,2019-10-29-16-02-03,6,43,0.6078458268557511,left,probe,biased-switch,-1,-30,right,right,0.232
HKG2000WRNO,2019-10-29-16-02-03,6,44,0.6345793621017017,left,both,biased-switch,104,-30,right,right,0.362
HKG2000WRNO,2019-10-29-16-02-03,6,45,0.6890021790489873,right,probe,biased-switch,-1,-5,right,right,0.281
HKG2000WRNO,2019-10-29-16-02-03,6,46,0.6650945747023376,right,both,biased-switch,101,-5,right,left,0.21
HKG2000WRNO,2019-10-29-16-02-03,6,47,0.5002906892506298,right,probe,ambiguous-switch,-1,-30,right,right,0.288
HKG2000WRNO,2019-10-29-16-02-03,6,48,0.6286803172471074,right,both,ambiguous-switch,102,-30,right,right,0.291
HKG2000WRNO,2019-10-29-16-02-03,6,49,0.6697508086393358,left,probe,ambiguous-switch,-1,0,right,right,0.24
HKG2000WRNO,2019-10-29-16-02-03,6,50,0.535536415063375,left,both,ambiguous-switch,91,0,right,right,0.055
HKG2000WRNO,2019-10-29-16-02-03,6,51,0.5142981509332369,right,probe,biased-switch,-1,-10,right,right,0.186
HKG2000WRNO,2019-10-29-16-02-03,6,52,0.5782512696684443,right,both,biased-switch,102,-10,right,right,0.222
HKG2000WRNO,2019-10-29-16-02-03,6,53,0.5881425602417044,left,probe,biased-switch,-1,10,right,right,0.238
HKG2000WRNO,2019-10-29-16-02-03,6,54,0.5820096563972723,left,both,biased-switch,108,10,right,left,0.207
HKG2000WRNO,2019-10-29-16-02-03,6,55,0.6407525870991039,right,probe,ambiguous-switch,-1,-20,right,right,0.945
HKG2000WRNO,2019-10-29-16-02-03,6,56,0.6546291756337195,right,both,ambiguous-switch,91,-20,right,right,0.258
HKG2000WRNO,2019-10-29-16-02-03,6,57,0.6269639337776856,left,probe,ambiguous-switch,-1,10,right,right,0.272
HKG2000WRNO,2019-10-29-16-02-03,6,58,0.6396152044659278,left,both,ambiguous-switch,106,10,right,right,0.207
HKG2000WRNO,2019-10-29-16-02-03,6,59,0.6728642873937164,right,probe,ambiguous-switch,-1,5,right,right,0.172
HKG2000WRNO,2019-10-29-16-02-03,6,60,0.5386581197659731,right,both,ambiguous-switch,94,5,right,right,0.268
HKG2000WRNO,2019-10-29-16-02-03,6,61,0.6157747232442624,right,probe,biased-switch,-1,5,right,right,0.261
HKG2000WRNO,2019-10-29-16-02-03,6,62,0.5318476025874341,right,both,biased-switch,99,5,right,left,0.127
HKG2000WRNO,2019-10-29-16-02-03,6,63,0.5765206930264676,left,probe,biased-switch,-1,40,right,right,0.199
HKG2000WRNO,2019-10-29-16-02-03,6,64,0.5724371240222068,left,both,biased-switch,107,40,right,right,0.2
HKG2000WRNO,2019-10-29-16-02-03,6,65,0.5316030201817332,left,probe,ambiguous-switch,-1,20,right,right,0.252
HKG2000WRNO,2019-10-29-16-02-03,6,66,0.6657710489824261,left,both,ambiguous-switch,98,20,right,left,0.192
HKG2000WRNO,2019-10-29-16-02-03,6,67,0.6845502659745196,left,probe,biased-switch,-1,30,right,right,0.143
HKG2000WRNO,2019-10-29-16-02-03,6,68,0.6956512205455865,left,both,biased-switch,106,30,right,right,0.178
HKG2000WRNO,2019-10-29-16-02-03,6,69,0.6296714768492256,left,probe,biased-switch,-1,20,right,right,0.045
HKG2000WRNO,2019-10-29-16-02-03,6,70,0.6370246606387343,left,both,biased-switch,94,20,right,right,0.06
HKG2000WRNO,2019-10-29-16-02-03,6,71,0.5454844136767448,right,probe,ambiguous-switch,-1,40,right,right,0.207
HKG2000WRNO,2019-10-29-16-02-03,6,72,0.571325283056912,right,both,ambiguous-switch,105,40,right,right,0.221
HKG2000WRNO,2019-10-29-16-02-03,6,73,0.5017703669769233,left,probe,ambiguous-switch,-1,-10,right,right,0.219
HKG2000WRNO,2019-10-29-16-02-03,6,74,0.5080053484969147,left,both,ambiguous-switch,105,-10,right,right,1.961
HKG2000WRNO,2019-10-29-16-02-03,6,75,0.6730749680259692,right,probe,biased-switch,-1,-20,right,right,0.318
HKG2000WRNO,2019-10-29-16-02-03,6,76,0.6337529648410528,right,both,biased-switch,109,-20,right,right,0.164
HKG2000WRNO,2019-10-29-16-02-03,6,77,0.5778894779427555,right,probe,ambiguous-switch,-1,-5,right,right,0.183
HKG2000WRNO,2019-10-29-16-02-03,6,78,0.5529294373712235,right,both,ambiguous-switch,92,-5,right,right,0.007
HKG2000WRNO,2019-10-29-16-02-03,6,79,0.6919740050715871,left,probe,ambiguous-switch,-1,30,right,right,0.181
HKG2000WRNO,2019-10-29-16-02-03,6,80,0.6629321859603761,left,both,ambiguous-switch,98,30,right,right,1.33
HKG2000WRNO,2019-10-29-16-02-03,7,1,0.5665057225515042,right,probe,biased-switch,-1,-20,left,left,0.263
HKG2000WRNO,2019-10-29-16-02-03,7,2,0.6303785861496314,right,both,biased-switch,102,-20,left,right,0.253
HKG2000WRNO,2019-10-29-16-02-03,7,3,0.6278849868732997,left,probe,ambiguous-switch,-1,0,right,right,0.566
HKG2000WRNO,2019-10-29-16-02-03,7,4,0.5273148065675469,left,both,ambiguous-switch,93,0,right,right,0.817
HKG2000WRNO,2019-10-29-16-02-03,7,5,0.6672610047855732,left,probe,ambiguous-switch,-1,10,right,right,0.541
HKG2000WRNO,2019-10-29-16-02-03,7,6,0.5709884886072439,left,both,ambiguous-switch,108,10,right,right,0.331
HKG2000WRNO,2019-10-29-16-02-03,7,7,0.6700040282144253,right,probe,ambiguous-switch,-1,5,right,right,0.293
HKG2000WRNO,2019-10-29-16-02-03,7,8,0.5741597818307352,right,both,ambiguous-switch,91,5,right,right,0.279
HKG2000WRNO,2019-10-29-16-02-03,7,9,0.5924803950329739,left,probe,biased-switch,-1,20,right,right,0.355
HKG2000WRNO,2019-10-29-16-02-03,7,10,0.6480124553362446,left,both,biased-switch,96,20,right,right,0.295
HKG2000WRNO,2019-10-29-16-02-03,7,11,0.6422372084651118,right,probe,biased-switch,-1,-30,right,right,0.283
HKG2000WRNO,2019-10-29-16-02-03,7,12,0.5875691992113299,right,both,biased-switch,104,-30,right,right,0.96
HKG2000WRNO,2019-10-29-16-02-03,7,13,0.5610858838141008,right,probe,biased-switch,-1,40,right,right,0.26
HKG2000WRNO,2019-10-29-16-02-03,7,14,0.57697383479932,right,both,biased-switch,109,40,right,right,3.38
HKG2000WRNO,2019-10-29-16-02-03,7,15,0.6305727636184892,right,probe,biased-switch,-1,10,right,right,0.232
HKG2000WRNO,2019-10-29-16-02-03,7,16,0.6332611984622747,right,both,biased-switch,102,10,right,right,0.256
HKG2000WRNO,2019-10-29-16-02-03,7,17,0.5826116659963464,right,probe,ambiguous-switch,-1,30,right,right,0.332
HKG2000WRNO,2019-10-29-16-02-03,7,18,0.6641309679758561,right,both,ambiguous-switch,93,30,right,right,0.391
HKG2000WRNO,2019-10-29-16-02-03,7,19,0.6397365989575295,right,probe,biased-switch,-1,0,right,right,1.292
HKG2000WRNO,2019-10-29-16-02-03,7,20,0.5700710914995608,right,both,biased-switch,100,0,right,right,0.244
HKG2000WRNO,2019-10-29-16-02-03,7,21,0.5544671365551663,left,probe,ambiguous-switch,-1,-10,right,right,0.184
HKG2000WRNO,2019-10-29-16-02-03,7,22,0.6864278817191047,left,both,ambiguous-switch,103,-10,right,right,0.002
HKG2000WRNO,2019-10-29-16-02-03,7,23,0.5114966472563037,right,probe,ambiguous-switch,-1,-30,right,right,0.222
HKG2000WRNO,2019-10-29-16-02-03,7,24,0.614198451128611,right,both,ambiguous-switch,107,-30,right,right,1.424
HKG2000WRNO,2019-10-29-16-02-03,7,25,0.6255674062890234,left,probe,biased-switch,-1,-5,right,right,0.277
HKG2000WRNO,2019-10-29-16-02-03,7,26,0.6073096868813933,left,both,biased-switch,98,-5,right,right,0.334
HKG2000WRNO,2019-10-29-16-02-03,7,27,0.5804977865305931,right,probe,ambiguous-switch,-1,20,right,right,0.281
HKG2000WRNO,2019-10-29-16-02-03,7,28,0.5467273229816385,right,both,ambiguous-switch,97,20,right,right,0.306
HKG2000WRNO,2019-10-29-16-02-03,7,29,0.6808246022498209,right,probe,ambiguous-switch,-1,-20,right,right,0.2
HKG2000WRNO,2019-10-29-16-02-03,7,30,0.6502720180736025,right,both,ambiguous-switch,106,-20,right,right,0.089
HKG2000WRNO,2019-10-29-16-02-03,7,31,0.5271486328934906,left,probe,biased-switch,-1,-10,right,right,0.557
HKG2000WRNO,2019-10-29-16-02-03,7,32,0.5700164064986288,left,both,biased-switch,93,-10,right,right,0.581
HKG2000WRNO,2019-10-29-16-02-03,7,33,0.5916307090512678,right,probe,biased-switch,-1,5,right,right,0.347
HKG2000WRNO,2019-10-29-16-02-03,7,34,0.6590476672595775,right,both,biased-switch,105,5,right,right,0.407
HKG2000WRNO,2019-10-29-16-02-03,7,35,0.5389849641765205,right,probe,ambiguous-switch,-1,40,right,right,0.339
HKG2000WRNO,2019-10-29-16-02-03,7,36,0.6391302233799765,right,both,ambiguous-switch,94,40,right,right,0.972
HKG2000WRNO,2019-10-29-16-02-03,7,37,0.6680458848664933,left,probe,biased-switch,-1,30,right,right,0.316
HKG2000WRNO,2019-10-29-16-02-03,7,38,0.569613715316245,left,both,biased-switch,106,30,right,right,0.253
HKG2000WRNO,2019-10-29-16-02-03,7,39,0.5619908287040047,left,probe,ambiguous-switch,-1,-5,right,right,0.343
HKG2000WRNO,2019-10-29-16-02-03,7,40,0.6874332763580397,left,both,ambiguous-switch,107,-5,right,right,0.358
HKG2000WRNO,2019-10-29-16-02-03,7,41,0.6988591349039333,left,probe,biased-switch,-1,-20,right,right,0.117
HKG2000WRNO,2019-10-29-16-02-03,7,42,0.6001175033742812,left,both,biased-switch,103,-20,right,right,0.292
HKG2000WRNO,2019-10-29-16-02-03,7,43,0.6669144212557272,right,probe,ambiguous-switch,-1,0,right,right,0.308
HKG2000WRNO,2019-10-29-16-02-03,7,44,0.5137763422522345,right,both,ambiguous-switch,98,0,right,right,1.015
HKG2000WRNO,2019-10-29-16-02-03,7,45,0.6250522441005844,right,probe,ambiguous-switch,-1,10,left,left,1.156
HKG2000WRNO,2019-10-29-16-02-03,7,46,0.5723235806749462,right,both,ambiguous-switch,104,10,left,right,0.552
HKG2000WRNO,2019-10-29-16-02-03,7,47,0.5997210704439102,right,probe,ambiguous-switch,-1,5,right,right,1.341
HKG2000WRNO,2019-10-29-16-02-03,7,48,0.6886511470041503,right,both,ambiguous-switch,94,5,right,right,0.322
HKG2000WRNO,2019-10-29-16-02-03,7,49,0.5001228124849416,left,probe,biased-switch,-1,20,right,right,0.315
HKG2000WRNO,2019-10-29-16-02-03,7,50,0.6570616999349999,left,both,biased-switch,107,20,right,left,0.416
HKG2000WRNO,2019-10-29-16-02-03,7,51,0.6899079136010438,left,probe,biased-switch,-1,-30,right,right,0.297
HKG2000WRNO,2019-10-29-16-02-03,7,52,0.6951609867160196,left,both,biased-switch,106,-30,right,right,1.174
HKG2000WRNO,2019-10-29-16-02-03,7,53,0.6312536438322573,right,probe,biased-switch,-1,40,right,right,0.323
HKG2000WRNO,2019-10-29-16-02-03,7,54,0.6447921010464526,right,both,biased-switch,100,40,right,right,0.168
HKG2000WRNO,2019-10-29-16-02-03,7,55,0.5352869460378618,right,probe,biased-switch,-1,10,right,right,0.329
HKG2000WRNO,2019-10-29-16-02-03,7,56,0.5713406068855322,right,both,biased-switch,99,10,right,right,0.303
HKG2000WRNO,2019-10-29-16-02-03,7,57,0.6094343743336533,left,probe,ambiguous-switch,-1,30,right,right,0.268
HKG2000WRNO,2019-10-29-16-02-03,7,58,0.6596364372581176,left,both,ambiguous-switch,99,30,right,right,0.143
HKG2000WRNO,2019-10-29-16-02-03,7,59,0.5611828546575004,left,probe,biased-switch,-1,0,right,right,0.243
HKG2000WRNO,2019-10-29-16-02-03,7,60,0.5045217204432252,left,both,biased-switch,109,0,right,right,0.195
HKG2000WRNO,2019-10-29-16-02-03,7,61,0.6213409174593967,right,probe,ambiguous-switch,-1,-10,right,right,0.262
HKG2000WRNO,2019-10-29-16-02-03,7,62,0.5828531050647536,right,both,ambiguous-switch,92,-10,right,right,0.2
HKG2000WRNO,2019-10-29-16-02-03,7,63,0.6128873504843219,left,probe,ambiguous-switch,-1,-30,right,right,0.133
HKG2000WRNO,2019-10-29-16-02-03,7,64,0.5163416958721012,left,both,ambiguous-switch,96,-30,right,right,1.127
HKG2000WRNO,2019-10-29-16-02-03,7,65,0.6146962106032595,right,probe,biased-switch,-1,-5,right,right,0.125
HKG2000WRNO,2019-10-29-16-02-03,7,66,0.6858951142436547,right,both,biased-switch,98,-5,right,right,0.077
HKG2000WRNO,2019-10-29-16-02-03,7,67,0.5040130784333864,left,probe,ambiguous-switch,-1,20,right,right,0.284
HKG2000WRNO,2019-10-29-16-02-03,7,68,0.5864022450353015,left,both,ambiguous-switch,95,20,right,right,0.859
HKG2000WRNO,2019-10-29-16-02-03,7,69,0.6291421049715475,right,probe,ambiguous-switch,-1,-20,right,right,0.233
HKG2000WRNO,2019-10-29-16-02-03,7,70,0.5050768873748407,right,both,ambiguous-switch,93,-20,right,right,0.033
HKG2000WRNO,2019-10-29-16-02-03,7,71,0.514423064029704,left,probe,biased-switch,-1,-10,right,right,0.248
HKG2000WRNO,2019-10-29-16-02-03,7,72,0.6800010939151773,left,both,biased-switch,93,-10,right,right,0.304
HKG2000WRNO,2019-10-29-16-02-03,7,73,0.5708641660464593,right,probe,biased-switch,-1,5,right,right,0.452
HKG2000WRNO,2019-10-29-16-02-03,7,74,0.6497657138809263,right,both,biased-switch,91,5,right,left,0.181
HKG2000WRNO,2019-10-29-16-02-03,7,75,0.5730336009457936,left,probe,ambiguous-switch,-1,40,right,right,0.214
HKG2000WRNO,2019-10-29-16-02-03,7,76,0.6662933613758704,left,both,ambiguous-switch,92,40,right,right,0.068
HKG2000WRNO,2019-10-29-16-02-03,7,77,0.634402056739026,right,probe,biased-switch,-1,30,left,left,0.312
HKG2000WRNO,2019-10-29-16-02-03,7,78,0.5156322673055304,right,both,biased-switch,105,30,left,left,2.113
HKG2000WRNO,2019-10-29-16-02-03,7,79,0.6110957982476946,left,probe,ambiguous-switch,-1,-5,right,right,0.327
HKG2000WRNO,2019-10-29-16-02-03,7,80,0.5118675904001602,left,both,ambiguous-switch,90,-5,right,right,0.093
HKG2000WRNO,2019-10-29-16-02-03,8,1,0.5060742506219685,left,probe,biased-switch,-1,0,left,left,0.276
HKG2000WRNO,2019-10-29-16-02-03,8,2,0.5725398872703786,left,both,biased-switch,90,0,left,right,0.233
HKG2000WRNO,2019-10-29-16-02-03,8,3,0.5479561400018127,right,probe,ambiguous-switch,-1,20,left,left,0.151
HKG2000WRNO,2019-10-29-16-02-03,8,4,0.5858336696581996,right,both,ambiguous-switch,100,20,left,left,0.866
HKG2000WRNO,2019-10-29-16-02-03,8,5,0.6092422512372629,right,probe,biased-switch,-1,40,left,left,0.287
HKG2000WRNO,2019-10-29-16-02-03,8,6,0.6755948417546918,right,both,biased-switch,99,40,left,left,1.135
HKG2000WRNO,2019-10-29-16-02-03,8,7,0.6053663010913931,left,probe,ambiguous-switch,-1,-30,left,left,0.403
HKG2000WRNO,2019-10-29-16-02-03,8,8,0.6707640094463853,left,both,ambiguous-switch,106,-30,left,right,0.926
HKG2000WRNO,2019-10-29-16-02-03,8,9,0.6302645990661686,right,probe,ambiguous-switch,-1,40,left,left,0.327
HKG2000WRNO,2019-10-29-16-02-03,8,10,0.6208331734637248,right,both,ambiguous-switch,99,40,left,left,0.166
HKG2000WRNO,2019-10-29-16-02-03,8,11,0.6868803764792321,left,probe,ambiguous-switch,-1,-20,right,right,0.313
HKG2000WRNO,2019-10-29-16-02-03,8,12,0.5865586503203735,left,both,ambiguous-switch,98,-20,right,left,0.282
HKG2000WRNO,2019-10-29-16-02-03,8,13,0.6858878252281686,right,probe,biased-switch,-1,20,left,left,0.278
HKG2000WRNO,2019-10-29-16-02-03,8,14,0.6668432779381389,right,both,biased-switch,109,20,left,left,0.035
HKG2000WRNO,2019-10-29-16-02-03,8,15,0.6364005410408592,right,probe,ambiguous-switch,-1,10,left,left,1.089
HKG2000WRNO,2019-10-29-16-02-03,8,16,0.6347634942092224,right,both,ambiguous-switch,101,10,left,left,0.209
HKG2000WRNO,2019-10-29-16-02-03,8,17,0.5564184404154126,left,probe,ambiguous-switch,-1,0,left,left,0.029
HKG2000WRNO,2019-10-29-16-02-03,8,18,0.620555910219074,left,both,ambiguous-switch,106,0,left,right,0.208
HKG2000WRNO,2019-10-29-16-02-03,8,19,0.6474068302427587,left,probe,biased-switch,-1,30,right,right,0.275
HKG2000WRNO,2019-10-29-16-02-03,8,20,0.588761237256564,left,both,biased-switch,97,30,right,right,0.367
HKG2000WRNO,2019-10-29-16-02-03,8,21,0.6262751812910833,right,probe,biased-switch,-1,-10,left,left,0.199
HKG2000WRNO,2019-10-29-16-02-03,8,22,0.5150599872670271,right,both,biased-switch,106,-10,left,left,0.034
HKG2000WRNO,2019-10-29-16-02-03,8,23,0.6310309061171321,left,probe,biased-switch,-1,-20,right,right,0.24
HKG2000WRNO,2019-10-29-16-02-03,8,24,0.6538807679222169,left,both,biased-switch,99,-20,right,right,0.265
HKG2000WRNO,2019-10-29-16-02-03,8,25,0.601509170895265,right,probe,ambiguous-switch,-1,5,left,left,0.247
HKG2000WRNO,2019-10-29-16-02-03,8,26,0.5179880969551671,right,both,ambiguous-switch,92,5,left,left,0.16
HKG2000WRNO,2019-10-29-16-02-03,8,27,0.667164655981399,left,probe,ambiguous-switch,-1,30,right,right,0.258
HKG2000WRNO,2019-10-29-16-02-03,8,28,0.5345742541143345,left,both,ambiguous-switch,108,30,right,left,0.173
HKG2000WRNO,2019-10-29-16-02-03,8,29,0.5477641342823838,left,probe,ambiguous-switch,-1,-10,right,right,0.343
HKG2000WRNO,2019-10-29-16-02-03,8,30,0.5914926224428035,left,both,ambiguous-switch,103,-10,right,right,0.354
HKG2000WRNO,2019-10-29-16-02-03,8,31,0.6887254813113446,left,probe,ambiguous-switch,-1,-5,right,right,0.307
HKG2000WRNO,2019-10-29-16-02-03,8,32,0.5844321338606956,left,both,ambiguous-switch,95,-5,right,right,0.186
HKG2000WRNO,2019-10-29-16-02-03,8,33,0.6777435485565917,left,probe,biased-switch,-1,-30,right,right,0.062
HKG2000WRNO,2019-10-29-16-02-03,8,34,0.6689242568255271,left,both,biased-switch,110,-30,right,right,0.272
HKG2000WRNO,2019-10-29-16-02-03,8,35,0.6102481213029267,right,probe,biased-switch,-1,5,left,left,0.251
HKG2000WRNO,2019-10-29-16-02-03,8,36,0.5526544395791899,right,both,biased-switch,91,5,left,left,0.319
HKG2000WRNO,2019-10-29-16-02-03,8,37,0.6942505793962577,left,probe,biased-switch,-1,-5,right,right,0.277
HKG2000WRNO,2019-10-29-16-02-03,8,38,0.6624285753432606,left,both,biased-switch,98,-5,right,right,0.162
HKG2000WRNO,2019-10-29-16-02-03,8,39,0.6270233675895662,left,probe,biased-switch,-1,10,right,right,0.278
HKG2000WRNO,2019-10-29-16-02-03,8,40,0.5261192102515283,left,both,biased-switch,104,10,right,left,0.331
HKG2000WRNO,2019-10-29-16-02-03,8,41,0.5146882949283956,right,probe,biased-switch,-1,0,left,left,0.321
HKG2000WRNO,2019-10-29-16-02-03,8,42,0.6267192248817521,right,both,biased-switch,107,0,left,left,0.742
HKG2000WRNO,2019-10-29-16-02-03,8,43,0.5638751746037014,right,probe,ambiguous-switch,-1,20,left,left,0.273
HKG2000WRNO,2019-10-29-16-02-03,8,44,0.6683248515820297,right,both,ambiguous-switch,105,20,left,left,0.199
HKG2000WRNO,2019-10-29-16-02-03,8,45,0.5415061381011292,left,probe,biased-switch,-1,40,left,left,0.25
HKG2000WRNO,2019-10-29-16-02-03,8,46,0.5432517339967079,left,both,biased-switch,108,40,left,right,0.264
HKG2000WRNO,2019-10-29-16-02-03,8,47,0.5267363508976969,left,probe,ambiguous-switch,-1,-30,left,left,0.302
HKG2000WRNO,2019-10-29-16-02-03,8,48,0.6806470910331264,left,both,ambiguous-switch,104,-30,left,left,0.224
HKG2000WRNO,2019-10-29-16-02-03,8,49,0.6739142790077842,left,probe,ambiguous-switch,-1,40,left,left,0.175
HKG2000WRNO,2019-10-29-16-02-03,8,50,0.621251628015061,left,both,ambiguous-switch,104,40,left,right,0.103
HKG2000WRNO,2019-10-29-16-02-03,8,51,0.5317467784427165,right,probe,ambiguous-switch,-1,-20,left,left,0.288
HKG2000WRNO,2019-10-29-16-02-03,8,52,0.6809366416788114,right,both,ambiguous-switch,91,-20,left,left,0.102
HKG2000WRNO,2019-10-29-16-02-03,8,53,0.5262515962447674,left,probe,biased-switch,-1,20,left,left,0.286
HKG2000WRNO,2019-10-29-16-02-03,8,54,0.5147368087056785,left,both,biased-switch,108,20,left,right,0.131
HKG2000WRNO,2019-10-29-16-02-03,8,55,0.5827996734862023,left,probe,ambiguous-switch,-1,10,left,left,0.419
HKG2000WRNO,2019-10-29-16-02-03,8,56,0.5277776251142066,left,both,ambiguous-switch,105,10,left,right,0.234
HKG2000WRNO,2019-10-29-16-02-03,8,57,0.633103068719203,right,probe,ambiguous-switch,-1,0,left,left,0.213
HKG2000WRNO,2019-10-29-16-02-03,8,58,0.6998786882229449,right,both,ambiguous-switch,94,0,left,left,0.094
HKG2000WRNO,2019-10-29-16-02-03,8,59,0.5400346125856502,right,probe,biased-switch,-1,30,left,left,0.098
HKG2000WRNO,2019-10-29-16-02-03,8,60,0.6791815000351336,right,both,biased-switch,92,30,left,left,0.059
HKG2000WRNO,2019-10-29-16-02-03,8,61,0.5921078878915288,left,probe,biased-switch,-1,-10,left,left,0.102
HKG2000WRNO,2019-10-29-16-02-03,8,62,0.696527298255008,left,both,biased-switch,93,-10,left,left,0.104
HKG2000WRNO,2019-10-29-16-02-03,8,63,0.5799799314147991,right,probe,biased-switch,-1,-20,left,left,0.046
HKG2000WRNO,2019-10-29-16-02-03,8,64,0.6911257076968629,right,both,biased-switch,106,-20,left,left,0.38
HKG2000WRNO,2019-10-29-16-02-03,8,65,0.6819880294008858,right,probe,ambiguous-switch,-1,5,left,left,0.335
HKG2000WRNO,2019-10-29-16-02-03,8,66,0.5377656900394545,right,both,ambiguous-switch,90,5,left,left,0.254
HKG2000WRNO,2019-10-29-16-02-03,8,67,0.6371429893365704,left,probe,ambiguous-switch,-1,30,left,left,0.272
HKG2000WRNO,2019-10-29-16-02-03,8,68,0.6893829291195714,left,both,ambiguous-switch,104,30,left,left,0.258
HKG2000WRNO,2019-10-29-16-02-03,8,69,0.6079984772685708,left,probe,ambiguous-switch,-1,-10,left,left,1.064
HKG2000WRNO,2019-10-29-16-02-03,8,70,0.6710185766984958,left,both,ambiguous-switch,97,-10,left,left,0.112
HKG2000WRNO,2019-10-29-16-02-03,8,71,0.6822629809630268,right,probe,ambiguous-switch,-1,-5,left,left,0.295
HKG2000WRNO,2019-10-29-16-02-03,8,72,0.5593614771398314,right,both,ambiguous-switch,109,-5,left,left,0.789
HKG2000WRNO,2019-10-29-16-02-03,8,73,0.5192076844146368,left,probe,biased-switch,-1,-30,left,left,0.314
HKG2000WRNO,2019-10-29-16-02-03,8,74,0.5001147748826813,left,both,biased-switch,94,-30,left,left,0.025
HKG2000WRNO,2019-10-29-16-02-03,8,75,0.6368881990942367,right,probe,biased-switch,-1,5,left,left,0.293
HKG2000WRNO,2019-10-29-16-02-03,8,76,0.5844259282276089,right,both,biased-switch,94,5,left,left,0.223
HKG2000WRNO,2019-10-29-16-02-03,8,77,0.5047964612880192,right,probe,biased-switch,-1,-5,left,left,0.319
HKG2000WRNO,2019-10-29-16-02-03,8,78,0.5948755722009,right,both,biased-switch,110,-5,left,left,0.235
HKG2000WRNO,2019-10-29-16-02-03,8,79,0.5590001623305976,right,probe,biased-switch,-1,10,left,left,0.229
HKG2000WRNO,2019-10-29-16-02-03,8,80,0.5587637736723854,right,both,biased-switch,108,10,left,left,0.145
HKG2000WRNO,2019-10-29-16-02-03,9,1,0.5799059921218559,left,probe,biased-switch,-1,-30,left,left,0.291
HKG2000WRNO,2019-10-29-16-02-03,9,2,0.5337819010712456,left,both,biased-switch,102,-30,left,left,0.278
HKG2000WRNO,2019-10-29-16-02-03,9,3,0.6666529215414639,left,probe,ambiguous-switch,-1,10,left,left,0.24
HKG2000WRNO,2019-10-29-16-02-03,9,4,0.5993366703572802,left,both,ambiguous-switch,91,10,left,left,0.221
HKG2000WRNO,2019-10-29-16-02-03,9,5,0.6344947158899108,left,probe,biased-switch,-1,5,left,left,0.272
HKG2000WRNO,2019-10-29-16-02-03,9,6,0.5310059303078432,left,both,biased-switch,108,5,left,right,0.346
HKG2000WRNO,2019-10-29-16-02-03,9,7,0.5360545294507308,right,probe,ambiguous-switch,-1,-5,left,left,0.137
HKG2000WRNO,2019-10-29-16-02-03,9,8,0.6937462909638313,right,both,ambiguous-switch,99,-5,left,left,1.179
HKG2000WRNO,2019-10-29-16-02-03,9,9,0.6024957518409116,right,probe,biased-switch,-1,10,left,left,0.267
HKG2000WRNO,2019-10-29-16-02-03,9,10,0.5194028880757481,right,both,biased-switch,100,10,left,left,0.209
HKG2000WRNO,2019-10-29-16-02-03,9,11,0.5578089363455628,left,probe,ambiguous-switch,-1,40,right,right,0.319
HKG2000WRNO,2019-10-29-16-02-03,9,12,0.5531602517306333,left,both,ambiguous-switch,104,40,right,left,0.044
HKG2000WRNO,2019-10-29-16-02-03,9,13,0.5851245527890245,left,probe,biased-switch,-1,40,left,left,0.025
HKG2000WRNO,2019-10-29-16-02-03,9,14,0.6714510362885222,left,both,biased-switch,103,40,left,right,0.237
HKG2000WRNO,2019-10-29-16-02-03,9,15,0.6159783238132159,right,probe,biased-switch,-1,0,left,left,0.901
HKG2000WRNO,2019-10-29-16-02-03,9,16,0.6792277338604394,right,both,biased-switch,98,0,left,left,0.073
HKG2000WRNO,2019-10-29-16-02-03,9,17,0.6883274223337374,right,probe,biased-switch,-1,-5,left,left,0.049
HKG2000WRNO,2019-10-29-16-02-03,9,18,0.5330875073018032,right,both,biased-switch,107,-5,left,left,0.314
HKG2000WRNO,2019-10-29-16-02-03,9,19,0.5881853658532906,right,probe,ambiguous-switch,-1,20,left,left,0.244
HKG2000WRNO,2019-10-29-16-02-03,9,20,0.6044923299300234,right,both,ambiguous-switch,106,20,left,left,3.153
HKG2000WRNO,2019-10-29-16-02-03,9,21,0.6291202698407645,right,probe,ambiguous-switch,-1,-10,left,left,0.117
HKG2000WRNO,2019-10-29-16-02-03,9,22,0.6648101692966406,right,both,ambiguous-switch,96,-10,left,left,0.276
HKG2000WRNO,2019-10-29-16-02-03,9,23,0.5320401029449711,right,probe,biased-switch,-1,-10,left,left,0.138
HKG2000WRNO,2019-10-29-16-02-03,9,24,0.5746637695417184,right,both,biased-switch,104,-10,left,left,0.18
HKG2000WRNO,2019-10-29-16-02-03,9,25,0.5999446078877417,right,probe,ambiguous-switch,-1,30,left,left,1.834
HKG2000WRNO,2019-10-29-16-02-03,9,26,0.6908519915232083,right,both,ambiguous-switch,97,30,left,left,1.582
HKG2000WRNO,2019-10-29-16-02-03,9,27,0.5790127338434278,left,probe,ambiguous-switch,-1,-30,left,left,0.335
HKG2000WRNO,2019-10-29-16-02-03,9,28,0.6903647492666898,left,both,ambiguous-switch,100,-30,left,right,0.213
HKG2000WRNO,2019-10-29-16-02-03,9,29,0.5240875758262387,left,probe,ambiguous-switch,-1,5,right,right,0.239
HKG2000WRNO,2019-10-29-16-02-03,9,30,0.6237472947860951,left,both,ambiguous-switch,90,5,right,left,0.025
HKG2000WRNO,2019-10-29-16-02-03,9,31,0.5284591067097452,right,probe,ambiguous-switch,-1,0,left,left,0.213
HKG2000WRNO,2019-10-29-16-02-03,9,32,0.5353577235312506,right,both,ambiguous-switch,104,0,left,left,0.153
HKG2000WRNO,2019-10-29-16-02-03,9,33,0.5478075079476935,left,probe,biased-switch,-1,30,right,right,0.261
HKG2000WRNO,2019-10-29-16-02-03,9,34,0.6575981753460844,left,both,biased-switch,109,30,right,right,0.192
HKG2000WRNO,2019-10-29-16-02-03,9,35,0.5720060800497071,left,probe,biased-switch,-1,-20,right,right,0.204
HKG2000WRNO,2019-10-29-16-02-03,9,36,0.5694017281042011,left,both,biased-switch,105,-20,right,right,0.322
HKG2000WRNO,2019-10-29-16-02-03,9,37,0.6320442989571885,right,probe,biased-switch,-1,20,left,left,0.239
HKG2000WRNO,2019-10-29-16-02-03,9,38,0.6224098746848494,right,both,biased-switch,93,20,left,left,0.112
HKG2000WRNO,2019-10-29-16-02-03,9,39,0.6997065113736552,right,probe,ambiguous-switch,-1,-20,left,left,0.397
HKG2000WRNO,2019-10-29-16-02-03,9,40,0.6960203870186047,right,both,ambiguous-switch,103,-20,left,left,0.877
HKG2000WRNO,2019-10-29-16-02-03,9,41,0.5673758948828764,right,probe,biased-switch,-1,-30,left,left,0.123
HKG2000WRNO,2019-10-29-16-02-03,9,42,0.6708290037391462,right,both,biased-switch,100,-30,left,left,0.403
HKG2000WRNO,2019-10-29-16-02-03,9,43,0.6199874110096358,left,probe,ambiguous-switch,-1,10,right,right,0.357
HKG2000WRNO,2019-10-29-16-02-03,9,44,0.621304993309253,left,both,ambiguous-switch,98,10,right,right,0.263
HKG2000WRNO,2019-10-29-16-02-03,9,45,0.6049551348582177,left,probe,biased-switch,-1,5,right,right,0.174
HKG2000WRNO,2019-10-29-16-02-03,9,46,0.5159216802850322,left,both,biased-switch,101,5,right,left,0.065
HKG2000WRNO,2019-10-29-16-02-03,9,47,0.5660689752864284,right,probe,ambiguous-switch,-1,-5,left,left,0.064
HKG2000WRNO,2019-10-29-16-02-03,9,48,0.647460872483415,right,both,ambiguous-switch,109,-5,left,left,0.31
HKG2000WRNO,2019-10-29-16-02-03,9,49,0.5713809872177442,left,probe,biased-switch,-1,10,left,left,0.222
HKG2000WRNO,2019-10-29-16-02-03,9,50,0.5685314207444871,left,both,biased-switch,102,10,left,right,0.136
HKG2000WRNO,2019-10-29-16-02-03,9,51,0.5599963854031772,left,probe,ambiguous-switch,-1,40,right,right,0.209
HKG2000WRNO,2019-10-29-16-02-03,9,52,0.6917848831162501,left,both,ambiguous-switch,94,40,right,right,0.078
HKG2000WRNO,2019-10-29-16-02-03,9,53,0.5197453322713361,right,probe,biased-switch,-1,40,left,left,0.19
HKG2000WRNO,2019-10-29-16-02-03,9,54,0.6179484454780648,right,both,biased-switch,97,40,left,left,0.057
HKG2000WRNO,2019-10-29-16-02-03,9,55,0.537062072584616,left,probe,biased-switch,-1,0,right,right,1.205
HKG2000WRNO,2019-10-29-16-02-03,9,56,0.6077229767911062,left,both,biased-switch,100,0,right,left,0.258
HKG2000WRNO,2019-10-29-16-02-03,9,57,0.618780026763731,right,probe,biased-switch,-1,-5,left,left,0.281
HKG2000WRNO,2019-10-29-16-02-03,9,58,0.5183045224378492,right,both,biased-switch,102,-5,left,left,0.162
HKG2000WRNO,2019-10-29-16-02-03,9,59,0.5683267793968059,right,probe,ambiguous-switch,-1,20,left,left,1.07
HKG2000WRNO,2019-10-29-16-02-03,9,60,0.5255557252960906,right,both,ambiguous-switch,103,20,left,left,0.21
HKG2000WRNO,2019-10-29-16-02-03,9,61,0.5053169173930284,left,probe,ambiguous-switch,-1,-10,right,right,0.326
HKG2000WRNO,2019-10-29-16-02-03,9,62,0.699017513309063,left,both,ambiguous-switch,93,-10,right,left,0.191
HKG2000WRNO,2019-10-29-16-02-03,9,63,0.6168927559709242,right,probe,biased-switch,-1,-10,left,left,0.232
HKG2000WRNO,2019-10-29-16-02-03,9,64,0.5529361554756644,right,both,biased-switch,103,-10,left,left,0.223
HKG2000WRNO,2019-10-29-16-02-03,9,65,0.6879521524905203,left,probe,ambiguous-switch,-1,30,left,left,0.361
HKG2000WRNO,2019-10-29-16-02-03,9,66,0.5772713634328548,left,both,ambiguous-switch,92,30,left,right,0.967
HKG2000WRNO,2019-10-29-16-02-03,9,67,0.6192295488221119,left,probe,ambiguous-switch,-1,-30,right,right,0.247
HKG2000WRNO,2019-10-29-16-02-03,9,68,0.5203179148645822,left,both,ambiguous-switch,109,-30,right,right,0.259
HKG2000WRNO,2019-10-29-16-02-03,9,69,0.5390868113652294,left,probe,ambiguous-switch,-1,5,left,left,0.472
HKG2000WRNO,2019-10-29-16-02-03,9,70,0.6093398944423105,left,both,ambiguous-switch,108,5,left,right,0.039
HKG2000WRNO,2019-10-29-16-02-03,9,71,0.6940749574236824,left,probe,ambiguous-switch,-1,0,right,right,0.098
HKG2000WRNO,2019-10-29-16-02-03,9,72,0.6950581381622885,left,both,ambiguous-switch,106,0,right,right,0.196
HKG2000WRNO,2019-10-29-16-02-03,9,73,0.514078636541289,left,probe,biased-switch,-1,30,right,right,0.218
HKG2000WRNO,2019-10-29-16-02-03,9,74,0.6929566918020957,left,both,biased-switch,92,30,right,right,0.331
HKG2000WRNO,2019-10-29-16-02-03,9,75,0.524142085542942,left,probe,biased-switch,-1,-20,right,right,0.066
HKG2000WRNO,2019-10-29-16-02-03,9,76,0.5404666400789415,left,both,biased-switch,102,-20,right,right,0.803
HKG2000WRNO,2019-10-29-16-02-03,9,77,0.5329112288231114,right,probe,biased-switch,-1,20,right,right,0.246
HKG2000WRNO,2019-10-29-16-02-03,9,78,0.5281120362278984,right,both,biased-switch,92,20,right,left,0.139
HKG2000WRNO,2019-10-29-16-02-03,9,79,0.5296730337631269,left,probe,ambiguous-switch,-1,-20,right,right,0.105
HKG2000WRNO,2019-10-29-16-02-03,9,80,0.608842650186072,left,both,ambiguous-switch,95,-20,right,right,1.323
HKG2000WRNO,2019-10-29-16-02-03,10,1,0.6615434294866791,left,probe,ambiguous-switch,-1,-10,right,right,0.32
HKG2000WRNO,2019-10-29-16-02-03,10,2,0.5898244611539304,left,both,ambiguous-switch,110,-10,right,right,0.367
HKG2000WRNO,2019-10-29-16-02-03,10,3,0.6464247968041295,left,probe,ambiguous-switch,-1,20,right,right,0.248
HKG2000WRNO,2019-10-29-16-02-03,10,4,0.5738668723734122,left,both,ambiguous-switch,94,20,right,left,0.226
HKG2000WRNO,2019-10-29-16-02-03,10,5,0.5515925993003262,left,probe,ambiguous-switch,-1,40,right,right,0.302
HKG2000WRNO,2019-10-29-16-02-03,10,6,0.6843432111158964,left,both,ambiguous-switch,97,40,right,right,0.155
HKG2000WRNO,2019-10-29-16-02-03,10,7,0.6029723509629964,right,probe,biased-switch,-1,-30,right,right,0.216
HKG2000WRNO,2019-10-29-16-02-03,10,8,0.6043527694884705,right,both,biased-switch,103,-30,right,right,1.184
HKG2000WRNO,2019-10-29-16-02-03,10,9,0.5703039620109657,right,probe,biased-switch,-1,5,right,right,0.409
HKG2000WRNO,2019-10-29-16-02-03,10,10,0.5343956124574795,right,both,biased-switch,95,5,right,right,0.273
HKG2000WRNO,2019-10-29-16-02-03,10,11,0.5208080575778121,left,probe,ambiguous-switch,-1,-30,right,right,0.309
HKG2000WRNO,2019-10-29-16-02-03,10,12,0.5121279940320118,left,both,ambiguous-switch,92,-30,right,right,0.161
HKG2000WRNO,2019-10-29-16-02-03,10,13,0.6384356962263783,right,probe,ambiguous-switch,-1,30,right,right,0.242
HKG2000WRNO,2019-10-29-16-02-03,10,14,0.516125211111374,right,both,ambiguous-switch,90,30,right,right,0.664
HKG2000WRNO,2019-10-29-16-02-03,10,15,0.5093023379101375,right,probe,biased-switch,-1,30,right,right,0.284
HKG2000WRNO,2019-10-29-16-02-03,10,16,0.5546404899176032,right,both,biased-switch,100,30,right,right,0.129
HKG2000WRNO,2019-10-29-16-02-03,10,17,0.6409204421901098,left,probe,biased-switch,-1,-10,right,right,0.164
HKG2000WRNO,2019-10-29-16-02-03,10,18,0.648239599297799,left,both,biased-switch,107,-10,right,right,2.401
HKG2000WRNO,2019-10-29-16-02-03,10,19,0.5017075158352523,left,probe,ambiguous-switch,-1,0,right,right,0.269
HKG2000WRNO,2019-10-29-16-02-03,10,20,0.5325216789431099,left,both,ambiguous-switch,103,0,right,right,0.013
HKG2000WRNO,2019-10-29-16-02-03,10,21,0.6958805358217963,left,probe,biased-switch,-1,-20,right,right,1.289
HKG2000WRNO,2019-10-29-16-02-03,10,22,0.6336202597706575,left,both,biased-switch,94,-20,right,right,0.129
HKG2000WRNO,2019-10-29-16-02-03,10,23,0.6826752087601203,right,probe,ambiguous-switch,-1,-5,right,right,1.871
HKG2000WRNO,2019-10-29-16-02-03,10,24,0.5709429460907363,right,both,ambiguous-switch,109,-5,right,right,0.283
HKG2000WRNO,2019-10-29-16-02-03,10,25,0.6393236644424126,left,probe,ambiguous-switch,-1,5,right,right,0.402
HKG2000WRNO,2019-10-29-16-02-03,10,26,0.5359131650749723,left,both,ambiguous-switch,91,5,right,right,0.833
HKG2000WRNO,2019-10-29-16-02-03,10,27,0.5126924067746608,right,probe,biased-switch,-1,20,right,right,1.507
HKG2000WRNO,2019-10-29-16-02-03,10,28,0.5051015806826628,right,both,biased-switch,109,20,right,right,0.284
HKG2000WRNO,2019-10-29-16-02-03,10,29,0.6703926652957609,right,probe,biased-switch,-1,-5,right,right,0.311
HKG2000WRNO,2019-10-29-16-02-03,10,30,0.5701368589717221,right,both,biased-switch,103,-5,right,right,0.053
HKG2000WRNO,2019-10-29-16-02-03,10,31,0.5621713025437669,left,probe,ambiguous-switch,-1,-20,right,right,0.32
HKG2000WRNO,2019-10-29-16-02-03,10,32,0.6095719302342701,left,both,ambiguous-switch,97,-20,right,right,1.037
HKG2000WRNO,2019-10-29-16-02-03,10,33,0.555108827819422,left,probe,biased-switch,-1,0,right,right,0.231
HKG2000WRNO,2019-10-29-16-02-03,10,34,0.5803449605253916,left,both,biased-switch,95,0,right,right,0.258
HKG2000WRNO,2019-10-29-16-02-03,10,35,0.5418882466208808,left,probe,ambiguous-switch,-1,10,right,right,0.124
HKG2000WRNO,2019-10-29-16-02-03,10,36,0.6618136620320313,left,both,ambiguous-switch,105,10,right,right,1.303
HKG2000WRNO,2019-10-29-16-02-03,10,37,0.5633167784042241,right,probe,biased-switch,-1,40,right,right,0.212
HKG2000WRNO,2019-10-29-16-02-03,10,38,0.6241907229892689,right,both,biased-switch,102,40,right,right,0.123
HKG2000WRNO,2019-10-29-16-02-03,10,39,0.688553099360377,right,probe,biased-switch,-1,10,right,right,0.154
HKG2000WRNO,2019-10-29-16-02-03,10,40,0.6268459712601897,right,both,biased-switch,110,10,right,right,0.203
HKG2000WRNO,2019-10-29-16-02-03,10,41,0.5691438071194518,right,probe,ambiguous-switch,-1,-10,right,right,0.328
HKG2000WRNO,2019-10-29-16-02-03,10,42,0.6518260440953276,right,both,ambiguous-switch,92,-10,right,right,0.133
HKG2000WRNO,2019-10-29-16-02-03,10,43,0.6757948005980108,right,probe,ambiguous-switch,-1,20,right,right,0.293
HKG2000WRNO,2019-10-29-16-02-03,10,44,0.5277645483602625,right,both,ambiguous-switch,104,20,right,right,1.316
HKG2000WRNO,2019-10-29-16-02-03,10,45,0.6260913642593584,right,probe,ambiguous-switch,-1,40,right,right,0.187
HKG2000WRNO,2019-10-29-16-02-03,10,46,0.6331232291033997,right,both,ambiguous-switch,109,40,right,right,0.592
HKG2000WRNO,2019-10-29-16-02-03,10,47,0.6982286816743403,left,probe,biased-switch,-1,-30,right,right,0.215
HKG2000WRNO,2019-10-29-16-02-03,10,48,0.6243532027217006,left,both,biased-switch,93,-30,right,right,0.387
HKG2000WRNO,2019-10-29-16-02-03,10,49,0.6673316664188346,right,probe,biased-switch,-1,5,right,right,0.313
HKG2000WRNO,2019-10-29-16-02-03,10,50,0.6479692343578894,right,both,biased-switch,108,5,right,left,0.062
HKG2000WRNO,2019-10-29-16-02-03,10,51,0.5067970102918558,right,probe,ambiguous-switch,-1,-30,right,right,0.219
HKG2000WRNO,2019-10-29-16-02-03,10,52,0.6956484677593822,right,both,ambiguous-switch,109,-30,right,right,0.191
HKG2000WRNO,2019-10-29-16-02-03,10,53,0.504160633917569,right,probe,ambiguous-switch,-1,30,right,right,0.254
HKG2000WRNO,2019-10-29-16-02-03,10,54,0.6396684219963246,right,both,ambiguous-switch,107,30,right,right,0.179
HKG2000WRNO,2019-10-29-16-02-03,10,55,0.5323026634698688,right,probe,biased-switch,-1,30,right,right,0.108
HKG2000WRNO,2019-10-29-16-02-03,10,56,0.5278334100981765,right,both,biased-switch,103,30,right,right,0.303
HKG2000WRNO,2019-10-29-16-02-03,10,57,0.5718271594646731,left,probe,biased-switch,-1,-10,right,right,0.164
HKG2000WRNO,2019-10-29-16-02-03,10,58,0.6541784252632392,left,both,biased-switch,104,-10,right,right,0.289
HKG2000WRNO,2019-10-29-16-02-03,10,59,0.5178492583491267,left,probe,ambiguous-switch,-1,0,right,right,0.254
HKG2000WRNO,2019-10-29-16-02-03,10,60,0.6960287049456119,left,both,ambiguous-switch,97,0,right,right,0.408
HKG2000WRNO,2019-10-29-16-02-03,10,61,0.5901793691369773,right,probe,biased-switch,-1,-20,right,right,0.268
HKG2000WRNO,2019-10-29-16-02-03,10,62,0.5925633929532049,right,both,biased-switch,102,-20,right,left,0.361
HKG2000WRNO,2019-10-29-16-02-03,10,63,0.5661495848243956,left,probe,ambiguous-switch,-1,-5,right,right,0.208
HKG2000WRNO,2019-10-29-16-02-03,10,64,0.6436617508326956,left,both,ambiguous-switch,101,-5,right,right,0.31
HKG2000WRNO,2019-10-29-16-02-03,10,65,0.6703162405224303,left,probe,ambiguous-switch,-1,5,right,right,0.24
HKG2000WRNO,2019-10-29-16-02-03,10,66,0.5465173113168427,left,both,ambiguous-switch,107,5,right,right,0.061
HKG2000WRNO,2019-10-29-16-02-03,10,67,0.6047424409485989,left,probe,biased-switch,-1,20,right,right,0.109
HKG2000WRNO,2019-10-29-16-02-03,10,68,0.6727420044001541,left,both,biased-switch,93,20,right,right,2.954
HKG2000WRNO,2019-10-29-16-02-03,10,69,0.5782364708762305,right,probe,biased-switch,-1,-5,right,right,0.192
HKG2000WRNO,2019-10-29-16-02-03,10,70,0.519510464402192,right,both,biased-switch,101,-5,right,left,0.123
HKG2000WRNO,2019-10-29-16-02-03,10,71,0.5552758951176072,left,probe,ambiguous-switch,-1,-20,right,right,0.073
HKG2000WRNO,2019-10-29-16-02-03,10,72,0.59683051892353,left,both,ambiguous-switch,106,-20,right,right,0.133
HKG2000WRNO,2019-10-29-16-02-03,10,73,0.6419708802350135,right,probe,biased-switch,-1,0,right,right,0.195
HKG2000WRNO,2019-10-29-16-02-03,10,74,0.5472537223942384,right,both,biased-switch,109,0,right,left,0.03
HKG2000WRNO,2019-10-29-16-02-03,10,75,0.6713646821023408,right,probe,ambiguous-switch,-1,10,right,right,1.034
HKG2000WRNO,2019-10-29-16-02-03,10,76,0.5068402661766844,right,both,ambiguous-switch,107,10,right,left,0.093
HKG2000WRNO,2019-10-29-16-02-03,10,77,0.6865746354457826,left,probe,biased-switch,-1,40,right,right,0.169
HKG2000WRNO,2019-10-29-16-02-03,10,78,0.6664822641812339,left,both,biased-switch,101,40,right,right,0.092
HKG2000WRNO,2019-10-29-16-02-03,10,79,0.671631589247252,left,probe,biased-switch,-1,10,right,right,1.209
HKG2000WRNO,2019-10-29-16-02-03,10,80,0.6704866866200992,left,both,biased-switch,91,10,right,left,0.087
