Participant,Session,Block,Trial,OnsetDelay,ProbeLocation,WhatIsReported,Condition,TriggerTime,ProbeSOA,PrimeDirection,Response,RT
SAM1990WRNO,2020-01-21-12-04-44,1,1,0.5392472562897315,right,probe,biased-switch,-1,-18,right,right,1.285
SAM1990WRNO,2020-01-21-12-04-44,1,2,0.6803401312375487,right,both,biased-switch,59,-18,right,right,0.773
SAM1990WRNO,2020-01-21-12-04-44,1,3,0.6041662694410592,right,probe,ambiguous-stable,-1,0,right,right,0.815
SAM1990WRNO,2020-01-21-12-04-44,1,4,0.5201579139273071,right,both,ambiguous-stable,56,0,left,right,0.732
SAM1990WRNO,2020-01-21-12-04-44,1,5,0.6268492914120862,right,probe,ambiguous-switch,-1,-12,right,right,1.039
SAM1990WRNO,2020-01-21-12-04-44,1,6,0.5155501110692152,right,both,ambiguous-switch,64,-12,right,right,0.449
SAM1990WRNO,2020-01-21-12-04-44,1,7,0.6072371582756118,left,probe,ambiguous-switch,-1,3,left,left,0.962
SAM1990WRNO,2020-01-21-12-04-44,1,8,0.6524109268265295,left,both,ambiguous-switch,61,3,left,left,0.346
SAM1990WRNO,2020-01-21-12-04-44,1,9,0.6367194782390044,right,probe,ambiguous-stable,-1,-12,right,right,0.92
SAM1990WRNO,2020-01-21-12-04-44,1,10,0.638017705827103,right,both,ambiguous-stable,55,-12,left,right,0.219
SAM1990WRNO,2020-01-21-12-04-44,1,11,0.6662914712658188,right,probe,biased-switch,-1,24,right,right,0.756
SAM1990WRNO,2020-01-21-12-04-44,1,12,0.5177488934580249,right,both,biased-switch,56,24,right,right,0.465
SAM1990WRNO,2020-01-21-12-04-44,1,13,0.5792998263500163,right,probe,ambiguous-stable,-1,-6,right,right,0.67
SAM1990WRNO,2020-01-21-12-04-44,1,14,0.6315691803094959,right,both,ambiguous-stable,63,-6,left,right,0.408
SAM1990WRNO,2020-01-21-12-04-44,1,15,0.6094549824910057,right,probe,biased-switch,-1,6,right,right,0.653
SAM1990WRNO,2020-01-21-12-04-44,1,16,0.65082285755772,right,both,biased-switch,66,6,right,right,0.303
SAM1990WRNO,2020-01-21-12-04-44,1,17,0.5558141311040548,right,probe,ambiguous-switch,-1,18,right,right,0.507
SAM1990WRNO,2020-01-21-12-04-44,1,18,0.5971468886612673,right,both,ambiguous-switch,63,18,right,right,0.256
SAM1990WRNO,2020-01-21-12-04-44,1,19,0.5679498723454097,left,probe,biased-switch,-1,3,left,left,0.709
SAM1990WRNO,2020-01-21-12-04-44,1,20,0.6129402295993768,left,both,biased-switch,65,3,left,left,0.319
SAM1990WRNO,2020-01-21-12-04-44,1,21,0.6892756574918621,left,probe,biased-switch,-1,-3,left,left,0.719
SAM1990WRNO,2020-01-21-12-04-44,1,22,0.6230517581743749,left,both,biased-switch,63,-3,left,left,0.251
SAM1990WRNO,2020-01-21-12-04-44,1,23,0.6341797431244237,right,probe,ambiguous-stable,-1,3,right,right,0.475
SAM1990WRNO,2020-01-21-12-04-44,1,24,0.5981268498827427,right,both,ambiguous-stable,55,3,left,right,0.244
SAM1990WRNO,2020-01-21-12-04-44,1,25,0.5652810347556517,right,probe,biased-switch,-1,0,right,right,0.473
SAM1990WRNO,2020-01-21-12-04-44,1,26,0.6619466674274118,right,both,biased-switch,66,0,right,right,0.306
SAM1990WRNO,2020-01-21-12-04-44,1,27,0.6290444842943369,left,probe,ambiguous-stable,-1,-18,left,left,0.532
SAM1990WRNO,2020-01-21-12-04-44,1,28,0.5894267982528755,left,both,ambiguous-stable,57,-18,right,left,0.38
SAM1990WRNO,2020-01-21-12-04-44,1,29,0.5330917342278872,left,probe,ambiguous-switch,-1,-6,left,left,0.661
SAM1990WRNO,2020-01-21-12-04-44,1,30,0.6380161356808296,left,both,ambiguous-switch,61,-6,left,left,0.257
SAM1990WRNO,2020-01-21-12-04-44,1,31,0.5804835237711649,right,probe,biased-switch,-1,12,right,right,0.674
SAM1990WRNO,2020-01-21-12-04-44,1,32,0.5850980149277367,right,both,biased-switch,58,12,right,right,0.327
SAM1990WRNO,2020-01-21-12-04-44,1,33,0.6115121066056989,right,probe,ambiguous-switch,-1,-3,right,right,0.629
SAM1990WRNO,2020-01-21-12-04-44,1,34,0.6681147113552816,right,both,ambiguous-switch,58,-3,right,right,0.223
SAM1990WRNO,2020-01-21-12-04-44,1,35,0.6150379880347584,right,probe,biased-switch,-1,18,right,right,0.515
SAM1990WRNO,2020-01-21-12-04-44,1,36,0.5699856732305557,right,both,biased-switch,61,18,right,right,0.81
SAM1990WRNO,2020-01-21-12-04-44,1,37,0.594080443840853,left,probe,biased-switch,-1,-12,left,left,0.762
SAM1990WRNO,2020-01-21-12-04-44,1,38,0.52683081259655,left,both,biased-switch,54,-12,left,left,0.293
SAM1990WRNO,2020-01-21-12-04-44,1,39,0.5230188237547168,right,probe,biased-switch,-1,-6,right,right,0.677
SAM1990WRNO,2020-01-21-12-04-44,1,40,0.6653168299039849,right,both,biased-switch,54,-6,right,right,0.359
SAM1990WRNO,2020-01-21-12-04-44,1,41,0.5577294020706964,left,probe,ambiguous-stable,-1,24,left,left,0.654
SAM1990WRNO,2020-01-21-12-04-44,1,42,0.6730380475530846,left,both,ambiguous-stable,66,24,right,left,0.273
SAM1990WRNO,2020-01-21-12-04-44,1,43,0.5846446049476348,left,probe,ambiguous-switch,-1,-18,left,left,0.446
SAM1990WRNO,2020-01-21-12-04-44,1,44,0.5411996968911948,left,both,ambiguous-switch,57,-18,left,left,0.274
SAM1990WRNO,2020-01-21-12-04-44,1,45,0.643227393011138,right,probe,ambiguous-stable,-1,6,right,right,0.596
SAM1990WRNO,2020-01-21-12-04-44,1,46,0.5089063190586081,right,both,ambiguous-stable,59,6,left,right,0.468
SAM1990WRNO,2020-01-21-12-04-44,1,47,0.6588798893116924,left,probe,ambiguous-switch,-1,24,left,left,0.652
SAM1990WRNO,2020-01-21-12-04-44,1,48,0.5589014798706466,left,both,ambiguous-switch,65,24,left,left,0.319
SAM1990WRNO,2020-01-21-12-04-44,1,49,0.6857205772993215,left,probe,ambiguous-switch,-1,0,left,left,0.615
SAM1990WRNO,2020-01-21-12-04-44,1,50,0.6234912692450519,left,both,ambiguous-switch,56,0,left,left,0.396
SAM1990WRNO,2020-01-21-12-04-44,1,51,0.5000274188629794,left,probe,ambiguous-stable,-1,12,left,left,0.428
SAM1990WRNO,2020-01-21-12-04-44,1,52,0.5391374963054001,left,both,ambiguous-stable,61,12,right,left,0.221
SAM1990WRNO,2020-01-21-12-04-44,1,53,0.5212753950440109,right,probe,ambiguous-switch,-1,12,right,right,0.324
SAM1990WRNO,2020-01-21-12-04-44,1,54,0.5730410878911057,right,both,ambiguous-switch,65,12,right,right,0.297
SAM1990WRNO,2020-01-21-12-04-44,1,55,0.6629238439745957,left,probe,ambiguous-stable,-1,-3,left,left,0.655
SAM1990WRNO,2020-01-21-12-04-44,1,56,0.5192757868020904,left,both,ambiguous-stable,59,-3,right,left,0.241
SAM1990WRNO,2020-01-21-12-04-44,1,57,0.598794111780212,right,probe,ambiguous-switch,-1,6,right,right,0.363
SAM1990WRNO,2020-01-21-12-04-44,1,58,0.5681876573607679,right,both,ambiguous-switch,55,6,right,right,0.21
SAM1990WRNO,2020-01-21-12-04-44,1,59,0.6388032840373996,right,probe,ambiguous-stable,-1,18,right,right,0.452
SAM1990WRNO,2020-01-21-12-04-44,1,60,0.6011574607109873,right,both,ambiguous-stable,65,18,left,right,0.311
SAM1990WRNO,2020-01-21-12-04-44,2,1,0.6117478160559617,left,probe,biased-switch,-1,-18,left,left,0.38
SAM1990WRNO,2020-01-21-12-04-44,2,2,0.5197001726284638,left,both,biased-switch,57,-18,left,left,0.347
SAM1990WRNO,2020-01-21-12-04-44,2,3,0.5677038428806424,right,probe,ambiguous-stable,-1,-12,right,right,0.403
SAM1990WRNO,2020-01-21-12-04-44,2,4,0.6165898417146544,right,both,ambiguous-stable,56,-12,left,right,0.225
SAM1990WRNO,2020-01-21-12-04-44,2,5,0.6089976128204156,right,probe,biased-switch,-1,18,right,right,0.429
SAM1990WRNO,2020-01-21-12-04-44,2,6,0.6262472300944925,right,both,biased-switch,65,18,right,right,0.522
SAM1990WRNO,2020-01-21-12-04-44,2,7,0.6751291886357508,left,probe,ambiguous-stable,-1,-3,left,left,0.714
SAM1990WRNO,2020-01-21-12-04-44,2,8,0.6038067968061686,left,both,ambiguous-stable,63,-3,right,left,0.472
SAM1990WRNO,2020-01-21-12-04-44,2,9,0.5723883549331409,right,probe,biased-switch,-1,24,right,right,0.671
SAM1990WRNO,2020-01-21-12-04-44,2,10,0.5604705817726999,right,both,biased-switch,58,24,right,right,0.453
SAM1990WRNO,2020-01-21-12-04-44,2,11,0.6103552218984549,left,probe,ambiguous-switch,-1,18,left,left,0.47
SAM1990WRNO,2020-01-21-12-04-44,2,12,0.6813531135155568,left,both,ambiguous-switch,64,18,left,left,0.288
SAM1990WRNO,2020-01-21-12-04-44,2,13,0.6062112929969141,left,probe,ambiguous-stable,-1,-18,left,left,0.471
SAM1990WRNO,2020-01-21-12-04-44,2,14,0.5834503603176454,left,both,ambiguous-stable,56,-18,right,left,0.391
SAM1990WRNO,2020-01-21-12-04-44,2,15,0.5391662774659468,right,probe,ambiguous-switch,-1,-3,right,right,0.41
SAM1990WRNO,2020-01-21-12-04-44,2,16,0.6532682753952359,right,both,ambiguous-switch,58,-3,right,right,0.29
SAM1990WRNO,2020-01-21-12-04-44,2,17,0.6083053569147915,right,probe,biased-switch,-1,3,right,right,0.38
SAM1990WRNO,2020-01-21-12-04-44,2,18,0.5163672071365738,right,both,biased-switch,56,3,right,right,0.3
SAM1990WRNO,2020-01-21-12-04-44,2,19,0.6148517339453957,left,probe,ambiguous-stable,-1,6,left,left,0.398
SAM1990WRNO,2020-01-21-12-04-44,2,20,0.5546095162046084,left,both,ambiguous-stable,58,6,right,left,0.24
SAM1990WRNO,2020-01-21-12-04-44,2,21,0.6527406334976046,right,probe,ambiguous-switch,-1,6,right,right,0.421
SAM1990WRNO,2020-01-21-12-04-44,2,22,0.6528568264435644,right,both,ambiguous-switch,65,6,right,right,0.291
SAM1990WRNO,2020-01-21-12-04-44,2,23,0.5965965043511522,right,probe,ambiguous-switch,-1,12,right,right,0.441
SAM1990WRNO,2020-01-21-12-04-44,2,24,0.622487873246458,right,both,ambiguous-switch,59,12,right,right,0.343
SAM1990WRNO,2020-01-21-12-04-44,2,25,0.5726346095647874,right,probe,ambiguous-stable,-1,-6,right,right,0.477
SAM1990WRNO,2020-01-21-12-04-44,2,26,0.6208757855863208,right,both,ambiguous-stable,63,-6,left,right,0.283
SAM1990WRNO,2020-01-21-12-04-44,2,27,0.5827970505863258,left,probe,ambiguous-stable,-1,3,left,left,0.256
SAM1990WRNO,2020-01-21-12-04-44,2,28,0.6079534523018536,left,both,ambiguous-stable,58,3,right,left,0.252
SAM1990WRNO,2020-01-21-12-04-44,2,29,0.6191757532367886,left,probe,ambiguous-stable,-1,24,left,left,0.395
SAM1990WRNO,2020-01-21-12-04-44,2,30,0.5991998717856851,left,both,ambiguous-stable,61,24,right,left,0.382
SAM1990WRNO,2020-01-21-12-04-44,2,31,0.6684472604009128,right,probe,biased-switch,-1,6,right,right,0.286
SAM1990WRNO,2020-01-21-12-04-44,2,32,0.5974229483914127,right,both,biased-switch,62,6,right,right,0.1
SAM1990WRNO,2020-01-21-12-04-44,2,33,0.5033886169788898,left,probe,ambiguous-stable,-1,0,left,left,0.333
SAM1990WRNO,2020-01-21-12-04-44,2,34,0.6938599557904079,left,both,ambiguous-stable,63,0,right,left,0.267
SAM1990WRNO,2020-01-21-12-04-44,2,35,0.5189007263034204,left,probe,ambiguous-switch,-1,3,left,left,0.435
SAM1990WRNO,2020-01-21-12-04-44,2,36,0.6668218842997838,left,both,ambiguous-switch,61,3,left,left,0.251
SAM1990WRNO,2020-01-21-12-04-44,2,37,0.5265586041571432,right,probe,ambiguous-switch,-1,0,right,right,0.373
SAM1990WRNO,2020-01-21-12-04-44,2,38,0.6151842619346622,right,both,ambiguous-switch,61,0,right,right,0.367
SAM1990WRNO,2020-01-21-12-04-44,2,39,0.5440494466723611,left,probe,ambiguous-stable,-1,18,left,left,0.423
SAM1990WRNO,2020-01-21-12-04-44,2,40,0.6498224523268524,left,both,ambiguous-stable,65,18,right,left,0.336
SAM1990WRNO,2020-01-21-12-04-44,2,41,0.6245386522643053,left,probe,ambiguous-switch,-1,-12,left,left,0.417
SAM1990WRNO,2020-01-21-12-04-44,2,42,0.6749151037089443,left,both,ambiguous-switch,63,-12,left,left,0.441
SAM1990WRNO,2020-01-21-12-04-44,2,43,0.6207740077054436,right,probe,ambiguous-switch,-1,-18,right,right,0.415
SAM1990WRNO,2020-01-21-12-04-44,2,44,0.6229258860792175,right,both,ambiguous-switch,64,-18,right,right,0.344
SAM1990WRNO,2020-01-21-12-04-44,2,45,0.6044784461090315,right,probe,ambiguous-switch,-1,-6,right,right,0.419
SAM1990WRNO,2020-01-21-12-04-44,2,46,0.5902038773669719,right,both,ambiguous-switch,61,-6,right,right,0.198
SAM1990WRNO,2020-01-21-12-04-44,2,47,0.5811601757329694,right,probe,ambiguous-switch,-1,24,right,right,0.322
SAM1990WRNO,2020-01-21-12-04-44,2,48,0.5932611991023325,right,both,ambiguous-switch,62,24,right,right,0.366
SAM1990WRNO,2020-01-21-12-04-44,2,49,0.5666312472637686,left,probe,biased-switch,-1,-12,left,left,0.49
SAM1990WRNO,2020-01-21-12-04-44,2,50,0.5457807807856776,left,both,biased-switch,61,-12,left,left,0.374
SAM1990WRNO,2020-01-21-12-04-44,2,51,0.5157432034665086,left,probe,biased-switch,-1,-3,left,left,0.406
SAM1990WRNO,2020-01-21-12-04-44,2,52,0.5292538353978106,left,both,biased-switch,60,-3,left,left,0.276
SAM1990WRNO,2020-01-21-12-04-44,2,53,0.5060398444559017,right,probe,biased-switch,-1,12,right,right,0.369
SAM1990WRNO,2020-01-21-12-04-44,2,54,0.6332451699141676,right,both,biased-switch,62,12,right,right,0.373
SAM1990WRNO,2020-01-21-12-04-44,2,55,0.6400863141730029,left,probe,ambiguous-stable,-1,12,left,left,0.436
SAM1990WRNO,2020-01-21-12-04-44,2,56,0.6201027572028188,left,both,ambiguous-stable,61,12,right,left,0.361
SAM1990WRNO,2020-01-21-12-04-44,2,57,0.6460438399551204,left,probe,biased-switch,-1,0,left,left,0.575
SAM1990WRNO,2020-01-21-12-04-44,2,58,0.6237012241691657,left,both,biased-switch,61,0,left,left,0.237
SAM1990WRNO,2020-01-21-12-04-44,2,59,0.5277111555839701,right,probe,biased-switch,-1,-6,right,right,0.378
SAM1990WRNO,2020-01-21-12-04-44,2,60,0.6198999085251573,right,both,biased-switch,57,-6,right,right,0.253
SAM1990WRNO,2020-01-21-12-04-44,3,1,0.6977737200197274,right,probe,biased-switch,-1,-6,right,right,0.351
SAM1990WRNO,2020-01-21-12-04-44,3,2,0.5884137752713128,right,both,biased-switch,62,-6,right,right,0.282
SAM1990WRNO,2020-01-21-12-04-44,3,3,0.5141961276330294,right,probe,ambiguous-stable,-1,3,right,right,0.272
SAM1990WRNO,2020-01-21-12-04-44,3,4,0.6829341306585082,right,both,ambiguous-stable,58,3,left,right,0.347
SAM1990WRNO,2020-01-21-12-04-44,3,5,0.6297035523409488,right,probe,ambiguous-stable,-1,-6,right,right,0.471
SAM1990WRNO,2020-01-21-12-04-44,3,6,0.6352559162836673,right,both,ambiguous-stable,54,-6,left,right,0.225
SAM1990WRNO,2020-01-21-12-04-44,3,7,0.565449274790853,left,probe,ambiguous-stable,-1,12,left,left,0.322
SAM1990WRNO,2020-01-21-12-04-44,3,8,0.5337223350710967,left,both,ambiguous-stable,62,12,right,left,0.315
SAM1990WRNO,2020-01-21-12-04-44,3,9,0.6431536894676134,right,probe,biased-switch,-1,12,right,right,0.493
SAM1990WRNO,2020-01-21-12-04-44,3,10,0.5079625280461862,right,both,biased-switch,66,12,right,right,0.234
SAM1990WRNO,2020-01-21-12-04-44,3,11,0.6694053237144169,left,probe,ambiguous-switch,-1,3,left,left,0.352
SAM1990WRNO,2020-01-21-12-04-44,3,12,0.6646974325633398,left,both,ambiguous-switch,57,3,left,left,0.233
SAM1990WRNO,2020-01-21-12-04-44,3,13,0.5591693532437358,right,probe,ambiguous-switch,-1,-6,right,right,0.335
SAM1990WRNO,2020-01-21-12-04-44,3,14,0.6819507388611187,right,both,ambiguous-switch,57,-6,right,right,0.168
SAM1990WRNO,2020-01-21-12-04-44,3,15,0.6508601174957801,left,probe,biased-switch,-1,3,left,left,0.386
SAM1990WRNO,2020-01-21-12-04-44,3,16,0.6969564664622376,left,both,biased-switch,54,3,left,left,0.241
SAM1990WRNO,2020-01-21-12-04-44,3,17,0.5207940404708096,right,probe,ambiguous-switch,-1,12,right,right,0.314
SAM1990WRNO,2020-01-21-12-04-44,3,18,0.5795841376895352,right,both,ambiguous-switch,62,12,right,right,0.258
SAM1990WRNO,2020-01-21-12-04-44,3,19,0.5446354673519735,right,probe,ambiguous-stable,-1,-18,right,right,0.375
SAM1990WRNO,2020-01-21-12-04-44,3,20,0.5340232894452008,right,both,ambiguous-stable,65,-18,left,right,0.167
SAM1990WRNO,2020-01-21-12-04-44,3,21,0.6869533288909777,left,probe,ambiguous-stable,-1,0,left,left,0.405
SAM1990WRNO,2020-01-21-12-04-44,3,22,0.668086899237784,left,both,ambiguous-stable,66,0,right,left,0.26
SAM1990WRNO,2020-01-21-12-04-44,3,23,0.5498505148493937,left,probe,ambiguous-switch,-1,18,left,left,0.48
SAM1990WRNO,2020-01-21-12-04-44,3,24,0.5709888795748379,left,both,ambiguous-switch,55,18,left,left,0.226
SAM1990WRNO,2020-01-21-12-04-44,3,25,0.5576636977111175,left,probe,biased-switch,-1,-18,left,left,0.624
SAM1990WRNO,2020-01-21-12-04-44,3,26,0.6944090931177312,left,both,biased-switch,55,-18,left,left,0.247
SAM1990WRNO,2020-01-21-12-04-44,3,27,0.514526307232975,right,probe,ambiguous-switch,-1,-18,right,right,0.377
SAM1990WRNO,2020-01-21-12-04-44,3,28,0.5104273587757747,right,both,ambiguous-switch,58,-18,right,right,0.265
SAM1990WRNO,2020-01-21-12-04-44,3,29,0.5375534538220943,right,probe,ambiguous-switch,-1,-3,right,right,0.314
SAM1990WRNO,2020-01-21-12-04-44,3,30,0.5367374611046601,right,both,ambiguous-switch,65,-3,right,right,0.236
SAM1990WRNO,2020-01-21-12-04-44,3,31,0.5860328674926422,right,probe,biased-switch,-1,18,right,right,0.53
SAM1990WRNO,2020-01-21-12-04-44,3,32,0.6931573297795173,right,both,biased-switch,55,18,right,right,0.34
SAM1990WRNO,2020-01-21-12-04-44,3,33,0.503551026392818,right,probe,ambiguous-stable,-1,-12,right,right,0.366
SAM1990WRNO,2020-01-21-12-04-44,3,34,0.6567439687456307,right,both,ambiguous-stable,60,-12,left,right,0.25
SAM1990WRNO,2020-01-21-12-04-44,3,35,0.5060809070875381,left,probe,biased-switch,-1,0,left,left,0.221
SAM1990WRNO,2020-01-21-12-04-44,3,36,0.631641236579738,left,both,biased-switch,54,0,left,left,0.237
SAM1990WRNO,2020-01-21-12-04-44,3,37,0.5106313246930388,right,probe,ambiguous-stable,-1,24,right,right,0.314
SAM1990WRNO,2020-01-21-12-04-44,3,38,0.6365362638815091,right,both,ambiguous-stable,64,24,left,right,0.343
SAM1990WRNO,2020-01-21-12-04-44,3,39,0.6950404646905823,left,probe,ambiguous-stable,-1,6,left,left,0.418
SAM1990WRNO,2020-01-21-12-04-44,3,40,0.5534074613257329,left,both,ambiguous-stable,65,6,right,left,0.249
SAM1990WRNO,2020-01-21-12-04-44,3,41,0.5698320432746807,left,probe,ambiguous-stable,-1,18,left,left,0.352
SAM1990WRNO,2020-01-21-12-04-44,3,42,0.6630496789867579,left,both,ambiguous-stable,65,18,right,left,0.259
SAM1990WRNO,2020-01-21-12-04-44,3,43,0.6181952170174477,right,probe,biased-switch,-1,-3,right,right,0.379
SAM1990WRNO,2020-01-21-12-04-44,3,44,0.6222889521447367,right,both,biased-switch,58,-3,right,right,0.246
SAM1990WRNO,2020-01-21-12-04-44,3,45,0.5434750775570516,right,probe,biased-switch,-1,24,right,right,0.447
SAM1990WRNO,2020-01-21-12-04-44,3,46,0.6157023212167938,right,both,biased-switch,54,24,right,right,0.271
SAM1990WRNO,2020-01-21-12-04-44,3,47,0.6960532054705956,left,probe,ambiguous-switch,-1,0,left,left,0.382
SAM1990WRNO,2020-01-21-12-04-44,3,48,0.5342295545497658,left,both,ambiguous-switch,63,0,left,left,0.222
SAM1990WRNO,2020-01-21-12-04-44,3,49,0.662657121314509,right,probe,ambiguous-switch,-1,6,right,right,0.403
SAM1990WRNO,2020-01-21-12-04-44,3,50,0.6900508436226771,right,both,ambiguous-switch,64,6,right,right,0.21
SAM1990WRNO,2020-01-21-12-04-44,3,51,0.6686181536217991,right,probe,ambiguous-switch,-1,-12,right,right,0.418
SAM1990WRNO,2020-01-21-12-04-44,3,52,0.5294534287224617,right,both,ambiguous-switch,64,-12,right,right,0.358
SAM1990WRNO,2020-01-21-12-04-44,3,53,0.6415536239922682,right,probe,ambiguous-switch,-1,24,right,right,1.077
SAM1990WRNO,2020-01-21-12-04-44,3,54,0.5872007395550074,right,both,ambiguous-switch,59,24,right,right,0.298
SAM1990WRNO,2020-01-21-12-04-44,3,55,0.64799062604863,right,probe,ambiguous-stable,-1,-3,right,right,0.338
SAM1990WRNO,2020-01-21-12-04-44,3,56,0.6749715048354111,right,both,ambiguous-stable,64,-3,left,right,0.311
SAM1990WRNO,2020-01-21-12-04-44,3,57,0.6887233887984074,right,probe,biased-switch,-1,6,right,right,1.265
SAM1990WRNO,2020-01-21-12-04-44,3,58,0.5365196394324712,right,both,biased-switch,64,6,right,right,0.274
SAM1990WRNO,2020-01-21-12-04-44,3,59,0.6315644774890962,left,probe,biased-switch,-1,-12,left,left,0.565
SAM1990WRNO,2020-01-21-12-04-44,3,60,0.634511839798456,left,both,biased-switch,54,-12,left,left,0.177
SAM1990WRNO,2020-01-21-12-04-44,4,1,0.6631325010837912,right,probe,ambiguous-switch,-1,-3,right,right,0.254
SAM1990WRNO,2020-01-21-12-04-44,4,2,0.5642528279083238,right,both,ambiguous-switch,59,-3,right,right,0.344
SAM1990WRNO,2020-01-21-12-04-44,4,3,0.6394600565928185,left,probe,ambiguous-stable,-1,24,left,left,0.52
SAM1990WRNO,2020-01-21-12-04-44,4,4,0.6452736942558334,left,both,ambiguous-stable,59,24,right,left,0.27
SAM1990WRNO,2020-01-21-12-04-44,4,5,0.6745660926988158,right,probe,ambiguous-switch,-1,12,right,right,0.283
SAM1990WRNO,2020-01-21-12-04-44,4,6,0.6285890606690425,right,both,ambiguous-switch,54,12,right,right,0.394
SAM1990WRNO,2020-01-21-12-04-44,4,7,0.6577596549784354,right,probe,ambiguous-switch,-1,6,right,right,0.405
SAM1990WRNO,2020-01-21-12-04-44,4,8,0.617785153200723,right,both,ambiguous-switch,64,6,right,right,0.407
SAM1990WRNO,2020-01-21-12-04-44,4,9,0.6909890696770672,right,probe,biased-switch,-1,6,right,right,0.431
SAM1990WRNO,2020-01-21-12-04-44,4,10,0.5001851801156381,right,both,biased-switch,56,6,right,right,0.312
SAM1990WRNO,2020-01-21-12-04-44,4,11,0.6369776351184818,right,probe,ambiguous-stable,-1,6,right,right,0.408
SAM1990WRNO,2020-01-21-12-04-44,4,12,0.6930247207239898,right,both,ambiguous-stable,60,6,left,right,0.305
SAM1990WRNO,2020-01-21-12-04-44,4,13,0.5708664072628683,left,probe,ambiguous-switch,-1,18,left,left,0.305
SAM1990WRNO,2020-01-21-12-04-44,4,14,0.6473092905505708,left,both,ambiguous-switch,55,18,left,left,0.279
SAM1990WRNO,2020-01-21-12-04-44,4,15,0.5200258983384899,left,probe,ambiguous-stable,-1,-6,left,left,0.435
SAM1990WRNO,2020-01-21-12-04-44,4,16,0.5272047597047953,left,both,ambiguous-stable,61,-6,right,left,0.353
SAM1990WRNO,2020-01-21-12-04-44,4,17,0.5486853435457653,left,probe,biased-switch,-1,3,left,left,0.302
SAM1990WRNO,2020-01-21-12-04-44,4,18,0.6209856955615971,left,both,biased-switch,59,3,left,left,0.281
SAM1990WRNO,2020-01-21-12-04-44,4,19,0.6292838454169009,right,probe,ambiguous-switch,-1,0,right,right,0.349
SAM1990WRNO,2020-01-21-12-04-44,4,20,0.6030890821743707,right,both,ambiguous-switch,60,0,right,right,0.219
SAM1990WRNO,2020-01-21-12-04-44,4,21,0.6553797484421364,left,probe,ambiguous-switch,-1,3,left,left,0.263
SAM1990WRNO,2020-01-21-12-04-44,4,22,0.5287084945778066,left,both,ambiguous-switch,61,3,left,left,0.242
SAM1990WRNO,2020-01-21-12-04-44,4,23,0.5295648695838078,left,probe,biased-switch,-1,24,left,left,0.416
SAM1990WRNO,2020-01-21-12-04-44,4,24,0.5295935352905102,left,both,biased-switch,55,24,left,left,0.23
SAM1990WRNO,2020-01-21-12-04-44,4,25,0.5025386950044197,right,probe,ambiguous-switch,-1,-6,right,right,0.358
SAM1990WRNO,2020-01-21-12-04-44,4,26,0.6721252067832789,right,both,ambiguous-switch,61,-6,right,right,0.193
SAM1990WRNO,2020-01-21-12-04-44,4,27,0.6701016851891836,right,probe,biased-switch,-1,0,right,right,0.245
SAM1990WRNO,2020-01-21-12-04-44,4,28,0.6020827021810651,right,both,biased-switch,62,0,right,right,0.204
SAM1990WRNO,2020-01-21-12-04-44,4,29,0.6482617634341503,right,probe,biased-switch,-1,12,right,right,0.235
SAM1990WRNO,2020-01-21-12-04-44,4,30,0.5470952947369664,right,both,biased-switch,60,12,right,right,0.245
SAM1990WRNO,2020-01-21-12-04-44,4,31,0.6722614376483645,left,probe,biased-switch,-1,-3,left,left,0.215
SAM1990WRNO,2020-01-21-12-04-44,4,32,0.6912958038448687,left,both,biased-switch,57,-3,left,left,0.224
SAM1990WRNO,2020-01-21-12-04-44,4,33,0.5294088999849957,right,probe,ambiguous-stable,-1,3,right,right,0.347
SAM1990WRNO,2020-01-21-12-04-44,4,34,0.6973218619439929,right,both,ambiguous-stable,58,3,left,right,0.419
SAM1990WRNO,2020-01-21-12-04-44,4,35,0.6782623941532628,right,probe,biased-switch,-1,-6,right,right,0.294
SAM1990WRNO,2020-01-21-12-04-44,4,36,0.6594339963378153,right,both,biased-switch,64,-6,right,right,0.233
SAM1990WRNO,2020-01-21-12-04-44,4,37,0.5879635807053898,left,probe,biased-switch,-1,-12,left,left,0.311
SAM1990WRNO,2020-01-21-12-04-44,4,38,0.6752660672972506,left,both,biased-switch,62,-12,left,left,0.254
SAM1990WRNO,2020-01-21-12-04-44,4,39,0.6588478212957222,left,probe,biased-switch,-1,-18,left,left,0.257
SAM1990WRNO,2020-01-21-12-04-44,4,40,0.5601039828914153,left,both,biased-switch,64,-18,left,left,0.099
SAM1990WRNO,2020-01-21-12-04-44,4,41,0.5863745005563243,right,probe,ambiguous-switch,-1,-18,right,right,0.421
SAM1990WRNO,2020-01-21-12-04-44,4,42,0.6864204659525907,right,both,ambiguous-switch,63,-18,right,right,0.341
SAM1990WRNO,2020-01-21-12-04-44,4,43,0.580891301298926,right,probe,ambiguous-stable,-1,12,right,right,0.409
SAM1990WRNO,2020-01-21-12-04-44,4,44,0.6111169141757367,right,both,ambiguous-stable,65,12,left,right,0.261
SAM1990WRNO,2020-01-21-12-04-44,4,45,0.5324703492689309,left,probe,ambiguous-stable,-1,-12,left,left,0.343
SAM1990WRNO,2020-01-21-12-04-44,4,46,0.6633303274913214,left,both,ambiguous-stable,65,-12,right,left,0.241
SAM1990WRNO,2020-01-21-12-04-44,4,47,0.5640301901732173,left,probe,ambiguous-stable,-1,18,left,left,0.321
SAM1990WRNO,2020-01-21-12-04-44,4,48,0.5786547694924352,left,both,ambiguous-stable,55,18,right,left,0.252
SAM1990WRNO,2020-01-21-12-04-44,4,49,0.6056730355992611,left,probe,ambiguous-stable,-1,0,left,left,0.242
SAM1990WRNO,2020-01-21-12-04-44,4,50,0.5514940921284832,left,both,ambiguous-stable,59,0,right,left,0.257
SAM1990WRNO,2020-01-21-12-04-44,4,51,0.5889326075371982,right,probe,biased-switch,-1,18,right,right,0.232
SAM1990WRNO,2020-01-21-12-04-44,4,52,0.6939468264041558,right,both,biased-switch,56,18,right,right,0.308
SAM1990WRNO,2020-01-21-12-04-44,4,53,0.600314416458494,left,probe,ambiguous-switch,-1,24,left,left,0.217
SAM1990WRNO,2020-01-21-12-04-44,4,54,0.6139748029793056,left,both,ambiguous-switch,58,24,left,left,0.209
SAM1990WRNO,2020-01-21-12-04-44,4,55,0.650814390257118,right,probe,ambiguous-switch,-1,-12,right,right,0.26
SAM1990WRNO,2020-01-21-12-04-44,4,56,0.5698259153543587,right,both,ambiguous-switch,54,-12,right,right,0.307
SAM1990WRNO,2020-01-21-12-04-44,4,57,0.6219084340452182,left,probe,ambiguous-stable,-1,-3,left,left,0.259
SAM1990WRNO,2020-01-21-12-04-44,4,58,0.6114265861907303,left,both,ambiguous-stable,57,-3,right,left,0.287
SAM1990WRNO,2020-01-21-12-04-44,4,59,0.6607251631333602,right,probe,ambiguous-stable,-1,-18,right,right,0.294
SAM1990WRNO,2020-01-21-12-04-44,4,60,0.6483203790773754,right,both,ambiguous-stable,64,-18,left,right,0.293
SAM1990WRNO,2020-01-21-12-04-44,5,1,0.6912666689483513,left,probe,ambiguous-switch,-1,18,left,left,0.247
SAM1990WRNO,2020-01-21-12-04-44,5,2,0.6563211561908633,left,both,ambiguous-switch,55,18,left,left,0.18
SAM1990WRNO,2020-01-21-12-04-44,5,3,0.5418209440695219,right,probe,ambiguous-stable,-1,0,right,right,0.277
SAM1990WRNO,2020-01-21-12-04-44,5,4,0.6661195967928542,right,both,ambiguous-stable,63,0,left,right,0.213
SAM1990WRNO,2020-01-21-12-04-44,5,5,0.5979340436951118,right,probe,ambiguous-switch,-1,-12,right,right,0.199
SAM1990WRNO,2020-01-21-12-04-44,5,6,0.5607862614758906,right,both,ambiguous-switch,63,-12,right,right,0.262
SAM1990WRNO,2020-01-21-12-04-44,5,7,0.5597633328118412,left,probe,ambiguous-stable,-1,-12,left,left,0.235
SAM1990WRNO,2020-01-21-12-04-44,5,8,0.6889148716766205,left,both,ambiguous-stable,64,-12,right,left,0.191
SAM1990WRNO,2020-01-21-12-04-44,5,9,0.6973597892305834,right,probe,biased-switch,-1,-3,right,right,0.311
SAM1990WRNO,2020-01-21-12-04-44,5,10,0.6482299328922855,right,both,biased-switch,55,-3,right,right,0.21
SAM1990WRNO,2020-01-21-12-04-44,5,11,0.6180499981091516,right,probe,ambiguous-switch,-1,24,right,right,0.263
SAM1990WRNO,2020-01-21-12-04-44,5,12,0.6222695219326043,right,both,ambiguous-switch,62,24,right,right,0.307
SAM1990WRNO,2020-01-21-12-04-44,5,13,0.6432038152772677,right,probe,ambiguous-stable,-1,-6,right,right,0.277
SAM1990WRNO,2020-01-21-12-04-44,5,14,0.5707326520057616,right,both,ambiguous-stable,56,-6,left,right,0.229
SAM1990WRNO,2020-01-21-12-04-44,5,15,0.5334192109704053,left,probe,ambiguous-stable,-1,18,left,left,0.236
SAM1990WRNO,2020-01-21-12-04-44,5,16,0.6998978230973445,left,both,ambiguous-stable,64,18,right,left,0.267
SAM1990WRNO,2020-01-21-12-04-44,5,17,0.5281367430191667,right,probe,biased-switch,-1,24,right,right,0.363
SAM1990WRNO,2020-01-21-12-04-44,5,18,0.6876588503616411,right,both,biased-switch,56,24,right,right,0.196
SAM1990WRNO,2020-01-21-12-04-44,5,19,0.5781425787571984,right,probe,biased-switch,-1,6,right,right,0.222
SAM1990WRNO,2020-01-21-12-04-44,5,20,0.5164788535226451,right,both,biased-switch,63,6,right,right,0.291
SAM1990WRNO,2020-01-21-12-04-44,5,21,0.5475681829218461,left,probe,ambiguous-stable,-1,-18,left,left,0.233
SAM1990WRNO,2020-01-21-12-04-44,5,22,0.6073843793807074,left,both,ambiguous-stable,55,-18,right,left,0.224
SAM1990WRNO,2020-01-21-12-04-44,5,23,0.5696194798924716,left,probe,biased-switch,-1,0,left,left,0.22
SAM1990WRNO,2020-01-21-12-04-44,5,24,0.6279911932180591,left,both,biased-switch,63,0,left,left,0.236
SAM1990WRNO,2020-01-21-12-04-44,5,25,0.5391497598119114,right,probe,ambiguous-switch,-1,12,right,right,0.226
SAM1990WRNO,2020-01-21-12-04-44,5,26,0.5169414148011627,right,both,ambiguous-switch,63,12,right,right,0.34
SAM1990WRNO,2020-01-21-12-04-44,5,27,0.6792248537052713,right,probe,ambiguous-switch,-1,3,right,right,0.384
SAM1990WRNO,2020-01-21-12-04-44,5,28,0.5692730776895759,right,both,ambiguous-switch,63,3,right,right,0.203
SAM1990WRNO,2020-01-21-12-04-44,5,29,0.5934406420362442,left,probe,biased-switch,-1,18,left,left,0.241
SAM1990WRNO,2020-01-21-12-04-44,5,30,0.5180510249036979,left,both,biased-switch,64,18,left,left,2.677
SAM1990WRNO,2020-01-21-12-04-44,5,31,0.5024453163234307,left,probe,biased-switch,-1,3,left,left,0.986
SAM1990WRNO,2020-01-21-12-04-44,5,32,0.6331458141339705,left,both,biased-switch,54,3,left,left,0.241
SAM1990WRNO,2020-01-21-12-04-44,5,33,0.6525162882602337,left,probe,biased-switch,-1,-12,left,left,0.561
SAM1990WRNO,2020-01-21-12-04-44,5,34,0.5952314313936344,left,both,biased-switch,62,-12,left,left,0.244
SAM1990WRNO,2020-01-21-12-04-44,5,35,0.5922027348442145,left,probe,ambiguous-stable,-1,24,left,left,0.204
SAM1990WRNO,2020-01-21-12-04-44,5,36,0.5312353727056626,left,both,ambiguous-stable,59,24,right,left,0.306
SAM1990WRNO,2020-01-21-12-04-44,5,37,0.5145128728823879,right,probe,ambiguous-stable,-1,6,right,right,0.3
SAM1990WRNO,2020-01-21-12-04-44,5,38,0.6810897807030222,right,both,ambiguous-stable,61,6,left,right,0.244
SAM1990WRNO,2020-01-21-12-04-44,5,39,0.5786919824740153,right,probe,ambiguous-switch,-1,-3,right,right,0.564
SAM1990WRNO,2020-01-21-12-04-44,5,40,0.5997492495622895,right,both,ambiguous-switch,63,-3,right,right,0.244
SAM1990WRNO,2020-01-21-12-04-44,5,41,0.5637105994211471,left,probe,ambiguous-switch,-1,6,left,left,0.455
SAM1990WRNO,2020-01-21-12-04-44,5,42,0.5718239331006032,left,both,ambiguous-switch,64,6,left,left,0.258
SAM1990WRNO,2020-01-21-12-04-44,5,43,0.5634872709433388,left,probe,ambiguous-stable,-1,3,left,left,0.47
SAM1990WRNO,2020-01-21-12-04-44,5,44,0.6279396525261944,left,both,ambiguous-stable,56,3,right,left,0.241
SAM1990WRNO,2020-01-21-12-04-44,5,45,0.6838852557123443,right,probe,ambiguous-stable,-1,12,right,right,0.337
SAM1990WRNO,2020-01-21-12-04-44,5,46,0.5576155753002874,right,both,ambiguous-stable,62,12,left,right,0.33
SAM1990WRNO,2020-01-21-12-04-44,5,47,0.5860941634683612,right,probe,ambiguous-switch,-1,0,right,right,0.393
SAM1990WRNO,2020-01-21-12-04-44,5,48,0.6532227076516612,right,both,ambiguous-switch,63,0,right,right,0.237
SAM1990WRNO,2020-01-21-12-04-44,5,49,0.5498067447380153,left,probe,ambiguous-switch,-1,-18,left,left,0.224
SAM1990WRNO,2020-01-21-12-04-44,5,50,0.5995030848235521,left,both,ambiguous-switch,63,-18,left,left,0.247
SAM1990WRNO,2020-01-21-12-04-44,5,51,0.5482213798200157,left,probe,ambiguous-stable,-1,-3,left,left,0.218
SAM1990WRNO,2020-01-21-12-04-44,5,52,0.5660960644312918,left,both,ambiguous-stable,58,-3,right,left,0.563
SAM1990WRNO,2020-01-21-12-04-44,5,53,0.5817034421826304,right,probe,biased-switch,-1,12,right,right,0.246
SAM1990WRNO,2020-01-21-12-04-44,5,54,0.6644093975294375,right,both,biased-switch,60,12,right,right,0.2
SAM1990WRNO,2020-01-21-12-04-44,5,55,0.5824287697071432,right,probe,biased-switch,-1,-18,right,right,0.409
SAM1990WRNO,2020-01-21-12-04-44,5,56,0.6778227764910221,right,both,biased-switch,66,-18,right,right,0.799
SAM1990WRNO,2020-01-21-12-04-44,5,57,0.6569386841474357,right,probe,biased-switch,-1,-6,right,right,0.909
SAM1990WRNO,2020-01-21-12-04-44,5,58,0.6091511277711541,right,both,biased-switch,58,-6,right,right,0.328
SAM1990WRNO,2020-01-21-12-04-44,5,59,0.6946614818628543,right,probe,ambiguous-switch,-1,-6,right,right,0.47
SAM1990WRNO,2020-01-21-12-04-44,5,60,0.5236322234302567,right,both,ambiguous-switch,61,-6,right,right,0.306
SAM1990WRNO,2020-01-21-12-04-44,6,1,0.5288617216890513,left,probe,ambiguous-stable,-1,24,left,left,0.236
SAM1990WRNO,2020-01-21-12-04-44,6,2,0.5451533529393009,left,both,ambiguous-stable,66,24,right,left,0.264
SAM1990WRNO,2020-01-21-12-04-44,6,3,0.6321240142404083,right,probe,ambiguous-switch,-1,18,right,right,0.237
SAM1990WRNO,2020-01-21-12-04-44,6,4,0.5768764120140607,right,both,ambiguous-switch,60,18,right,right,0.244
SAM1990WRNO,2020-01-21-12-04-44,6,5,0.5838948382160959,left,probe,biased-switch,-1,3,left,left,0.229
SAM1990WRNO,2020-01-21-12-04-44,6,6,0.6966487236992264,left,both,biased-switch,57,3,left,left,0.219
SAM1990WRNO,2020-01-21-12-04-44,6,7,0.6131214175775684,right,probe,ambiguous-switch,-1,-3,right,right,0.29
SAM1990WRNO,2020-01-21-12-04-44,6,8,0.5135882045065207,right,both,ambiguous-switch,61,-3,right,right,0.245
SAM1990WRNO,2020-01-21-12-04-44,6,9,0.6047012606376946,right,probe,ambiguous-stable,-1,18,right,right,0.322
SAM1990WRNO,2020-01-21-12-04-44,6,10,0.6042836562499067,right,both,ambiguous-stable,55,18,left,right,0.351
SAM1990WRNO,2020-01-21-12-04-44,6,11,0.6464628943106606,right,probe,ambiguous-stable,-1,-12,right,right,0.416
SAM1990WRNO,2020-01-21-12-04-44,6,12,0.6367027515793857,right,both,ambiguous-stable,58,-12,left,right,0.178
SAM1990WRNO,2020-01-21-12-04-44,6,13,0.660833725705465,right,probe,ambiguous-switch,-1,-6,right,right,0.33
SAM1990WRNO,2020-01-21-12-04-44,6,14,0.5455693071714949,right,both,ambiguous-switch,56,-6,right,right,0.217
SAM1990WRNO,2020-01-21-12-04-44,6,15,0.50210061564759,left,probe,ambiguous-stable,-1,-18,left,left,0.208
SAM1990WRNO,2020-01-21-12-04-44,6,16,0.6646778487078585,left,both,ambiguous-stable,55,-18,right,left,0.236
SAM1990WRNO,2020-01-21-12-04-44,6,17,0.6420904678878949,left,probe,biased-switch,-1,-6,left,left,0.271
SAM1990WRNO,2020-01-21-12-04-44,6,18,0.5782911411927285,left,both,biased-switch,66,-6,left,left,0.188
SAM1990WRNO,2020-01-21-12-04-44,6,19,0.5193840668456142,right,probe,biased-switch,-1,-18,right,right,0.22
SAM1990WRNO,2020-01-21-12-04-44,6,20,0.6184852286671337,right,both,biased-switch,57,-18,right,right,0.209
SAM1990WRNO,2020-01-21-12-04-44,6,21,0.6518721697280158,right,probe,ambiguous-switch,-1,3,right,right,0.271
SAM1990WRNO,2020-01-21-12-04-44,6,22,0.6677247465094784,right,both,ambiguous-switch,61,3,right,right,0.233
SAM1990WRNO,2020-01-21-12-04-44,6,23,0.574374664455529,right,probe,ambiguous-switch,-1,0,right,right,0.244
SAM1990WRNO,2020-01-21-12-04-44,6,24,0.590802357227525,right,both,ambiguous-switch,57,0,right,right,0.239
SAM1990WRNO,2020-01-21-12-04-44,6,25,0.5146058743950044,left,probe,biased-switch,-1,24,left,left,0.206
SAM1990WRNO,2020-01-21-12-04-44,6,26,0.6363784985864482,left,both,biased-switch,54,24,left,left,0.533
SAM1990WRNO,2020-01-21-12-04-44,6,27,0.5987302726454209,right,probe,ambiguous-stable,-1,-3,right,right,0.353
SAM1990WRNO,2020-01-21-12-04-44,6,28,0.5624167006693706,right,both,ambiguous-stable,54,-3,left,right,0.218
SAM1990WRNO,2020-01-21-12-04-44,6,29,0.504730484939343,right,probe,biased-switch,-1,6,right,right,0.355
SAM1990WRNO,2020-01-21-12-04-44,6,30,0.5766987896520109,right,both,biased-switch,58,6,right,right,0.232
SAM1990WRNO,2020-01-21-12-04-44,6,31,0.634195932257213,right,probe,biased-switch,-1,-12,right,right,0.315
SAM1990WRNO,2020-01-21-12-04-44,6,32,0.653990239647215,right,both,biased-switch,62,-12,right,right,0.217
SAM1990WRNO,2020-01-21-12-04-44,6,33,0.6159523371800033,right,probe,ambiguous-switch,-1,6,right,right,0.251
SAM1990WRNO,2020-01-21-12-04-44,6,34,0.5388360413073428,right,both,ambiguous-switch,65,6,right,right,0.238
SAM1990WRNO,2020-01-21-12-04-44,6,35,0.612296099645489,right,probe,ambiguous-stable,-1,12,right,right,0.477
SAM1990WRNO,2020-01-21-12-04-44,6,36,0.5876579773300276,right,both,ambiguous-stable,63,12,left,right,0.228
SAM1990WRNO,2020-01-21-12-04-44,6,37,0.6353391671507889,right,probe,ambiguous-stable,-1,3,right,right,0.371
SAM1990WRNO,2020-01-21-12-04-44,6,38,0.5977296489644849,right,both,ambiguous-stable,62,3,left,right,0.216
SAM1990WRNO,2020-01-21-12-04-44,6,39,0.5049660333439142,left,probe,biased-switch,-1,12,left,left,0.195
SAM1990WRNO,2020-01-21-12-04-44,6,40,0.5220032215682047,left,both,biased-switch,59,12,left,left,0.192
SAM1990WRNO,2020-01-21-12-04-44,6,41,0.549291000791616,right,probe,ambiguous-switch,-1,24,right,right,0.514
SAM1990WRNO,2020-01-21-12-04-44,6,42,0.5767026732460028,right,both,ambiguous-switch,64,24,right,right,0.319
SAM1990WRNO,2020-01-21-12-04-44,6,43,0.5858446101318189,left,probe,ambiguous-switch,-1,12,left,left,0.249
SAM1990WRNO,2020-01-21-12-04-44,6,44,0.5467209802457981,left,both,ambiguous-switch,58,12,left,left,0.216
SAM1990WRNO,2020-01-21-12-04-44,6,45,0.5621257605760299,right,probe,ambiguous-stable,-1,6,right,right,0.452
SAM1990WRNO,2020-01-21-12-04-44,6,46,0.5814166020732878,right,both,ambiguous-stable,66,6,left,right,0.292
SAM1990WRNO,2020-01-21-12-04-44,6,47,0.614181499909555,right,probe,ambiguous-stable,-1,0,right,right,0.237
SAM1990WRNO,2020-01-21-12-04-44,6,48,0.5068636612889333,right,both,ambiguous-stable,57,0,left,right,0.218
SAM1990WRNO,2020-01-21-12-04-44,6,49,0.6573580586024339,left,probe,biased-switch,-1,-3,left,left,0.297
SAM1990WRNO,2020-01-21-12-04-44,6,50,0.5552135884913015,left,both,biased-switch,65,-3,left,left,0.237
SAM1990WRNO,2020-01-21-12-04-44,6,51,0.6742241030038687,right,probe,biased-switch,-1,0,right,right,0.227
SAM1990WRNO,2020-01-21-12-04-44,6,52,0.5763086445494487,right,both,biased-switch,58,0,right,right,0.353
SAM1990WRNO,2020-01-21-12-04-44,6,53,0.5485687890047803,left,probe,biased-switch,-1,18,left,left,0.213
SAM1990WRNO,2020-01-21-12-04-44,6,54,0.6873165762437857,left,both,biased-switch,62,18,left,right,0.22
SAM1990WRNO,2020-01-21-12-04-44,6,55,0.532239582313776,right,probe,ambiguous-stable,-1,-6,right,right,0.293
SAM1990WRNO,2020-01-21-12-04-44,6,56,0.5673329712649661,right,both,ambiguous-stable,54,-6,left,right,0.284
SAM1990WRNO,2020-01-21-12-04-44,6,57,0.5857533206602072,left,probe,ambiguous-switch,-1,-18,left,left,0.29
SAM1990WRNO,2020-01-21-12-04-44,6,58,0.6851375303550741,left,both,ambiguous-switch,59,-18,left,left,0.227
SAM1990WRNO,2020-01-21-12-04-44,6,59,0.59245917731483,right,probe,ambiguous-switch,-1,-12,right,right,0.284
SAM1990WRNO,2020-01-21-12-04-44,6,60,0.6114555253895924,right,both,ambiguous-switch,57,-12,right,right,0.355
SAM1990WRNO,2020-01-21-12-04-44,7,1,0.5195686046804626,right,probe,biased-switch,-1,12,right,right,0.257
SAM1990WRNO,2020-01-21-12-04-44,7,2,0.6477991274762811,right,both,biased-switch,61,12,right,right,0.215
SAM1990WRNO,2020-01-21-12-04-44,7,3,0.5352919508167352,left,probe,ambiguous-stable,-1,-18,left,left,0.2
SAM1990WRNO,2020-01-21-12-04-44,7,4,0.6164524915513286,left,both,ambiguous-stable,64,-18,right,left,0.264
SAM1990WRNO,2020-01-21-12-04-44,7,5,0.5222309504654891,left,probe,ambiguous-stable,-1,12,left,left,0.226
SAM1990WRNO,2020-01-21-12-04-44,7,6,0.5465585182401593,left,both,ambiguous-stable,64,12,right,left,0.189
SAM1990WRNO,2020-01-21-12-04-44,7,7,0.5478516552801291,right,probe,ambiguous-stable,-1,-6,right,right,0.243
SAM1990WRNO,2020-01-21-12-04-44,7,8,0.6437555572374989,right,both,ambiguous-stable,55,-6,left,right,0.196
SAM1990WRNO,2020-01-21-12-04-44,7,9,0.605488209728833,right,probe,biased-switch,-1,24,right,right,0.225
SAM1990WRNO,2020-01-21-12-04-44,7,10,0.5035300211268532,right,both,biased-switch,59,24,right,right,0.275
SAM1990WRNO,2020-01-21-12-04-44,7,11,0.5582310041229273,left,probe,ambiguous-switch,-1,-6,left,left,0.052
SAM1990WRNO,2020-01-21-12-04-44,7,12,0.6058974857870368,left,both,ambiguous-switch,58,-6,left,left,0.22
SAM1990WRNO,2020-01-21-12-04-44,7,13,0.5129925912887102,right,probe,biased-switch,-1,18,right,right,0.311
SAM1990WRNO,2020-01-21-12-04-44,7,14,0.631486582422838,right,both,biased-switch,57,18,right,right,0.228
SAM1990WRNO,2020-01-21-12-04-44,7,15,0.6661388368332524,left,probe,ambiguous-switch,-1,12,left,left,0.405
SAM1990WRNO,2020-01-21-12-04-44,7,16,0.55958567184936,left,both,ambiguous-switch,54,12,left,left,0.236
SAM1990WRNO,2020-01-21-12-04-44,7,17,0.6929553720827459,right,probe,ambiguous-switch,-1,-12,right,right,0.274
SAM1990WRNO,2020-01-21-12-04-44,7,18,0.510201778868042,right,both,ambiguous-switch,63,-12,right,right,0.261
SAM1990WRNO,2020-01-21-12-04-44,7,19,0.5324994894996693,left,probe,ambiguous-stable,-1,-12,left,left,0.199
SAM1990WRNO,2020-01-21-12-04-44,7,20,0.6658612748261239,left,both,ambiguous-stable,55,-12,right,left,0.213
SAM1990WRNO,2020-01-21-12-04-44,7,21,0.5338399316245112,right,probe,ambiguous-stable,-1,24,right,right,0.253
SAM1990WRNO,2020-01-21-12-04-44,7,22,0.6927486470174951,right,both,ambiguous-stable,61,24,left,right,0.254
SAM1990WRNO,2020-01-21-12-04-44,7,23,0.5903628630522372,left,probe,ambiguous-switch,-1,3,left,left,0.326
SAM1990WRNO,2020-01-21-12-04-44,7,24,0.5021906876287348,left,both,ambiguous-switch,61,3,left,left,0.194
SAM1990WRNO,2020-01-21-12-04-44,7,25,0.5828745128747918,left,probe,ambiguous-stable,-1,3,left,left,0.345
SAM1990WRNO,2020-01-21-12-04-44,7,26,0.5905220419348327,left,both,ambiguous-stable,58,3,right,left,0.219
SAM1990WRNO,2020-01-21-12-04-44,7,27,0.6360791560457972,left,probe,biased-switch,-1,-12,left,left,0.227
SAM1990WRNO,2020-01-21-12-04-44,7,28,0.6853911249160894,left,both,biased-switch,57,-12,left,left,0.209
SAM1990WRNO,2020-01-21-12-04-44,7,29,0.5565611566230401,right,probe,biased-switch,-1,0,right,right,0.298
SAM1990WRNO,2020-01-21-12-04-44,7,30,0.5921191024532578,right,both,biased-switch,62,0,right,right,0.222
SAM1990WRNO,2020-01-21-12-04-44,7,31,0.6516033713590177,right,probe,biased-switch,-1,6,right,right,0.397
SAM1990WRNO,2020-01-21-12-04-44,7,32,0.6749543347673199,right,both,biased-switch,58,6,right,right,0.251
SAM1990WRNO,2020-01-21-12-04-44,7,33,0.5938879992712466,left,probe,ambiguous-switch,-1,-18,left,left,0.237
SAM1990WRNO,2020-01-21-12-04-44,7,34,0.6465233528580371,left,both,ambiguous-switch,65,-18,left,left,0.224
SAM1990WRNO,2020-01-21-12-04-44,7,35,0.5820999087660301,left,probe,ambiguous-stable,-1,-3,left,left,0.223
SAM1990WRNO,2020-01-21-12-04-44,7,36,0.6520588390199787,left,both,ambiguous-stable,63,-3,right,left,0.328
SAM1990WRNO,2020-01-21-12-04-44,7,37,0.6591536100768602,right,probe,ambiguous-switch,-1,24,right,right,0.242
SAM1990WRNO,2020-01-21-12-04-44,7,38,0.5532820728062225,right,both,ambiguous-switch,64,24,right,right,0.227
SAM1990WRNO,2020-01-21-12-04-44,7,39,0.5072411253115923,left,probe,biased-switch,-1,-18,left,left,0.237
SAM1990WRNO,2020-01-21-12-04-44,7,40,0.6518837857431571,left,both,biased-switch,58,-18,left,left,0.194
SAM1990WRNO,2020-01-21-12-04-44,7,41,0.5931124231399031,right,probe,biased-switch,-1,3,right,right,0.264
SAM1990WRNO,2020-01-21-12-04-44,7,42,0.5395523260654955,right,both,biased-switch,63,3,right,right,0.277
SAM1990WRNO,2020-01-21-12-04-44,7,43,0.5034149425777273,left,probe,ambiguous-switch,-1,6,left,left,0.663
SAM1990WRNO,2020-01-21-12-04-44,7,44,0.6616679675726547,left,both,ambiguous-switch,56,6,left,left,0.165
SAM1990WRNO,2020-01-21-12-04-44,7,45,0.6736782444269768,right,probe,biased-switch,-1,-3,right,right,0.296
SAM1990WRNO,2020-01-21-12-04-44,7,46,0.5120004891417569,right,both,biased-switch,57,-3,right,right,0.243
SAM1990WRNO,2020-01-21-12-04-44,7,47,0.5830055322946637,left,probe,ambiguous-switch,-1,0,left,left,0.293
SAM1990WRNO,2020-01-21-12-04-44,7,48,0.5487197723981203,left,both,ambiguous-switch,63,0,left,left,0.218
SAM1990WRNO,2020-01-21-12-04-44,7,49,0.6551201421141237,right,probe,biased-switch,-1,-6,right,right,0.231
SAM1990WRNO,2020-01-21-12-04-44,7,50,0.6345265630058133,right,both,biased-switch,55,-6,right,right,0.242
SAM1990WRNO,2020-01-21-12-04-44,7,51,0.6250686158045453,left,probe,ambiguous-stable,-1,0,left,left,0.219
SAM1990WRNO,2020-01-21-12-04-44,7,52,0.5685925079195577,left,both,ambiguous-stable,65,0,right,left,0.168
SAM1990WRNO,2020-01-21-12-04-44,7,53,0.5989645450585257,left,probe,ambiguous-stable,-1,18,left,left,0.312
SAM1990WRNO,2020-01-21-12-04-44,7,54,0.6759099856592966,left,both,ambiguous-stable,61,18,right,left,0.246
SAM1990WRNO,2020-01-21-12-04-44,7,55,0.6404137281876109,right,probe,ambiguous-switch,-1,18,right,right,0.412
SAM1990WRNO,2020-01-21-12-04-44,7,56,0.590889389786763,right,both,ambiguous-switch,63,18,right,right,0.432
SAM1990WRNO,2020-01-21-12-04-44,7,57,0.564736212225051,right,probe,ambiguous-stable,-1,6,right,right,0.54
SAM1990WRNO,2020-01-21-12-04-44,7,58,0.5333951163035832,right,both,ambiguous-stable,55,6,left,right,0.218
SAM1990WRNO,2020-01-21-12-04-44,7,59,0.6488682927476838,left,probe,ambiguous-switch,-1,-3,left,left,0.224
SAM1990WRNO,2020-01-21-12-04-44,7,60,0.6669375368484639,left,both,ambiguous-switch,59,-3,left,left,0.223
SAM1990WRNO,2020-01-21-12-04-44,8,1,0.5322937674800238,left,probe,biased-switch,-1,3,left,left,0.2
SAM1990WRNO,2020-01-21-12-04-44,8,2,0.6306754720499179,left,both,biased-switch,60,3,left,left,0.21
SAM1990WRNO,2020-01-21-12-04-44,8,3,0.5194726812261322,left,probe,ambiguous-stable,-1,12,left,left,0.322
SAM1990WRNO,2020-01-21-12-04-44,8,4,0.650120225251606,left,both,ambiguous-stable,57,12,right,left,0.549
SAM1990WRNO,2020-01-21-12-04-44,8,5,0.6583668401218622,left,probe,ambiguous-switch,-1,3,left,left,0.205
SAM1990WRNO,2020-01-21-12-04-44,8,6,0.5798806781650605,left,both,ambiguous-switch,58,3,left,left,0.237
SAM1990WRNO,2020-01-21-12-04-44,8,7,0.6970233169491247,right,probe,ambiguous-switch,-1,-12,right,right,0.251
SAM1990WRNO,2020-01-21-12-04-44,8,8,0.647868044317341,right,both,ambiguous-switch,56,-12,right,right,0.235
SAM1990WRNO,2020-01-21-12-04-44,8,9,0.62489829222609,left,probe,ambiguous-stable,-1,24,left,left,0.204
SAM1990WRNO,2020-01-21-12-04-44,8,10,0.6565596625920929,left,both,ambiguous-stable,60,24,right,left,0.21
SAM1990WRNO,2020-01-21-12-04-44,8,11,0.5254340634974654,left,probe,ambiguous-switch,-1,-6,left,left,0.237
SAM1990WRNO,2020-01-21-12-04-44,8,12,0.5739712598797799,left,both,ambiguous-switch,58,-6,left,left,0.183
SAM1990WRNO,2020-01-21-12-04-44,8,13,0.5032816748332297,left,probe,biased-switch,-1,-6,left,left,0.273
SAM1990WRNO,2020-01-21-12-04-44,8,14,0.5368258570912898,left,both,biased-switch,59,-6,left,left,0.268
SAM1990WRNO,2020-01-21-12-04-44,8,15,0.5662587180352467,right,probe,ambiguous-switch,-1,12,right,right,0.27
SAM1990WRNO,2020-01-21-12-04-44,8,16,0.5492447530327758,right,both,ambiguous-switch,66,12,right,right,0.277
SAM1990WRNO,2020-01-21-12-04-44,8,17,0.5220490197955974,right,probe,ambiguous-stable,-1,0,right,right,0.306
SAM1990WRNO,2020-01-21-12-04-44,8,18,0.6610422121856191,right,both,ambiguous-stable,55,0,left,right,0.202
SAM1990WRNO,2020-01-21-12-04-44,8,19,0.5302399307477091,right,probe,ambiguous-switch,-1,0,right,right,0.23
SAM1990WRNO,2020-01-21-12-04-44,8,20,0.5697520414977147,right,both,ambiguous-switch,57,0,right,right,0.197
SAM1990WRNO,2020-01-21-12-04-44,8,21,0.5032349457921553,left,probe,biased-switch,-1,-18,left,left,0.206
SAM1990WRNO,2020-01-21-12-04-44,8,22,0.5831862225217064,left,both,biased-switch,63,-18,left,left,0.289
SAM1990WRNO,2020-01-21-12-04-44,8,23,0.5519793348964801,left,probe,ambiguous-stable,-1,-3,left,left,0.344
SAM1990WRNO,2020-01-21-12-04-44,8,24,0.6439175614322599,left,both,ambiguous-stable,63,-3,right,left,0.225
SAM1990WRNO,2020-01-21-12-04-44,8,25,0.5361587227183225,left,probe,biased-switch,-1,6,left,left,0.208
SAM1990WRNO,2020-01-21-12-04-44,8,26,0.6056542938920545,left,both,biased-switch,62,6,left,left,0.21
SAM1990WRNO,2020-01-21-12-04-44,8,27,0.6976161762722386,left,probe,biased-switch,-1,-3,left,left,0.422
SAM1990WRNO,2020-01-21-12-04-44,8,28,0.6382353210593084,left,both,biased-switch,54,-3,left,left,0.222
SAM1990WRNO,2020-01-21-12-04-44,8,29,0.6490863189743123,left,probe,ambiguous-stable,-1,-12,left,left,0.374
SAM1990WRNO,2020-01-21-12-04-44,8,30,0.5175583483477771,left,both,ambiguous-stable,59,-12,right,left,0.232
SAM1990WRNO,2020-01-21-12-04-44,8,31,0.6911527181935901,left,probe,ambiguous-switch,-1,-18,left,left,0.373
SAM1990WRNO,2020-01-21-12-04-44,8,32,0.6327958607027688,left,both,ambiguous-switch,54,-18,left,left,0.233
SAM1990WRNO,2020-01-21-12-04-44,8,33,0.5995244024881555,right,probe,biased-switch,-1,12,right,right,0.4
SAM1990WRNO,2020-01-21-12-04-44,8,34,0.5999762824410482,right,both,biased-switch,57,12,right,right,0.314
SAM1990WRNO,2020-01-21-12-04-44,8,35,0.5902950005621934,right,probe,biased-switch,-1,18,right,right,0.334
SAM1990WRNO,2020-01-21-12-04-44,8,36,0.6977859082221474,right,both,biased-switch,61,18,right,right,0.443
SAM1990WRNO,2020-01-21-12-04-44,8,37,0.5383945085937774,right,probe,ambiguous-switch,-1,18,right,right,0.402
SAM1990WRNO,2020-01-21-12-04-44,8,38,0.5626348647558631,right,both,ambiguous-switch,57,18,right,right,0.281
SAM1990WRNO,2020-01-21-12-04-44,8,39,0.6080134288812287,right,probe,ambiguous-switch,-1,-3,right,right,0.377
SAM1990WRNO,2020-01-21-12-04-44,8,40,0.5369428451330471,right,both,ambiguous-switch,54,-3,right,right,0.259
SAM1990WRNO,2020-01-21-12-04-44,8,41,0.5667847675364044,left,probe,ambiguous-stable,-1,-6,left,left,0.286
SAM1990WRNO,2020-01-21-12-04-44,8,42,0.5269298106820226,left,both,ambiguous-stable,55,-6,right,left,0.307
SAM1990WRNO,2020-01-21-12-04-44,8,43,0.6480919040500439,left,probe,ambiguous-stable,-1,18,left,left,0.341
SAM1990WRNO,2020-01-21-12-04-44,8,44,0.6030092284018485,left,both,ambiguous-stable,64,18,right,left,0.457
SAM1990WRNO,2020-01-21-12-04-44,8,45,0.5243128104409719,left,probe,ambiguous-stable,-1,-18,left,left,0.215
SAM1990WRNO,2020-01-21-12-04-44,8,46,0.5788218242296745,left,both,ambiguous-stable,57,-18,right,left,0.394
SAM1990WRNO,2020-01-21-12-04-44,8,47,0.6568490066973912,left,probe,biased-switch,-1,0,left,left,0.314
SAM1990WRNO,2020-01-21-12-04-44,8,48,0.5366967921197867,left,both,biased-switch,56,0,left,left,0.277
SAM1990WRNO,2020-01-21-12-04-44,8,49,0.5752652883336907,left,probe,ambiguous-switch,-1,6,left,left,0.288
SAM1990WRNO,2020-01-21-12-04-44,8,50,0.5801242565070366,left,both,ambiguous-switch,65,6,left,left,0.396
SAM1990WRNO,2020-01-21-12-04-44,8,51,0.6429093999986357,right,probe,ambiguous-stable,-1,6,right,right,0.352
SAM1990WRNO,2020-01-21-12-04-44,8,52,0.536110421006315,right,both,ambiguous-stable,58,6,left,right,0.223
SAM1990WRNO,2020-01-21-12-04-44,8,53,0.5015072601497531,left,probe,biased-switch,-1,-12,left,left,0.292
SAM1990WRNO,2020-01-21-12-04-44,8,54,0.6503649354938315,left,both,biased-switch,65,-12,left,left,0.242
SAM1990WRNO,2020-01-21-12-04-44,8,55,0.5005881902207145,right,probe,biased-switch,-1,24,right,right,0.284
SAM1990WRNO,2020-01-21-12-04-44,8,56,0.6226380378389815,right,both,biased-switch,62,24,right,right,0.279
SAM1990WRNO,2020-01-21-12-04-44,8,57,0.6657401852769163,left,probe,ambiguous-switch,-1,24,left,left,0.274
SAM1990WRNO,2020-01-21-12-04-44,8,58,0.6117362154495752,left,both,ambiguous-switch,56,24,left,left,0.207
SAM1990WRNO,2020-01-21-12-04-44,8,59,0.6473892923534221,left,probe,ambiguous-stable,-1,3,left,left,0.274
SAM1990WRNO,2020-01-21-12-04-44,8,60,0.6239489792348163,left,both,ambiguous-stable,66,3,right,left,0.237
SAM1990WRNO,2020-01-21-12-04-44,9,1,0.6225992162405222,right,probe,ambiguous-stable,-1,3,right,right,0.418
SAM1990WRNO,2020-01-21-12-04-44,9,2,0.5896440989593703,right,both,ambiguous-stable,59,3,left,right,0.264
SAM1990WRNO,2020-01-21-12-04-44,9,3,0.6844718250697416,left,probe,ambiguous-stable,-1,-12,left,left,0.327
SAM1990WRNO,2020-01-21-12-04-44,9,4,0.5727253154514536,left,both,ambiguous-stable,61,-12,right,left,0.209
SAM1990WRNO,2020-01-21-12-04-44,9,5,0.6907694862680464,right,probe,biased-switch,-1,6,right,right,0.324
SAM1990WRNO,2020-01-21-12-04-44,9,6,0.5876760544005939,right,both,biased-switch,60,6,right,right,0.229
SAM1990WRNO,2020-01-21-12-04-44,9,7,0.5577782409320333,left,probe,ambiguous-switch,-1,12,left,left,0.231
SAM1990WRNO,2020-01-21-12-04-44,9,8,0.6718517825426417,left,both,ambiguous-switch,64,12,left,left,0.22
SAM1990WRNO,2020-01-21-12-04-44,9,9,0.6711846907179005,right,probe,biased-switch,-1,-6,right,right,0.43
SAM1990WRNO,2020-01-21-12-04-44,9,10,0.5662611986649695,right,both,biased-switch,56,-6,right,right,0.226
SAM1990WRNO,2020-01-21-12-04-44,9,11,0.636209116915282,right,probe,biased-switch,-1,0,right,right,0.273
SAM1990WRNO,2020-01-21-12-04-44,9,12,0.5564661876221054,right,both,biased-switch,60,0,right,right,0.24
SAM1990WRNO,2020-01-21-12-04-44,9,13,0.5759147784234782,left,probe,ambiguous-switch,-1,-6,left,left,0.22
SAM1990WRNO,2020-01-21-12-04-44,9,14,0.5985005004785071,left,both,ambiguous-switch,60,-6,left,left,0.19
SAM1990WRNO,2020-01-21-12-04-44,9,15,0.5211750923546018,right,probe,ambiguous-switch,-1,18,right,right,0.222
SAM1990WRNO,2020-01-21-12-04-44,9,16,0.693197050861222,right,both,ambiguous-switch,62,18,right,right,0.175
SAM1990WRNO,2020-01-21-12-04-44,9,17,0.67044413068538,left,probe,ambiguous-switch,-1,-18,left,left,0.251
SAM1990WRNO,2020-01-21-12-04-44,9,18,0.5599503401279319,left,both,ambiguous-switch,62,-18,left,left,0.217
SAM1990WRNO,2020-01-21-12-04-44,9,19,0.5682129022452936,right,probe,ambiguous-switch,-1,-12,right,right,0.241
SAM1990WRNO,2020-01-21-12-04-44,9,20,0.5131016205862159,right,both,ambiguous-switch,59,-12,right,right,0.222
SAM1990WRNO,2020-01-21-12-04-44,9,21,0.6972896757644127,left,probe,ambiguous-stable,-1,-6,left,left,0.203
SAM1990WRNO,2020-01-21-12-04-44,9,22,0.5706156692563483,left,both,ambiguous-stable,55,-6,right,left,0.189
SAM1990WRNO,2020-01-21-12-04-44,9,23,0.5583087682143819,left,probe,ambiguous-stable,-1,-18,left,left,0.275
SAM1990WRNO,2020-01-21-12-04-44,9,24,0.5393604896353382,left,both,ambiguous-stable,62,-18,right,left,0.222
SAM1990WRNO,2020-01-21-12-04-44,9,25,0.5109513881724753,right,probe,ambiguous-stable,-1,6,right,right,0.352
SAM1990WRNO,2020-01-21-12-04-44,9,26,0.5371425284645379,right,both,ambiguous-stable,58,6,left,right,0.217
SAM1990WRNO,2020-01-21-12-04-44,9,27,0.5771709857861382,right,probe,biased-switch,-1,12,right,right,0.288
SAM1990WRNO,2020-01-21-12-04-44,9,28,0.636629783988183,right,both,biased-switch,61,12,right,right,0.212
SAM1990WRNO,2020-01-21-12-04-44,9,29,0.6273363542829731,left,probe,biased-switch,-1,-12,left,left,0.205
SAM1990WRNO,2020-01-21-12-04-44,9,30,0.6124786191159678,left,both,biased-switch,57,-12,left,left,0.269
SAM1990WRNO,2020-01-21-12-04-44,9,31,0.5338947160948222,right,probe,biased-switch,-1,3,right,right,0.282
SAM1990WRNO,2020-01-21-12-04-44,9,32,0.6475276520665071,right,both,biased-switch,62,3,right,right,0.292
SAM1990WRNO,2020-01-21-12-04-44,9,33,0.6895664743885431,left,probe,ambiguous-stable,-1,12,left,left,0.223
SAM1990WRNO,2020-01-21-12-04-44,9,34,0.6947475262618121,left,both,ambiguous-stable,57,12,right,left,0.223
SAM1990WRNO,2020-01-21-12-04-44,9,35,0.6769108284053703,right,probe,ambiguous-switch,-1,0,right,right,0.191
SAM1990WRNO,2020-01-21-12-04-44,9,36,0.6132082465403775,right,both,ambiguous-switch,66,0,right,right,0.247
SAM1990WRNO,2020-01-21-12-04-44,9,37,0.517991439981603,left,probe,ambiguous-switch,-1,-3,left,left,0.326
SAM1990WRNO,2020-01-21-12-04-44,9,38,0.587366271866094,left,both,ambiguous-switch,66,-3,left,left,0.265
SAM1990WRNO,2020-01-21-12-04-44,9,39,0.6016366775812015,right,probe,ambiguous-stable,-1,18,right,right,0.317
SAM1990WRNO,2020-01-21-12-04-44,9,40,0.5173844959269521,right,both,ambiguous-stable,56,18,left,right,0.316
SAM1990WRNO,2020-01-21-12-04-44,9,41,0.6634451408100157,left,probe,biased-switch,-1,18,left,left,0.24
SAM1990WRNO,2020-01-21-12-04-44,9,42,0.6043540097026996,left,both,biased-switch,58,18,left,left,0.189
SAM1990WRNO,2020-01-21-12-04-44,9,43,0.6013648891102663,left,probe,ambiguous-switch,-1,6,left,left,0.241
SAM1990WRNO,2020-01-21-12-04-44,9,44,0.5990639073927319,left,both,ambiguous-switch,65,6,left,left,0.211
SAM1990WRNO,2020-01-21-12-04-44,9,45,0.5893543886015914,right,probe,ambiguous-stable,-1,24,right,right,0.223
SAM1990WRNO,2020-01-21-12-04-44,9,46,0.5081086878405368,right,both,ambiguous-stable,64,24,left,right,0.313
SAM1990WRNO,2020-01-21-12-04-44,9,47,0.6414984565740915,right,probe,ambiguous-switch,-1,3,right,right,0.284
SAM1990WRNO,2020-01-21-12-04-44,9,48,0.5192481587331517,right,both,ambiguous-switch,58,3,right,right,0.314
SAM1990WRNO,2020-01-21-12-04-44,9,49,0.5536052959785562,left,probe,biased-switch,-1,24,left,left,0.192
SAM1990WRNO,2020-01-21-12-04-44,9,50,0.5095039759499449,left,both,biased-switch,63,24,left,left,0.195
SAM1990WRNO,2020-01-21-12-04-44,9,51,0.5624388716695481,right,probe,ambiguous-stable,-1,-3,right,right,0.21
SAM1990WRNO,2020-01-21-12-04-44,9,52,0.5191073063565734,right,both,ambiguous-stable,59,-3,left,right,0.235
SAM1990WRNO,2020-01-21-12-04-44,9,53,0.6889412373914101,left,probe,ambiguous-switch,-1,24,left,left,0.343
SAM1990WRNO,2020-01-21-12-04-44,9,54,0.5217859001522791,left,both,ambiguous-switch,54,24,left,left,0.24
SAM1990WRNO,2020-01-21-12-04-44,9,55,0.5537940209287943,right,probe,ambiguous-stable,-1,0,right,right,0.262
SAM1990WRNO,2020-01-21-12-04-44,9,56,0.5280865482365514,right,both,ambiguous-stable,59,0,left,right,0.302
SAM1990WRNO,2020-01-21-12-04-44,9,57,0.5487789498693914,right,probe,biased-switch,-1,-18,right,right,0.326
SAM1990WRNO,2020-01-21-12-04-44,9,58,0.6544020566293854,right,both,biased-switch,60,-18,right,right,0.263
SAM1990WRNO,2020-01-21-12-04-44,9,59,0.5208112291017722,right,probe,biased-switch,-1,-3,right,right,0.477
SAM1990WRNO,2020-01-21-12-04-44,9,60,0.5757020644627414,right,both,biased-switch,65,-3,right,right,0.249
SAM1990WRNO,2020-01-21-12-04-44,10,1,0.5579815295273112,left,probe,ambiguous-switch,-1,-18,left,left,0.234
SAM1990WRNO,2020-01-21-12-04-44,10,2,0.5142176158032564,left,both,ambiguous-switch,56,-18,left,left,0.349
SAM1990WRNO,2020-01-21-12-04-44,10,3,0.629698845884276,right,probe,ambiguous-switch,-1,18,right,right,0.404
SAM1990WRNO,2020-01-21-12-04-44,10,4,0.6461878220967144,right,both,ambiguous-switch,63,18,right,right,0.243
SAM1990WRNO,2020-01-21-12-04-44,10,5,0.5097393246265248,left,probe,biased-switch,-1,0,left,left,0.256
SAM1990WRNO,2020-01-21-12-04-44,10,6,0.6632613857744237,left,both,biased-switch,62,0,left,left,0.272
SAM1990WRNO,2020-01-21-12-04-44,10,7,0.6738413068817213,right,probe,ambiguous-switch,-1,-3,right,right,0.268
SAM1990WRNO,2020-01-21-12-04-44,10,8,0.6243885303227739,right,both,ambiguous-switch,58,-3,right,right,0.234
SAM1990WRNO,2020-01-21-12-04-44,10,9,0.564327712686244,left,probe,ambiguous-switch,-1,24,left,left,0.222
SAM1990WRNO,2020-01-21-12-04-44,10,10,0.6093713738864059,left,both,ambiguous-switch,63,24,left,left,0.234
SAM1990WRNO,2020-01-21-12-04-44,10,11,0.6331651578819336,left,probe,ambiguous-switch,-1,3,left,left,0.352
SAM1990WRNO,2020-01-21-12-04-44,10,12,0.5556628180282087,left,both,ambiguous-switch,60,3,left,left,0.242
SAM1990WRNO,2020-01-21-12-04-44,10,13,0.5854675141474375,right,probe,ambiguous-stable,-1,12,right,right,0.469
SAM1990WRNO,2020-01-21-12-04-44,10,14,0.6216390728471303,right,both,ambiguous-stable,65,12,left,right,0.242
SAM1990WRNO,2020-01-21-12-04-44,10,15,0.5795188385041508,right,probe,ambiguous-switch,-1,12,right,right,0.6
SAM1990WRNO,2020-01-21-12-04-44,10,16,0.6984000826664417,right,both,ambiguous-switch,58,12,right,right,0.269
SAM1990WRNO,2020-01-21-12-04-44,10,17,0.5372980348084171,left,probe,ambiguous-switch,-1,-12,left,left,0.318
SAM1990WRNO,2020-01-21-12-04-44,10,18,0.5406543029441683,left,both,ambiguous-switch,61,-12,left,left,0.219
SAM1990WRNO,2020-01-21-12-04-44,10,19,0.5477806625393284,right,probe,ambiguous-switch,-1,0,right,right,0.33
SAM1990WRNO,2020-01-21-12-04-44,10,20,0.5002504372411495,right,both,ambiguous-switch,57,0,right,right,0.294
SAM1990WRNO,2020-01-21-12-04-44,10,21,0.6891268187527213,left,probe,ambiguous-switch,-1,6,left,left,0.598
SAM1990WRNO,2020-01-21-12-04-44,10,22,0.5972980320757362,left,both,ambiguous-switch,63,6,left,left,0.221
SAM1990WRNO,2020-01-21-12-04-44,10,23,0.609503496652588,left,probe,biased-switch,-1,-3,left,left,0.248
SAM1990WRNO,2020-01-21-12-04-44,10,24,0.6640749715085018,left,both,biased-switch,55,-3,left,left,0.148
SAM1990WRNO,2020-01-21-12-04-44,10,25,0.6154475021581813,left,probe,ambiguous-stable,-1,18,left,left,0.213
SAM1990WRNO,2020-01-21-12-04-44,10,26,0.6292830682875092,left,both,ambiguous-stable,56,18,right,left,0.192
SAM1990WRNO,2020-01-21-12-04-44,10,27,0.5122460257937713,right,probe,biased-switch,-1,-18,right,right,0.231
SAM1990WRNO,2020-01-21-12-04-44,10,28,0.5377532959617857,right,both,biased-switch,59,-18,right,right,0.255
SAM1990WRNO,2020-01-21-12-04-44,10,29,0.6906096372991948,left,probe,biased-switch,-1,-12,left,left,0.206
SAM1990WRNO,2020-01-21-12-04-44,10,30,0.6440724288631787,left,both,biased-switch,64,-12,left,left,0.209
SAM1990WRNO,2020-01-21-12-04-44,10,31,0.5213401727351233,left,probe,ambiguous-stable,-1,24,left,left,0.284
SAM1990WRNO,2020-01-21-12-04-44,10,32,0.591742162929528,left,both,ambiguous-stable,57,24,right,left,0.394
SAM1990WRNO,2020-01-21-12-04-44,10,33,0.626712820015519,left,probe,biased-switch,-1,3,left,left,0.245
SAM1990WRNO,2020-01-21-12-04-44,10,34,0.5523705701208089,left,both,biased-switch,58,3,left,left,0.185
SAM1990WRNO,2020-01-21-12-04-44,10,35,0.538979399835657,left,probe,ambiguous-stable,-1,-18,left,left,0.203
SAM1990WRNO,2020-01-21-12-04-44,10,36,0.569648128341221,left,both,ambiguous-stable,56,-18,right,left,0.457
SAM1990WRNO,2020-01-21-12-04-44,10,37,0.68166085356673,right,probe,ambiguous-stable,-1,-3,right,right,0.247
SAM1990WRNO,2020-01-21-12-04-44,10,38,0.5189277097159427,right,both,ambiguous-stable,61,-3,left,right,0.235
SAM1990WRNO,2020-01-21-12-04-44,10,39,0.6052246058198574,left,probe,biased-switch,-1,-6,left,left,0.205
SAM1990WRNO,2020-01-21-12-04-44,10,40,0.6060725047039175,left,both,biased-switch,63,-6,left,left,0.241
SAM1990WRNO,2020-01-21-12-04-44,10,41,0.6183261849537472,left,probe,ambiguous-switch,-1,-6,left,left,0.583
SAM1990WRNO,2020-01-21-12-04-44,10,42,0.6493005016333231,left,both,ambiguous-switch,56,-6,left,left,0.221
SAM1990WRNO,2020-01-21-12-04-44,10,43,0.6410135626415951,left,probe,ambiguous-stable,-1,-12,left,left,0.229
SAM1990WRNO,2020-01-21-12-04-44,10,44,0.6066003098474447,left,both,ambiguous-stable,56,-12,right,left,0.223
SAM1990WRNO,2020-01-21-12-04-44,10,45,0.6603171859161385,left,probe,biased-switch,-1,6,left,left,0.23
SAM1990WRNO,2020-01-21-12-04-44,10,46,0.6420190642625697,left,both,biased-switch,54,6,left,left,0.218
SAM1990WRNO,2020-01-21-12-04-44,10,47,0.5121240078661448,right,probe,ambiguous-stable,-1,6,right,right,0.322
SAM1990WRNO,2020-01-21-12-04-44,10,48,0.6483241327729048,right,both,ambiguous-stable,65,6,left,right,0.244
SAM1990WRNO,2020-01-21-12-04-44,10,49,0.6511035147296611,right,probe,ambiguous-stable,-1,3,right,right,0.518
SAM1990WRNO,2020-01-21-12-04-44,10,50,0.5591962698616395,right,both,ambiguous-stable,55,3,left,right,0.244
SAM1990WRNO,2020-01-21-12-04-44,10,51,0.6503024300357167,left,probe,ambiguous-stable,-1,0,left,left,0.256
SAM1990WRNO,2020-01-21-12-04-44,10,52,0.6942049049323018,left,both,ambiguous-stable,63,0,right,left,0.24
SAM1990WRNO,2020-01-21-12-04-44,10,53,0.5945835783074614,right,probe,biased-switch,-1,24,right,right,0.38
SAM1990WRNO,2020-01-21-12-04-44,10,54,0.5287833170629348,right,both,biased-switch,64,24,right,right,0.376
SAM1990WRNO,2020-01-21-12-04-44,10,55,0.5767422844899653,right,probe,ambiguous-stable,-1,-6,right,right,0.433
SAM1990WRNO,2020-01-21-12-04-44,10,56,0.5951650275661599,right,both,ambiguous-stable,60,-6,left,right,0.383
SAM1990WRNO,2020-01-21-12-04-44,10,57,0.5748917158517637,left,probe,biased-switch,-1,18,left,left,0.25
SAM1990WRNO,2020-01-21-12-04-44,10,58,0.6770002518816178,left,both,biased-switch,58,18,left,left,0.239
SAM1990WRNO,2020-01-21-12-04-44,10,59,0.6131891042264186,right,probe,biased-switch,-1,12,right,right,0.316
SAM1990WRNO,2020-01-21-12-04-44,10,60,0.5499190911624183,right,both,biased-switch,59,12,right,right,0.262
