Participant,Session,Block,Trial,OnsetDelay,ProbeLocation,WhatIsReported,Condition,TriggerTime,ProbeSOA,PrimeDirection,Response,RT
DEK2001WRNO,2020-01-29-12-17-59,1,1,0.6375725603594891,right,probe,biased-switch,-1,12,left,left,0.46
DEK2001WRNO,2020-01-29-12-17-59,1,2,0.5076436807570791,right,both,biased-switch,60,12,left,right,0.22
DEK2001WRNO,2020-01-29-12-17-59,1,3,0.5357925239912178,left,probe,ambiguous-switch,-1,6,left,left,0.283
DEK2001WRNO,2020-01-29-12-17-59,1,4,0.562998597134163,left,both,ambiguous-switch,62,6,left,right,0.26
DEK2001WRNO,2020-01-29-12-17-59,1,5,0.5215545422571511,left,probe,ambiguous-switch,-1,0,left,left,0.282
DEK2001WRNO,2020-01-29-12-17-59,1,6,0.6671115993210925,left,both,ambiguous-switch,57,0,left,left,0.245
DEK2001WRNO,2020-01-29-12-17-59,1,7,0.5392547175051284,left,probe,biased-switch,-1,18,left,left,0.281
DEK2001WRNO,2020-01-29-12-17-59,1,8,0.6735372777118769,left,both,biased-switch,54,18,left,right,0.256
DEK2001WRNO,2020-01-29-12-17-59,1,9,0.6455659267063122,left,probe,biased-switch,-1,-6,left,left,0.223
DEK2001WRNO,2020-01-29-12-17-59,1,10,0.5236867895788969,left,both,biased-switch,58,-6,left,left,0.236
DEK2001WRNO,2020-01-29-12-17-59,1,11,0.5686797786580629,right,probe,biased-switch,-1,0,left,left,0.306
DEK2001WRNO,2020-01-29-12-17-59,1,12,0.6539407378397974,right,both,biased-switch,55,0,left,right,0.25
DEK2001WRNO,2020-01-29-12-17-59,1,13,0.6688084030819684,left,probe,ambiguous-switch,-1,24,left,left,0.261
DEK2001WRNO,2020-01-29-12-17-59,1,14,0.5553391532755753,left,both,ambiguous-switch,64,24,left,left,0.235
DEK2001WRNO,2020-01-29-12-17-59,1,15,0.6413047014673009,left,probe,biased-switch,-1,3,left,left,0.254
DEK2001WRNO,2020-01-29-12-17-59,1,16,0.5835166841263245,left,both,biased-switch,65,3,left,right,0.289
DEK2001WRNO,2020-01-29-12-17-59,1,17,0.5607117403674898,left,probe,ambiguous-switch,-1,-6,right,right,0.269
DEK2001WRNO,2020-01-29-12-17-59,1,18,0.6559383288875235,left,both,ambiguous-switch,64,-6,right,right,0.256
DEK2001WRNO,2020-01-29-12-17-59,1,19,0.5737875477263706,left,probe,ambiguous-switch,-1,12,right,right,0.219
DEK2001WRNO,2020-01-29-12-17-59,1,20,0.5739835763328852,left,both,ambiguous-switch,54,12,right,left,0.228
DEK2001WRNO,2020-01-29-12-17-59,1,21,0.5592655989837766,left,probe,ambiguous-switch,-1,18,left,left,0.202
DEK2001WRNO,2020-01-29-12-17-59,1,22,0.5728866733900146,left,both,ambiguous-switch,62,18,left,left,0.2
DEK2001WRNO,2020-01-29-12-17-59,1,23,0.5086856229008521,right,probe,biased-switch,-1,6,left,left,0.216
DEK2001WRNO,2020-01-29-12-17-59,1,24,0.6183456654400886,right,both,biased-switch,64,6,left,left,0.172
DEK2001WRNO,2020-01-29-12-17-59,1,25,0.636999044060436,left,probe,biased-switch,-1,-18,left,left,0.199
DEK2001WRNO,2020-01-29-12-17-59,1,26,0.5880272802062044,left,both,biased-switch,60,-18,left,left,0.578
DEK2001WRNO,2020-01-29-12-17-59,1,27,0.6825813944333371,right,probe,ambiguous-switch,-1,3,left,left,0.251
DEK2001WRNO,2020-01-29-12-17-59,1,28,0.6319900929696797,right,both,ambiguous-switch,64,3,left,left,0.205
DEK2001WRNO,2020-01-29-12-17-59,1,29,0.6218888793807059,right,probe,ambiguous-switch,-1,-3,left,left,0.357
DEK2001WRNO,2020-01-29-12-17-59,1,30,0.6093733853088504,right,both,ambiguous-switch,62,-3,left,left,0.204
DEK2001WRNO,2020-01-29-12-17-59,1,31,0.5117816342331051,right,probe,ambiguous-switch,-1,-12,left,left,0.299
DEK2001WRNO,2020-01-29-12-17-59,1,32,0.5492415330764379,right,both,ambiguous-switch,58,-12,left,left,0.244
DEK2001WRNO,2020-01-29-12-17-59,1,33,0.5272378891528391,left,probe,ambiguous-switch,-1,-18,left,left,0.242
DEK2001WRNO,2020-01-29-12-17-59,1,34,0.6427583040058218,left,both,ambiguous-switch,55,-18,left,right,0.225
DEK2001WRNO,2020-01-29-12-17-59,1,35,0.5380712921672258,right,probe,biased-switch,-1,-3,left,left,0.242
DEK2001WRNO,2020-01-29-12-17-59,1,36,0.5454119889623936,right,both,biased-switch,64,-3,left,left,0.193
DEK2001WRNO,2020-01-29-12-17-59,1,37,0.5135025055028607,left,probe,biased-switch,-1,24,left,left,0.224
DEK2001WRNO,2020-01-29-12-17-59,1,38,0.6021927437574616,left,both,biased-switch,58,24,left,left,0.365
DEK2001WRNO,2020-01-29-12-17-59,1,39,0.695421061870178,left,probe,biased-switch,-1,-12,left,left,0.435
DEK2001WRNO,2020-01-29-12-17-59,1,40,0.5583900604053701,left,both,biased-switch,65,-12,left,left,0.195
DEK2001WRNO,2020-01-29-12-17-59,1,41,0.6504983521589831,left,probe,biased-switch,-1,12,left,left,0.247
DEK2001WRNO,2020-01-29-12-17-59,1,42,0.5434874744666158,left,both,biased-switch,60,12,left,right,0.249
DEK2001WRNO,2020-01-29-12-17-59,1,43,0.5331058024715528,right,probe,ambiguous-switch,-1,6,left,left,0.205
DEK2001WRNO,2020-01-29-12-17-59,1,44,0.6570769867662573,right,both,ambiguous-switch,62,6,left,left,0.178
DEK2001WRNO,2020-01-29-12-17-59,1,45,0.6612625897741223,left,probe,ambiguous-switch,-1,0,left,left,0.212
DEK2001WRNO,2020-01-29-12-17-59,1,46,0.5319047199679308,left,both,ambiguous-switch,64,0,left,left,0.184
DEK2001WRNO,2020-01-29-12-17-59,1,47,0.6214458000246813,right,probe,biased-switch,-1,18,left,left,0.335
DEK2001WRNO,2020-01-29-12-17-59,1,48,0.5183934796704245,right,both,biased-switch,55,18,left,right,0.241
DEK2001WRNO,2020-01-29-12-17-59,1,49,0.5088439050004789,right,probe,biased-switch,-1,-6,left,left,0.31
DEK2001WRNO,2020-01-29-12-17-59,1,50,0.6167977218994789,right,both,biased-switch,58,-6,left,right,0.337
DEK2001WRNO,2020-01-29-12-17-59,1,51,0.6049868073614094,right,probe,biased-switch,-1,0,left,left,0.207
DEK2001WRNO,2020-01-29-12-17-59,1,52,0.5987640849883057,right,both,biased-switch,58,0,left,right,0.246
DEK2001WRNO,2020-01-29-12-17-59,1,53,0.6690591408777016,right,probe,ambiguous-switch,-1,24,left,left,0.276
DEK2001WRNO,2020-01-29-12-17-59,1,54,0.5727458204496843,right,both,ambiguous-switch,63,24,left,right,0.261
DEK2001WRNO,2020-01-29-12-17-59,1,55,0.6840072364422026,right,probe,biased-switch,-1,3,right,right,0.265
DEK2001WRNO,2020-01-29-12-17-59,1,56,0.5381429453890637,right,both,biased-switch,55,3,right,left,0.209
DEK2001WRNO,2020-01-29-12-17-59,1,57,0.6807418397178904,left,probe,ambiguous-switch,-1,-6,right,right,0.217
DEK2001WRNO,2020-01-29-12-17-59,1,58,0.6828828547758901,left,both,ambiguous-switch,61,-6,right,right,0.238
DEK2001WRNO,2020-01-29-12-17-59,1,59,0.5176676393948122,right,probe,ambiguous-switch,-1,12,right,right,0.204
DEK2001WRNO,2020-01-29-12-17-59,1,60,0.578999938726753,right,both,ambiguous-switch,65,12,right,right,0.205
DEK2001WRNO,2020-01-29-12-17-59,1,61,0.6362479155780819,right,probe,ambiguous-switch,-1,18,right,right,0.233
DEK2001WRNO,2020-01-29-12-17-59,1,62,0.570111226382992,right,both,ambiguous-switch,64,18,right,right,0.227
DEK2001WRNO,2020-01-29-12-17-59,1,63,0.6352785163533092,right,probe,biased-switch,-1,6,right,right,0.328
DEK2001WRNO,2020-01-29-12-17-59,1,64,0.6265371788036177,right,both,biased-switch,65,6,right,right,0.209
DEK2001WRNO,2020-01-29-12-17-59,1,65,0.563949287616006,left,probe,biased-switch,-1,-18,right,right,0.462
DEK2001WRNO,2020-01-29-12-17-59,1,66,0.6649518189699297,left,both,biased-switch,62,-18,right,right,0.241
DEK2001WRNO,2020-01-29-12-17-59,1,67,0.5910282715371421,left,probe,ambiguous-switch,-1,3,right,right,0.249
DEK2001WRNO,2020-01-29-12-17-59,1,68,0.6578087287390327,left,both,ambiguous-switch,59,3,right,right,0.272
DEK2001WRNO,2020-01-29-12-17-59,1,69,0.6650584966607013,left,probe,ambiguous-switch,-1,-3,right,right,0.261
DEK2001WRNO,2020-01-29-12-17-59,1,70,0.5458729309560899,left,both,ambiguous-switch,62,-3,right,right,0.193
DEK2001WRNO,2020-01-29-12-17-59,1,71,0.5615366630336698,right,probe,ambiguous-switch,-1,-12,right,right,0.268
DEK2001WRNO,2020-01-29-12-17-59,1,72,0.510363445571465,right,both,ambiguous-switch,65,-12,right,right,0.247
DEK2001WRNO,2020-01-29-12-17-59,1,73,0.5336231721937869,left,probe,ambiguous-switch,-1,-18,right,right,0.217
DEK2001WRNO,2020-01-29-12-17-59,1,74,0.5533752503006931,left,both,ambiguous-switch,59,-18,right,right,0.255
DEK2001WRNO,2020-01-29-12-17-59,1,75,0.5517507685152496,right,probe,biased-switch,-1,-3,right,right,0.266
DEK2001WRNO,2020-01-29-12-17-59,1,76,0.567623040037362,right,both,biased-switch,61,-3,right,right,0.245
DEK2001WRNO,2020-01-29-12-17-59,1,77,0.687654113280379,left,probe,biased-switch,-1,24,right,right,0.231
DEK2001WRNO,2020-01-29-12-17-59,1,78,0.6526786887159819,left,both,biased-switch,59,24,right,right,0.275
DEK2001WRNO,2020-01-29-12-17-59,1,79,0.6537843336178437,left,probe,biased-switch,-1,-12,right,right,0.234
DEK2001WRNO,2020-01-29-12-17-59,1,80,0.6415796445884815,left,both,biased-switch,62,-12,right,left,0.247
DEK2001WRNO,2020-01-29-12-17-59,2,1,0.6541400608453475,left,probe,biased-switch,-1,3,right,right,0.296
DEK2001WRNO,2020-01-29-12-17-59,2,2,0.6241746590806864,left,both,biased-switch,66,3,right,left,0.208
DEK2001WRNO,2020-01-29-12-17-59,2,3,0.6683575558072018,right,probe,ambiguous-switch,-1,3,right,right,0.205
DEK2001WRNO,2020-01-29-12-17-59,2,4,0.6960493311943214,right,both,ambiguous-switch,56,3,right,left,0.237
DEK2001WRNO,2020-01-29-12-17-59,2,5,0.5335476049857637,left,probe,ambiguous-switch,-1,0,right,right,0.232
DEK2001WRNO,2020-01-29-12-17-59,2,6,0.6892009900140653,left,both,ambiguous-switch,61,0,right,left,0.278
DEK2001WRNO,2020-01-29-12-17-59,2,7,0.6862937721833922,left,probe,ambiguous-switch,-1,-3,left,left,0.19
DEK2001WRNO,2020-01-29-12-17-59,2,8,0.6143486662779849,left,both,ambiguous-switch,59,-3,left,right,0.213
DEK2001WRNO,2020-01-29-12-17-59,2,9,0.6978109663745704,right,probe,biased-switch,-1,-12,left,left,0.237
DEK2001WRNO,2020-01-29-12-17-59,2,10,0.5560775796988325,right,both,biased-switch,65,-12,left,left,2.956
DEK2001WRNO,2020-01-29-12-17-59,2,11,0.5558847147994141,right,probe,biased-switch,-1,-6,left,left,0.348
DEK2001WRNO,2020-01-29-12-17-59,2,12,0.5815666337862044,right,both,biased-switch,59,-6,left,left,0.494
DEK2001WRNO,2020-01-29-12-17-59,2,13,0.5347662839081163,left,probe,ambiguous-switch,-1,24,left,left,0.377
DEK2001WRNO,2020-01-29-12-17-59,2,14,0.5039609816402252,left,both,ambiguous-switch,64,24,left,left,0.316
DEK2001WRNO,2020-01-29-12-17-59,2,15,0.5772539801484236,right,probe,ambiguous-switch,-1,-12,left,left,0.399
DEK2001WRNO,2020-01-29-12-17-59,2,16,0.5460521589526142,right,both,ambiguous-switch,64,-12,left,right,0.199
DEK2001WRNO,2020-01-29-12-17-59,2,17,0.520544917728156,left,probe,ambiguous-switch,-1,-6,left,left,0.426
DEK2001WRNO,2020-01-29-12-17-59,2,18,0.6703090481277582,left,both,ambiguous-switch,54,-6,left,left,0.24
DEK2001WRNO,2020-01-29-12-17-59,2,19,0.5327585058275034,right,probe,biased-switch,-1,0,right,right,0.43
DEK2001WRNO,2020-01-29-12-17-59,2,20,0.5974591341097235,right,both,biased-switch,57,0,right,left,0.231
DEK2001WRNO,2020-01-29-12-17-59,2,21,0.6538179518775142,right,probe,biased-switch,-1,-18,left,left,0.231
DEK2001WRNO,2020-01-29-12-17-59,2,22,0.6389039475977933,right,both,biased-switch,61,-18,left,right,0.28
DEK2001WRNO,2020-01-29-12-17-59,2,23,0.6608338910277883,left,probe,biased-switch,-1,18,left,left,0.268
DEK2001WRNO,2020-01-29-12-17-59,2,24,0.5868237746209798,left,both,biased-switch,56,18,left,right,0.32
DEK2001WRNO,2020-01-29-12-17-59,2,25,0.6888686454125992,left,probe,biased-switch,-1,24,left,left,0.278
DEK2001WRNO,2020-01-29-12-17-59,2,26,0.636200446535617,left,both,biased-switch,64,24,left,left,0.236
DEK2001WRNO,2020-01-29-12-17-59,2,27,0.6320083033469757,left,probe,biased-switch,-1,6,left,left,0.356
DEK2001WRNO,2020-01-29-12-17-59,2,28,0.6796594798308939,left,both,biased-switch,60,6,left,right,0.22
DEK2001WRNO,2020-01-29-12-17-59,2,29,0.5777278749906005,right,probe,biased-switch,-1,12,right,right,0.285
DEK2001WRNO,2020-01-29-12-17-59,2,30,0.6717221950044229,right,both,biased-switch,56,12,right,right,0.272
DEK2001WRNO,2020-01-29-12-17-59,2,31,0.6127147756417629,right,probe,ambiguous-switch,-1,18,right,right,0.362
DEK2001WRNO,2020-01-29-12-17-59,2,32,0.5732524736757346,right,both,ambiguous-switch,63,18,right,right,0.302
DEK2001WRNO,2020-01-29-12-17-59,2,33,0.6384188766743552,right,probe,biased-switch,-1,-3,right,right,0.411
DEK2001WRNO,2020-01-29-12-17-59,2,34,0.6145475150246897,right,both,biased-switch,62,-3,right,right,0.254
DEK2001WRNO,2020-01-29-12-17-59,2,35,0.6550922705060316,right,probe,ambiguous-switch,-1,-18,right,right,0.208
DEK2001WRNO,2020-01-29-12-17-59,2,36,0.6357568090489344,right,both,ambiguous-switch,66,-18,right,right,0.283
DEK2001WRNO,2020-01-29-12-17-59,2,37,0.6698884607721429,right,probe,ambiguous-switch,-1,6,right,right,0.272
DEK2001WRNO,2020-01-29-12-17-59,2,38,0.6715365916734858,right,both,ambiguous-switch,54,6,right,right,0.146
DEK2001WRNO,2020-01-29-12-17-59,2,39,0.5942365637342797,right,probe,ambiguous-switch,-1,12,right,right,0.236
DEK2001WRNO,2020-01-29-12-17-59,2,40,0.6891374216546569,right,both,ambiguous-switch,57,12,right,right,0.258
DEK2001WRNO,2020-01-29-12-17-59,2,41,0.6994985043484556,left,probe,biased-switch,-1,3,right,right,0.257
DEK2001WRNO,2020-01-29-12-17-59,2,42,0.5619498222211607,left,both,biased-switch,59,3,right,left,0.359
DEK2001WRNO,2020-01-29-12-17-59,2,43,0.5910169613954472,left,probe,ambiguous-switch,-1,3,right,right,0.256
DEK2001WRNO,2020-01-29-12-17-59,2,44,0.6683463349481197,left,both,ambiguous-switch,64,3,right,left,0.284
DEK2001WRNO,2020-01-29-12-17-59,2,45,0.6659169434485825,right,probe,ambiguous-switch,-1,0,right,right,0.239
DEK2001WRNO,2020-01-29-12-17-59,2,46,0.5189954921204295,right,both,ambiguous-switch,59,0,right,right,0.197
DEK2001WRNO,2020-01-29-12-17-59,2,47,0.6685011641520726,right,probe,ambiguous-switch,-1,-3,right,right,0.381
DEK2001WRNO,2020-01-29-12-17-59,2,48,0.5619901511827181,right,both,ambiguous-switch,65,-3,right,left,0.273
DEK2001WRNO,2020-01-29-12-17-59,2,49,0.6211914345427326,left,probe,biased-switch,-1,-12,right,right,0.537
DEK2001WRNO,2020-01-29-12-17-59,2,50,0.5703039018876246,left,both,biased-switch,60,-12,right,left,0.278
DEK2001WRNO,2020-01-29-12-17-59,2,51,0.6083516602271564,right,probe,biased-switch,-1,-6,right,right,0.266
DEK2001WRNO,2020-01-29-12-17-59,2,52,0.622582132093125,right,both,biased-switch,66,-6,right,right,1.568
DEK2001WRNO,2020-01-29-12-17-59,2,53,0.6450809682621614,left,probe,ambiguous-switch,-1,24,right,right,0.501
DEK2001WRNO,2020-01-29-12-17-59,2,54,0.5548081532092446,left,both,ambiguous-switch,60,24,right,left,0.311
DEK2001WRNO,2020-01-29-12-17-59,2,55,0.5404057647120725,left,probe,ambiguous-switch,-1,-12,left,left,0.257
DEK2001WRNO,2020-01-29-12-17-59,2,56,0.6304929371233392,left,both,ambiguous-switch,56,-12,left,left,0.313
DEK2001WRNO,2020-01-29-12-17-59,2,57,0.5904770532246998,left,probe,ambiguous-switch,-1,-6,left,left,0.237
DEK2001WRNO,2020-01-29-12-17-59,2,58,0.5159643911916977,left,both,ambiguous-switch,57,-6,left,left,0.204
DEK2001WRNO,2020-01-29-12-17-59,2,59,0.546289765941411,left,probe,biased-switch,-1,0,left,left,0.256
DEK2001WRNO,2020-01-29-12-17-59,2,60,0.6433665181432381,left,both,biased-switch,61,0,left,left,0.255
DEK2001WRNO,2020-01-29-12-17-59,2,61,0.6335795316909607,left,probe,biased-switch,-1,-18,left,left,0.457
DEK2001WRNO,2020-01-29-12-17-59,2,62,0.5035420131237839,left,both,biased-switch,55,-18,left,right,0.214
DEK2001WRNO,2020-01-29-12-17-59,2,63,0.6104768484506379,right,probe,biased-switch,-1,18,left,left,0.455
DEK2001WRNO,2020-01-29-12-17-59,2,64,0.5375522778674273,right,both,biased-switch,63,18,left,right,0.187
DEK2001WRNO,2020-01-29-12-17-59,2,65,0.5209132971901207,right,probe,biased-switch,-1,24,left,left,0.235
DEK2001WRNO,2020-01-29-12-17-59,2,66,0.5041207783638862,right,both,biased-switch,55,24,left,right,0.459
DEK2001WRNO,2020-01-29-12-17-59,2,67,0.637484011571639,left,probe,biased-switch,-1,6,left,left,0.283
DEK2001WRNO,2020-01-29-12-17-59,2,68,0.5254735280637679,left,both,biased-switch,58,6,left,right,0.279
DEK2001WRNO,2020-01-29-12-17-59,2,69,0.6604866046796936,left,probe,biased-switch,-1,12,right,right,0.263
DEK2001WRNO,2020-01-29-12-17-59,2,70,0.6043006880847905,left,both,biased-switch,63,12,right,right,0.231
DEK2001WRNO,2020-01-29-12-17-59,2,71,0.5961666109763822,left,probe,ambiguous-switch,-1,18,right,right,0.324
DEK2001WRNO,2020-01-29-12-17-59,2,72,0.6181549748757877,left,both,ambiguous-switch,65,18,right,left,0.202
DEK2001WRNO,2020-01-29-12-17-59,2,73,0.5170818639816924,right,probe,biased-switch,-1,-3,right,right,0.239
DEK2001WRNO,2020-01-29-12-17-59,2,74,0.589369425592933,right,both,biased-switch,62,-3,right,right,0.339
DEK2001WRNO,2020-01-29-12-17-59,2,75,0.6784957682464697,right,probe,ambiguous-switch,-1,-18,right,right,0.319
DEK2001WRNO,2020-01-29-12-17-59,2,76,0.6942381435633719,right,both,ambiguous-switch,63,-18,right,left,0.21
DEK2001WRNO,2020-01-29-12-17-59,2,77,0.6275524582259593,left,probe,ambiguous-switch,-1,6,right,right,0.251
DEK2001WRNO,2020-01-29-12-17-59,2,78,0.5447800378106338,left,both,ambiguous-switch,55,6,right,left,0.243
DEK2001WRNO,2020-01-29-12-17-59,2,79,0.6534227537930564,left,probe,ambiguous-switch,-1,12,left,left,0.215
DEK2001WRNO,2020-01-29-12-17-59,2,80,0.5834706920412793,left,both,ambiguous-switch,60,12,left,left,0.211
DEK2001WRNO,2020-01-29-12-17-59,3,1,0.5801411352717964,left,probe,ambiguous-switch,-1,-12,left,left,0.252
DEK2001WRNO,2020-01-29-12-17-59,3,2,0.6280279040731889,left,both,ambiguous-switch,63,-12,left,left,0.608
DEK2001WRNO,2020-01-29-12-17-59,3,3,0.6099220088223255,left,probe,biased-switch,-1,-6,left,left,0.255
DEK2001WRNO,2020-01-29-12-17-59,3,4,0.521619413861431,left,both,biased-switch,61,-6,left,right,0.327
DEK2001WRNO,2020-01-29-12-17-59,3,5,0.5251744547074028,right,probe,ambiguous-switch,-1,0,left,left,0.264
DEK2001WRNO,2020-01-29-12-17-59,3,6,0.5469202445509745,right,both,ambiguous-switch,54,0,left,left,0.207
DEK2001WRNO,2020-01-29-12-17-59,3,7,0.6205562957576032,left,probe,biased-switch,-1,-3,left,left,0.902
DEK2001WRNO,2020-01-29-12-17-59,3,8,0.5061319101947425,left,both,biased-switch,56,-3,left,right,0.259
DEK2001WRNO,2020-01-29-12-17-59,3,9,0.6692833716107593,left,probe,ambiguous-switch,-1,-18,left,left,0.231
DEK2001WRNO,2020-01-29-12-17-59,3,10,0.6555082075669584,left,both,ambiguous-switch,56,-18,left,left,0.233
DEK2001WRNO,2020-01-29-12-17-59,3,11,0.5353276963391971,right,probe,ambiguous-switch,-1,24,left,left,0.306
DEK2001WRNO,2020-01-29-12-17-59,3,12,0.6375133531118018,right,both,ambiguous-switch,58,24,left,left,0.213
DEK2001WRNO,2020-01-29-12-17-59,3,13,0.5659366203961004,right,probe,ambiguous-switch,-1,3,left,left,0.249
DEK2001WRNO,2020-01-29-12-17-59,3,14,0.6759092158177926,right,both,ambiguous-switch,55,3,left,left,0.263
DEK2001WRNO,2020-01-29-12-17-59,3,15,0.640039608700734,right,probe,biased-switch,-1,0,left,left,0.234
DEK2001WRNO,2020-01-29-12-17-59,3,16,0.5969417996314119,right,both,biased-switch,55,0,left,right,0.46
DEK2001WRNO,2020-01-29-12-17-59,3,17,0.6382740133886338,left,probe,ambiguous-switch,-1,6,left,left,0.437
DEK2001WRNO,2020-01-29-12-17-59,3,18,0.5702738797305502,left,both,ambiguous-switch,58,6,left,right,0.208
DEK2001WRNO,2020-01-29-12-17-59,3,19,0.6111588231149797,left,probe,ambiguous-switch,-1,18,left,left,0.274
DEK2001WRNO,2020-01-29-12-17-59,3,20,0.5859056541214166,left,both,ambiguous-switch,55,18,left,left,0.027
DEK2001WRNO,2020-01-29-12-17-59,3,21,0.5328296867661251,left,probe,biased-switch,-1,-12,left,left,0.278
DEK2001WRNO,2020-01-29-12-17-59,3,22,0.5726636800070277,left,both,biased-switch,62,-12,left,left,0.279
DEK2001WRNO,2020-01-29-12-17-59,3,23,0.6782150529776886,left,probe,biased-switch,-1,3,left,left,0.22
DEK2001WRNO,2020-01-29-12-17-59,3,24,0.5971925631371027,left,both,biased-switch,65,3,left,right,0.258
DEK2001WRNO,2020-01-29-12-17-59,3,25,0.6204975085271859,left,probe,biased-switch,-1,12,left,left,0.247
DEK2001WRNO,2020-01-29-12-17-59,3,26,0.6287030541488283,left,both,biased-switch,58,12,left,left,0.279
DEK2001WRNO,2020-01-29-12-17-59,3,27,0.6646788581212207,left,probe,biased-switch,-1,6,left,left,0.466
DEK2001WRNO,2020-01-29-12-17-59,3,28,0.6582677979097993,left,both,biased-switch,64,6,left,right,0.233
DEK2001WRNO,2020-01-29-12-17-59,3,29,0.520159037466443,left,probe,biased-switch,-1,18,left,left,0.35
DEK2001WRNO,2020-01-29-12-17-59,3,30,0.5824762467699884,left,both,biased-switch,62,18,left,right,0.28
DEK2001WRNO,2020-01-29-12-17-59,3,31,0.5289515850482708,left,probe,ambiguous-switch,-1,-3,right,right,0.332
DEK2001WRNO,2020-01-29-12-17-59,3,32,0.6700651491680752,left,both,ambiguous-switch,55,-3,right,right,0.63
DEK2001WRNO,2020-01-29-12-17-59,3,33,0.6450046701826185,right,probe,biased-switch,-1,24,left,left,0.213
DEK2001WRNO,2020-01-29-12-17-59,3,34,0.5145228385624054,right,both,biased-switch,58,24,left,right,0.444
DEK2001WRNO,2020-01-29-12-17-59,3,35,0.5566748181085976,left,probe,ambiguous-switch,-1,12,right,right,2.649
DEK2001WRNO,2020-01-29-12-17-59,3,36,0.6091208239398097,left,both,ambiguous-switch,62,12,right,right,0.228
DEK2001WRNO,2020-01-29-12-17-59,3,37,0.5176127602724815,left,probe,ambiguous-switch,-1,-6,right,right,0.671
DEK2001WRNO,2020-01-29-12-17-59,3,38,0.6067464068275062,left,both,ambiguous-switch,60,-6,right,right,0.254
DEK2001WRNO,2020-01-29-12-17-59,3,39,0.6910561323128461,right,probe,biased-switch,-1,-18,right,right,0.27
DEK2001WRNO,2020-01-29-12-17-59,3,40,0.5616271455569389,right,both,biased-switch,63,-18,right,left,0.205
DEK2001WRNO,2020-01-29-12-17-59,3,41,0.5958715149357776,left,probe,ambiguous-switch,-1,-12,left,left,0.204
DEK2001WRNO,2020-01-29-12-17-59,3,42,0.5302895156327089,left,both,ambiguous-switch,57,-12,left,left,0.219
DEK2001WRNO,2020-01-29-12-17-59,3,43,0.5466659058745601,left,probe,biased-switch,-1,-6,left,left,0.523
DEK2001WRNO,2020-01-29-12-17-59,3,44,0.5240517840604545,left,both,biased-switch,66,-6,left,left,0.217
DEK2001WRNO,2020-01-29-12-17-59,3,45,0.6993211208177466,left,probe,ambiguous-switch,-1,0,left,left,0.259
DEK2001WRNO,2020-01-29-12-17-59,3,46,0.6959079252145299,left,both,ambiguous-switch,66,0,left,left,0.227
DEK2001WRNO,2020-01-29-12-17-59,3,47,0.5317066816291236,left,probe,biased-switch,-1,-3,left,left,0.493
DEK2001WRNO,2020-01-29-12-17-59,3,48,0.5891988139732742,left,both,biased-switch,61,-3,left,right,0.28
DEK2001WRNO,2020-01-29-12-17-59,3,49,0.6041535507315721,left,probe,ambiguous-switch,-1,-18,left,left,0.754
DEK2001WRNO,2020-01-29-12-17-59,3,50,0.5264256593586183,left,both,ambiguous-switch,63,-18,left,right,0.403
DEK2001WRNO,2020-01-29-12-17-59,3,51,0.5889938377642703,left,probe,ambiguous-switch,-1,24,left,left,0.752
DEK2001WRNO,2020-01-29-12-17-59,3,52,0.6568453785901787,left,both,ambiguous-switch,65,24,left,left,0.367
DEK2001WRNO,2020-01-29-12-17-59,3,53,0.6155852991351939,right,probe,ambiguous-switch,-1,3,left,left,0.412
DEK2001WRNO,2020-01-29-12-17-59,3,54,0.5347898933066535,right,both,ambiguous-switch,61,3,left,left,0.285
DEK2001WRNO,2020-01-29-12-17-59,3,55,0.5677254930811466,left,probe,biased-switch,-1,0,left,left,0.332
DEK2001WRNO,2020-01-29-12-17-59,3,56,0.5751185505500958,left,both,biased-switch,56,0,left,right,0.359
DEK2001WRNO,2020-01-29-12-17-59,3,57,0.6839094061421395,left,probe,ambiguous-switch,-1,6,left,left,0.404
DEK2001WRNO,2020-01-29-12-17-59,3,58,0.6160996240529731,left,both,ambiguous-switch,62,6,left,left,0.273
DEK2001WRNO,2020-01-29-12-17-59,3,59,0.5341572618702196,left,probe,ambiguous-switch,-1,18,left,left,0.402
DEK2001WRNO,2020-01-29-12-17-59,3,60,0.6953084737621724,left,both,ambiguous-switch,55,18,left,right,0.308
DEK2001WRNO,2020-01-29-12-17-59,3,61,0.6268639357296277,right,probe,biased-switch,-1,-12,right,right,0.333
DEK2001WRNO,2020-01-29-12-17-59,3,62,0.6202078689814485,right,both,biased-switch,61,-12,right,right,0.284
DEK2001WRNO,2020-01-29-12-17-59,3,63,0.5429556468479945,left,probe,biased-switch,-1,3,right,right,0.279
DEK2001WRNO,2020-01-29-12-17-59,3,64,0.5614472058580193,left,both,biased-switch,58,3,right,left,0.374
DEK2001WRNO,2020-01-29-12-17-59,3,65,0.5744451548759572,left,probe,biased-switch,-1,12,left,left,0.533
DEK2001WRNO,2020-01-29-12-17-59,3,66,0.5656604588243072,left,both,biased-switch,66,12,left,left,0.289
DEK2001WRNO,2020-01-29-12-17-59,3,67,0.649469009164441,left,probe,biased-switch,-1,6,left,left,0.228
DEK2001WRNO,2020-01-29-12-17-59,3,68,0.6637147783688693,left,both,biased-switch,59,6,left,left,0.456
DEK2001WRNO,2020-01-29-12-17-59,3,69,0.6434576024270829,left,probe,biased-switch,-1,18,left,left,0.349
DEK2001WRNO,2020-01-29-12-17-59,3,70,0.5637486041598099,left,both,biased-switch,62,18,left,left,0.249
DEK2001WRNO,2020-01-29-12-17-59,3,71,0.5747763155232789,right,probe,ambiguous-switch,-1,-3,right,right,0.455
DEK2001WRNO,2020-01-29-12-17-59,3,72,0.592272830310489,right,both,ambiguous-switch,56,-3,right,right,0.306
DEK2001WRNO,2020-01-29-12-17-59,3,73,0.522447200143634,left,probe,biased-switch,-1,24,left,left,0.221
DEK2001WRNO,2020-01-29-12-17-59,3,74,0.5597328355835882,left,both,biased-switch,57,24,left,left,0.375
DEK2001WRNO,2020-01-29-12-17-59,3,75,0.6976892272613036,right,probe,ambiguous-switch,-1,12,right,right,0.265
DEK2001WRNO,2020-01-29-12-17-59,3,76,0.6356824851909867,right,both,ambiguous-switch,64,12,right,right,0.243
DEK2001WRNO,2020-01-29-12-17-59,3,77,0.5416712667104566,right,probe,ambiguous-switch,-1,-6,right,right,0.254
DEK2001WRNO,2020-01-29-12-17-59,3,78,0.5487382250738622,right,both,ambiguous-switch,63,-6,right,right,0.292
DEK2001WRNO,2020-01-29-12-17-59,3,79,0.622094134615336,right,probe,biased-switch,-1,-18,right,right,0.35
DEK2001WRNO,2020-01-29-12-17-59,3,80,0.6240013975195271,right,both,biased-switch,61,-18,right,right,0.441
DEK2001WRNO,2020-01-29-12-17-59,4,1,0.569093585031895,left,probe,ambiguous-switch,-1,0,left,left,0.191
DEK2001WRNO,2020-01-29-12-17-59,4,2,0.5444146181074369,left,both,ambiguous-switch,66,0,left,left,0.188
DEK2001WRNO,2020-01-29-12-17-59,4,3,0.6577254039901577,left,probe,ambiguous-switch,-1,12,left,left,0.222
DEK2001WRNO,2020-01-29-12-17-59,4,4,0.5744278792153596,left,both,ambiguous-switch,66,12,left,left,0.221
DEK2001WRNO,2020-01-29-12-17-59,4,5,0.6963424045759619,left,probe,biased-switch,-1,18,left,left,0.218
DEK2001WRNO,2020-01-29-12-17-59,4,6,0.6949271874832619,left,both,biased-switch,65,18,left,left,0.237
DEK2001WRNO,2020-01-29-12-17-59,4,7,0.6877233551594965,left,probe,ambiguous-switch,-1,-12,left,left,0.214
DEK2001WRNO,2020-01-29-12-17-59,4,8,0.650760826463125,left,both,ambiguous-switch,63,-12,left,left,0.249
DEK2001WRNO,2020-01-29-12-17-59,4,9,0.6083966395907272,right,probe,biased-switch,-1,24,left,left,0.195
DEK2001WRNO,2020-01-29-12-17-59,4,10,0.5339912255691136,right,both,biased-switch,57,24,left,left,0.157
DEK2001WRNO,2020-01-29-12-17-59,4,11,0.568706480404232,right,probe,biased-switch,-1,3,left,left,0.244
DEK2001WRNO,2020-01-29-12-17-59,4,12,0.5883949204347644,right,both,biased-switch,62,3,left,right,0.238
DEK2001WRNO,2020-01-29-12-17-59,4,13,0.6156756700931859,left,probe,biased-switch,-1,0,left,left,0.378
DEK2001WRNO,2020-01-29-12-17-59,4,14,0.6997834046385509,left,both,biased-switch,54,0,left,right,3.095
DEK2001WRNO,2020-01-29-12-17-59,4,15,0.6790010747997103,left,probe,biased-switch,-1,6,right,right,0.207
DEK2001WRNO,2020-01-29-12-17-59,4,16,0.6542295520147271,left,both,biased-switch,57,6,right,left,0.22
DEK2001WRNO,2020-01-29-12-17-59,4,17,0.5628616467508003,right,probe,ambiguous-switch,-1,18,left,left,0.219
DEK2001WRNO,2020-01-29-12-17-59,4,18,0.5318463563929806,right,both,ambiguous-switch,57,18,left,right,0.277
DEK2001WRNO,2020-01-29-12-17-59,4,19,0.5664562172321294,right,probe,biased-switch,-1,-12,right,right,0.278
DEK2001WRNO,2020-01-29-12-17-59,4,20,0.5377260017133985,right,both,biased-switch,62,-12,right,right,0.241
DEK2001WRNO,2020-01-29-12-17-59,4,21,0.6906171191666444,right,probe,biased-switch,-1,-18,right,right,0.245
DEK2001WRNO,2020-01-29-12-17-59,4,22,0.6631049896179034,right,both,biased-switch,61,-18,right,right,0.281
DEK2001WRNO,2020-01-29-12-17-59,4,23,0.6942614615847611,right,probe,biased-switch,-1,12,right,right,0.71
DEK2001WRNO,2020-01-29-12-17-59,4,24,0.6683819763264444,right,both,biased-switch,55,12,right,left,0.299
DEK2001WRNO,2020-01-29-12-17-59,4,25,0.5760362088988432,right,probe,ambiguous-switch,-1,-18,right,right,0.252
DEK2001WRNO,2020-01-29-12-17-59,4,26,0.5017973279459884,right,both,ambiguous-switch,65,-18,right,right,0.327
DEK2001WRNO,2020-01-29-12-17-59,4,27,0.688957357050486,right,probe,ambiguous-switch,-1,-6,right,right,0.474
DEK2001WRNO,2020-01-29-12-17-59,4,28,0.5890125818281919,right,both,ambiguous-switch,55,-6,right,right,0.26
DEK2001WRNO,2020-01-29-12-17-59,4,29,0.5772151057917039,right,probe,ambiguous-switch,-1,24,right,right,0.366
DEK2001WRNO,2020-01-29-12-17-59,4,30,0.5665213531264087,right,both,ambiguous-switch,61,24,right,right,0.232
DEK2001WRNO,2020-01-29-12-17-59,4,31,0.6380521347189388,left,probe,ambiguous-switch,-1,-3,right,right,0.282
DEK2001WRNO,2020-01-29-12-17-59,4,32,0.6696401114287021,left,both,ambiguous-switch,56,-3,right,left,0.244
DEK2001WRNO,2020-01-29-12-17-59,4,33,0.6211507769159249,right,probe,ambiguous-switch,-1,6,right,right,0.288
DEK2001WRNO,2020-01-29-12-17-59,4,34,0.6953650605552907,right,both,ambiguous-switch,64,6,right,right,0.274
DEK2001WRNO,2020-01-29-12-17-59,4,35,0.5898071071375861,left,probe,biased-switch,-1,-3,right,right,0.318
DEK2001WRNO,2020-01-29-12-17-59,4,36,0.5703687720027614,left,both,biased-switch,65,-3,right,right,0.293
DEK2001WRNO,2020-01-29-12-17-59,4,37,0.6853328640798831,right,probe,ambiguous-switch,-1,3,right,right,0.248
DEK2001WRNO,2020-01-29-12-17-59,4,38,0.5711705504652215,right,both,ambiguous-switch,55,3,right,right,0.254
DEK2001WRNO,2020-01-29-12-17-59,4,39,0.5764362345455704,left,probe,biased-switch,-1,-6,right,right,0.338
DEK2001WRNO,2020-01-29-12-17-59,4,40,0.6345589630764061,left,both,biased-switch,64,-6,right,left,0.145
DEK2001WRNO,2020-01-29-12-17-59,4,41,0.5686271880428903,right,probe,ambiguous-switch,-1,0,right,right,0.29
DEK2001WRNO,2020-01-29-12-17-59,4,42,0.551264733339619,right,both,ambiguous-switch,65,0,right,left,0.271
DEK2001WRNO,2020-01-29-12-17-59,4,43,0.5362963259896971,left,probe,ambiguous-switch,-1,12,right,right,0.414
DEK2001WRNO,2020-01-29-12-17-59,4,44,0.5175015445148792,left,both,ambiguous-switch,64,12,right,right,0.251
DEK2001WRNO,2020-01-29-12-17-59,4,45,0.6874631976022572,left,probe,biased-switch,-1,18,right,right,0.292
DEK2001WRNO,2020-01-29-12-17-59,4,46,0.5232381471711096,left,both,biased-switch,59,18,right,right,0.281
DEK2001WRNO,2020-01-29-12-17-59,4,47,0.6045299476419138,left,probe,ambiguous-switch,-1,-12,right,right,0.302
DEK2001WRNO,2020-01-29-12-17-59,4,48,0.6611493486407106,left,both,ambiguous-switch,60,-12,right,right,0.319
DEK2001WRNO,2020-01-29-12-17-59,4,49,0.548944211553404,left,probe,biased-switch,-1,24,right,right,0.285
DEK2001WRNO,2020-01-29-12-17-59,4,50,0.5688535290951209,left,both,biased-switch,64,24,right,left,0.066
DEK2001WRNO,2020-01-29-12-17-59,4,51,0.5548521442377099,left,probe,biased-switch,-1,3,right,right,0.283
DEK2001WRNO,2020-01-29-12-17-59,4,52,0.6523057382864158,left,both,biased-switch,55,3,right,left,0.221
DEK2001WRNO,2020-01-29-12-17-59,4,53,0.5216304245317275,left,probe,biased-switch,-1,0,left,left,0.228
DEK2001WRNO,2020-01-29-12-17-59,4,54,0.5925493714225293,left,both,biased-switch,59,0,left,right,0.227
DEK2001WRNO,2020-01-29-12-17-59,4,55,0.6637702938740585,left,probe,biased-switch,-1,6,right,right,0.253
DEK2001WRNO,2020-01-29-12-17-59,4,56,0.6361357410614155,left,both,biased-switch,54,6,right,left,0.278
DEK2001WRNO,2020-01-29-12-17-59,4,57,0.5361058554770878,right,probe,ambiguous-switch,-1,18,left,left,0.182
DEK2001WRNO,2020-01-29-12-17-59,4,58,0.5540571936277049,right,both,ambiguous-switch,63,18,left,right,0.214
DEK2001WRNO,2020-01-29-12-17-59,4,59,0.6206784006171463,right,probe,biased-switch,-1,-12,right,right,0.116
DEK2001WRNO,2020-01-29-12-17-59,4,60,0.6844313792753355,right,both,biased-switch,63,-12,right,right,0.239
DEK2001WRNO,2020-01-29-12-17-59,4,61,0.5506373234198885,right,probe,biased-switch,-1,-18,right,right,0.26
DEK2001WRNO,2020-01-29-12-17-59,4,62,0.5454205318117229,right,both,biased-switch,57,-18,right,right,0.249
DEK2001WRNO,2020-01-29-12-17-59,4,63,0.6255957616771264,right,probe,biased-switch,-1,12,right,right,0.352
DEK2001WRNO,2020-01-29-12-17-59,4,64,0.6147085698234462,right,both,biased-switch,54,12,right,right,0.138
DEK2001WRNO,2020-01-29-12-17-59,4,65,0.68494089474589,left,probe,ambiguous-switch,-1,-18,right,right,0.234
DEK2001WRNO,2020-01-29-12-17-59,4,66,0.5520247019265918,left,both,ambiguous-switch,63,-18,right,right,0.183
DEK2001WRNO,2020-01-29-12-17-59,4,67,0.6763309170128777,right,probe,ambiguous-switch,-1,-6,right,right,0.324
DEK2001WRNO,2020-01-29-12-17-59,4,68,0.5102542657548511,right,both,ambiguous-switch,64,-6,right,right,0.242
DEK2001WRNO,2020-01-29-12-17-59,4,69,0.543275524944011,right,probe,ambiguous-switch,-1,24,right,right,0.272
DEK2001WRNO,2020-01-29-12-17-59,4,70,0.5856845889176895,right,both,ambiguous-switch,59,24,right,right,0.158
DEK2001WRNO,2020-01-29-12-17-59,4,71,0.6183266722321442,right,probe,ambiguous-switch,-1,-3,right,right,0.265
DEK2001WRNO,2020-01-29-12-17-59,4,72,0.6942132378376772,right,both,ambiguous-switch,61,-3,right,right,0.362
DEK2001WRNO,2020-01-29-12-17-59,4,73,0.5122202214236233,right,probe,ambiguous-switch,-1,6,right,right,0.562
DEK2001WRNO,2020-01-29-12-17-59,4,74,0.6462025087987116,right,both,ambiguous-switch,62,6,right,right,0.253
DEK2001WRNO,2020-01-29-12-17-59,4,75,0.5118464631777692,left,probe,biased-switch,-1,-3,right,right,0.28
DEK2001WRNO,2020-01-29-12-17-59,4,76,0.659307892297372,left,both,biased-switch,59,-3,right,right,0.196
DEK2001WRNO,2020-01-29-12-17-59,4,77,0.5050201518130789,left,probe,ambiguous-switch,-1,3,right,right,0.245
DEK2001WRNO,2020-01-29-12-17-59,4,78,0.5500936057900999,left,both,ambiguous-switch,60,3,right,right,0.218
DEK2001WRNO,2020-01-29-12-17-59,4,79,0.6297336916849859,left,probe,biased-switch,-1,-6,right,right,1.844
DEK2001WRNO,2020-01-29-12-17-59,4,80,0.6001491341125414,left,both,biased-switch,65,-6,right,right,0.304
DEK2001WRNO,2020-01-29-12-17-59,5,1,0.690147087570913,right,probe,ambiguous-switch,-1,-12,right,right,0.281
DEK2001WRNO,2020-01-29-12-17-59,5,2,0.6770032371343855,right,both,ambiguous-switch,60,-12,right,right,0.206
DEK2001WRNO,2020-01-29-12-17-59,5,3,0.6525137563149561,right,probe,biased-switch,-1,-6,right,right,0.297
DEK2001WRNO,2020-01-29-12-17-59,5,4,0.6667446589332592,right,both,biased-switch,57,-6,right,right,0.216
DEK2001WRNO,2020-01-29-12-17-59,5,5,0.6723429186669976,left,probe,ambiguous-switch,-1,6,right,right,0.236
DEK2001WRNO,2020-01-29-12-17-59,5,6,0.6403391812738339,left,both,ambiguous-switch,59,6,right,right,0.415
DEK2001WRNO,2020-01-29-12-17-59,5,7,0.5690234609031513,left,probe,biased-switch,-1,6,right,right,0.436
DEK2001WRNO,2020-01-29-12-17-59,5,8,0.6070484332918694,left,both,biased-switch,55,6,right,right,0.609
DEK2001WRNO,2020-01-29-12-17-59,5,9,0.6629461682059657,left,probe,ambiguous-switch,-1,-6,right,right,0.482
DEK2001WRNO,2020-01-29-12-17-59,5,10,0.5525841097533659,left,both,ambiguous-switch,60,-6,right,left,3.019
DEK2001WRNO,2020-01-29-12-17-59,5,11,0.5922737508886105,left,probe,ambiguous-switch,-1,3,right,right,0.255
DEK2001WRNO,2020-01-29-12-17-59,5,12,0.5234294957739487,left,both,ambiguous-switch,64,3,right,right,0.868
DEK2001WRNO,2020-01-29-12-17-59,5,13,0.5158402357658657,left,probe,biased-switch,-1,-12,right,right,0.545
DEK2001WRNO,2020-01-29-12-17-59,5,14,0.6710991753312497,left,both,biased-switch,65,-12,right,left,0.923
DEK2001WRNO,2020-01-29-12-17-59,5,15,0.6852292816392612,right,probe,ambiguous-switch,-1,-3,right,right,1.275
DEK2001WRNO,2020-01-29-12-17-59,5,16,0.6907877999598397,right,both,ambiguous-switch,63,-3,right,left,0.38
DEK2001WRNO,2020-01-29-12-17-59,5,17,0.5297344939867835,left,probe,ambiguous-switch,-1,12,left,left,0.336
DEK2001WRNO,2020-01-29-12-17-59,5,18,0.6303522627769509,left,both,ambiguous-switch,58,12,left,right,0.261
DEK2001WRNO,2020-01-29-12-17-59,5,19,0.5334441653868014,right,probe,ambiguous-switch,-1,0,left,left,0.272
DEK2001WRNO,2020-01-29-12-17-59,5,20,0.5188794168275793,right,both,ambiguous-switch,56,0,left,left,0.25
DEK2001WRNO,2020-01-29-12-17-59,5,21,0.5969045840759821,right,probe,biased-switch,-1,3,left,left,0.292
DEK2001WRNO,2020-01-29-12-17-59,5,22,0.5168216850075492,right,both,biased-switch,58,3,left,right,0.275
DEK2001WRNO,2020-01-29-12-17-59,5,23,0.5232091133019635,left,probe,biased-switch,-1,24,left,left,0.255
DEK2001WRNO,2020-01-29-12-17-59,5,24,0.5667215302579359,left,both,biased-switch,58,24,left,left,0.324
DEK2001WRNO,2020-01-29-12-17-59,5,25,0.5905062067014534,left,probe,biased-switch,-1,-18,left,left,0.479
DEK2001WRNO,2020-01-29-12-17-59,5,26,0.5657839172047111,left,both,biased-switch,55,-18,left,left,0.339
DEK2001WRNO,2020-01-29-12-17-59,5,27,0.5452849188252873,right,probe,biased-switch,-1,12,right,right,0.509
DEK2001WRNO,2020-01-29-12-17-59,5,28,0.5897090787998729,right,both,biased-switch,56,12,right,left,0.462
DEK2001WRNO,2020-01-29-12-17-59,5,29,0.5485708386926813,right,probe,ambiguous-switch,-1,18,left,left,0.42
DEK2001WRNO,2020-01-29-12-17-59,5,30,0.6577882672343527,right,both,ambiguous-switch,60,18,left,right,0.927
DEK2001WRNO,2020-01-29-12-17-59,5,31,0.5524787945322348,left,probe,biased-switch,-1,0,left,left,0.564
DEK2001WRNO,2020-01-29-12-17-59,5,32,0.5970087211809714,left,both,biased-switch,58,0,left,left,0.423
DEK2001WRNO,2020-01-29-12-17-59,5,33,0.5500824445800616,right,probe,ambiguous-switch,-1,24,right,right,0.378
DEK2001WRNO,2020-01-29-12-17-59,5,34,0.6063715954504311,right,both,ambiguous-switch,61,24,right,right,0.459
DEK2001WRNO,2020-01-29-12-17-59,5,35,0.557827400872146,right,probe,biased-switch,-1,18,right,right,0.352
DEK2001WRNO,2020-01-29-12-17-59,5,36,0.5492318487417154,right,both,biased-switch,59,18,right,left,0.361
DEK2001WRNO,2020-01-29-12-17-59,5,37,0.6323127746470713,right,probe,ambiguous-switch,-1,-18,left,left,0.498
DEK2001WRNO,2020-01-29-12-17-59,5,38,0.6730019949508275,right,both,ambiguous-switch,58,-18,left,right,0.62
DEK2001WRNO,2020-01-29-12-17-59,5,39,0.5503117059368048,left,probe,biased-switch,-1,-3,right,right,0.998
DEK2001WRNO,2020-01-29-12-17-59,5,40,0.6033338281983933,left,both,biased-switch,54,-3,right,left,0.285
DEK2001WRNO,2020-01-29-12-17-59,5,41,0.6476400619758327,right,probe,ambiguous-switch,-1,-12,left,left,0.372
DEK2001WRNO,2020-01-29-12-17-59,5,42,0.6995417266842487,right,both,ambiguous-switch,61,-12,left,right,0.217
DEK2001WRNO,2020-01-29-12-17-59,5,43,0.6144702070107251,right,probe,biased-switch,-1,-6,left,left,0.23
DEK2001WRNO,2020-01-29-12-17-59,5,44,0.6396870558631753,right,both,biased-switch,57,-6,left,left,0.207
DEK2001WRNO,2020-01-29-12-17-59,5,45,0.5860066623075162,right,probe,ambiguous-switch,-1,6,left,left,0.324
DEK2001WRNO,2020-01-29-12-17-59,5,46,0.6440793159854222,right,both,ambiguous-switch,56,6,left,left,0.514
DEK2001WRNO,2020-01-29-12-17-59,5,47,0.6740045276484751,left,probe,biased-switch,-1,6,left,left,0.251
DEK2001WRNO,2020-01-29-12-17-59,5,48,0.5195610559031802,left,both,biased-switch,66,6,left,right,0.274
DEK2001WRNO,2020-01-29-12-17-59,5,49,0.5322252109336894,right,probe,ambiguous-switch,-1,-6,left,left,0.294
DEK2001WRNO,2020-01-29-12-17-59,5,50,0.5292729490755401,right,both,ambiguous-switch,61,-6,left,right,0.303
DEK2001WRNO,2020-01-29-12-17-59,5,51,0.6607060430040941,left,probe,ambiguous-switch,-1,3,right,right,0.666
DEK2001WRNO,2020-01-29-12-17-59,5,52,0.6277326123722191,left,both,ambiguous-switch,57,3,right,right,0.426
DEK2001WRNO,2020-01-29-12-17-59,5,53,0.6624497351868306,right,probe,biased-switch,-1,-12,right,right,0.455
DEK2001WRNO,2020-01-29-12-17-59,5,54,0.6802711881766117,right,both,biased-switch,60,-12,right,left,0.037
DEK2001WRNO,2020-01-29-12-17-59,5,55,0.5242123617546535,right,probe,ambiguous-switch,-1,-3,left,left,0.305
DEK2001WRNO,2020-01-29-12-17-59,5,56,0.6994818479362181,right,both,ambiguous-switch,63,-3,left,left,0.329
DEK2001WRNO,2020-01-29-12-17-59,5,57,0.6362581869407116,left,probe,ambiguous-switch,-1,12,left,left,0.414
DEK2001WRNO,2020-01-29-12-17-59,5,58,0.6470164856908508,left,both,ambiguous-switch,64,12,left,left,0.292
DEK2001WRNO,2020-01-29-12-17-59,5,59,0.64176973385942,left,probe,ambiguous-switch,-1,0,left,left,0.323
DEK2001WRNO,2020-01-29-12-17-59,5,60,0.613134147744251,left,both,ambiguous-switch,63,0,left,left,0.408
DEK2001WRNO,2020-01-29-12-17-59,5,61,0.5449505069726523,left,probe,biased-switch,-1,3,left,left,0.294
DEK2001WRNO,2020-01-29-12-17-59,5,62,0.5318372684189405,left,both,biased-switch,65,3,left,left,0.26
DEK2001WRNO,2020-01-29-12-17-59,5,63,0.5288514037827213,left,probe,biased-switch,-1,24,left,left,0.383
DEK2001WRNO,2020-01-29-12-17-59,5,64,0.6699131924534084,left,both,biased-switch,59,24,left,left,0.361
DEK2001WRNO,2020-01-29-12-17-59,5,65,0.5377487266515081,right,probe,biased-switch,-1,-18,left,left,1.215
DEK2001WRNO,2020-01-29-12-17-59,5,66,0.5664393598689269,right,both,biased-switch,58,-18,left,left,0.277
DEK2001WRNO,2020-01-29-12-17-59,5,67,0.5462109319677705,right,probe,biased-switch,-1,12,left,left,0.51
DEK2001WRNO,2020-01-29-12-17-59,5,68,0.5422697011373447,right,both,biased-switch,62,12,left,right,2.489
DEK2001WRNO,2020-01-29-12-17-59,5,69,0.5113106154301199,right,probe,ambiguous-switch,-1,18,left,left,0.508
DEK2001WRNO,2020-01-29-12-17-59,5,70,0.5699469097224515,right,both,ambiguous-switch,59,18,left,left,0.299
DEK2001WRNO,2020-01-29-12-17-59,5,71,0.5305840109930843,right,probe,biased-switch,-1,0,left,left,0.286
DEK2001WRNO,2020-01-29-12-17-59,5,72,0.5165498853846271,right,both,biased-switch,63,0,left,left,0.202
DEK2001WRNO,2020-01-29-12-17-59,5,73,0.6296805459385109,right,probe,ambiguous-switch,-1,24,left,left,0.304
DEK2001WRNO,2020-01-29-12-17-59,5,74,0.6964602046255512,right,both,ambiguous-switch,60,24,left,left,0.442
DEK2001WRNO,2020-01-29-12-17-59,5,75,0.632357344568283,left,probe,biased-switch,-1,18,left,left,0.505
DEK2001WRNO,2020-01-29-12-17-59,5,76,0.6116633890885574,left,both,biased-switch,55,18,left,left,0.391
DEK2001WRNO,2020-01-29-12-17-59,5,77,0.692607296507677,left,probe,ambiguous-switch,-1,-18,left,left,0.722
DEK2001WRNO,2020-01-29-12-17-59,5,78,0.5761981754805531,left,both,ambiguous-switch,57,-18,left,left,0.314
DEK2001WRNO,2020-01-29-12-17-59,5,79,0.5306121484425064,left,probe,biased-switch,-1,-3,left,left,0.398
DEK2001WRNO,2020-01-29-12-17-59,5,80,0.5782131172196586,left,both,biased-switch,64,-3,left,left,0.343
DEK2001WRNO,2020-01-29-12-17-59,6,1,0.6048079540660041,left,probe,biased-switch,-1,3,left,left,0.847
DEK2001WRNO,2020-01-29-12-17-59,6,2,0.5454577036010853,left,both,biased-switch,61,3,left,left,0.251
DEK2001WRNO,2020-01-29-12-17-59,6,3,0.5658580661194917,right,probe,biased-switch,-1,-3,left,left,0.602
DEK2001WRNO,2020-01-29-12-17-59,6,4,0.5661374168830423,right,both,biased-switch,60,-3,left,left,0.161
DEK2001WRNO,2020-01-29-12-17-59,6,5,0.5122348611027602,left,probe,biased-switch,-1,12,left,left,0.203
DEK2001WRNO,2020-01-29-12-17-59,6,6,0.6805728777038554,left,both,biased-switch,65,12,left,left,0.081
DEK2001WRNO,2020-01-29-12-17-59,6,7,0.6625698388191973,left,probe,ambiguous-switch,-1,24,left,left,0.205
DEK2001WRNO,2020-01-29-12-17-59,6,8,0.5787635136924438,left,both,ambiguous-switch,60,24,left,left,0.209
DEK2001WRNO,2020-01-29-12-17-59,6,9,0.5173605830167763,left,probe,ambiguous-switch,-1,12,left,left,0.225
DEK2001WRNO,2020-01-29-12-17-59,6,10,0.5470416270844123,left,both,ambiguous-switch,55,12,left,left,0.37
DEK2001WRNO,2020-01-29-12-17-59,6,11,0.6313856050892834,left,probe,ambiguous-switch,-1,6,left,left,0.208
DEK2001WRNO,2020-01-29-12-17-59,6,12,0.5736861878852536,left,both,ambiguous-switch,58,6,left,left,0.245
DEK2001WRNO,2020-01-29-12-17-59,6,13,0.6065579378398259,left,probe,biased-switch,-1,0,right,right,0.301
DEK2001WRNO,2020-01-29-12-17-59,6,14,0.6571969531505286,left,both,biased-switch,61,0,right,left,0.271
DEK2001WRNO,2020-01-29-12-17-59,6,15,0.6559087028814197,left,probe,biased-switch,-1,-12,left,left,0.315
DEK2001WRNO,2020-01-29-12-17-59,6,16,0.5632932331479668,left,both,biased-switch,54,-12,left,right,0.206
DEK2001WRNO,2020-01-29-12-17-59,6,17,0.6242184177350755,left,probe,ambiguous-switch,-1,-18,right,right,0.339
DEK2001WRNO,2020-01-29-12-17-59,6,18,0.5095370727673001,left,both,ambiguous-switch,63,-18,right,right,0.285
DEK2001WRNO,2020-01-29-12-17-59,6,19,0.5212291626954206,left,probe,ambiguous-switch,-1,18,right,right,0.244
DEK2001WRNO,2020-01-29-12-17-59,6,20,0.6125555350303948,left,both,ambiguous-switch,58,18,right,left,0.327
DEK2001WRNO,2020-01-29-12-17-59,6,21,0.5384180214634522,right,probe,ambiguous-switch,-1,0,left,left,0.25
DEK2001WRNO,2020-01-29-12-17-59,6,22,0.5171481922249879,right,both,ambiguous-switch,62,0,left,right,0.269
DEK2001WRNO,2020-01-29-12-17-59,6,23,0.6672869362046159,left,probe,ambiguous-switch,-1,3,left,left,0.323
DEK2001WRNO,2020-01-29-12-17-59,6,24,0.6896330587046087,left,both,ambiguous-switch,59,3,left,right,0.339
DEK2001WRNO,2020-01-29-12-17-59,6,25,0.6126920534662122,left,probe,ambiguous-switch,-1,-6,left,left,0.358
DEK2001WRNO,2020-01-29-12-17-59,6,26,0.500572518678455,left,both,ambiguous-switch,54,-6,left,left,0.26
DEK2001WRNO,2020-01-29-12-17-59,6,27,0.629080705840557,right,probe,biased-switch,-1,24,left,left,0.278
DEK2001WRNO,2020-01-29-12-17-59,6,28,0.5568988009545317,right,both,biased-switch,58,24,left,left,0.68
DEK2001WRNO,2020-01-29-12-17-59,6,29,0.6621953139286787,left,probe,biased-switch,-1,6,right,right,0.59
DEK2001WRNO,2020-01-29-12-17-59,6,30,0.5242342995526754,left,both,biased-switch,55,6,right,right,0.281
DEK2001WRNO,2020-01-29-12-17-59,6,31,0.5728104629189865,left,probe,ambiguous-switch,-1,-3,left,left,0.301
DEK2001WRNO,2020-01-29-12-17-59,6,32,0.5675290072081562,left,both,ambiguous-switch,62,-3,left,right,0.204
DEK2001WRNO,2020-01-29-12-17-59,6,33,0.6085609691501107,right,probe,biased-switch,-1,-6,left,left,0.534
DEK2001WRNO,2020-01-29-12-17-59,6,34,0.6266252593346486,right,both,biased-switch,54,-6,left,right,0.648
DEK2001WRNO,2020-01-29-12-17-59,6,35,0.6740037432739878,right,probe,ambiguous-switch,-1,-12,right,right,0.323
DEK2001WRNO,2020-01-29-12-17-59,6,36,0.6891444055325243,right,both,ambiguous-switch,65,-12,right,right,0.342
DEK2001WRNO,2020-01-29-12-17-59,6,37,0.6059753004146248,left,probe,biased-switch,-1,-18,right,right,0.487
DEK2001WRNO,2020-01-29-12-17-59,6,38,0.656273037654728,left,both,biased-switch,65,-18,right,right,0.3
DEK2001WRNO,2020-01-29-12-17-59,6,39,0.5870437353933882,right,probe,biased-switch,-1,18,right,right,0.324
DEK2001WRNO,2020-01-29-12-17-59,6,40,0.5256020753161121,right,both,biased-switch,61,18,right,left,0.315
DEK2001WRNO,2020-01-29-12-17-59,6,41,0.5498673366182588,right,probe,biased-switch,-1,3,left,left,0.397
DEK2001WRNO,2020-01-29-12-17-59,6,42,0.6638006000198312,right,both,biased-switch,58,3,left,left,0.449
DEK2001WRNO,2020-01-29-12-17-59,6,43,0.5734678944356856,left,probe,biased-switch,-1,-3,left,left,0.598
DEK2001WRNO,2020-01-29-12-17-59,6,44,0.5930809179213421,left,both,biased-switch,55,-3,left,right,0.37
DEK2001WRNO,2020-01-29-12-17-59,6,45,0.5022357393106508,right,probe,biased-switch,-1,12,right,right,0.374
DEK2001WRNO,2020-01-29-12-17-59,6,46,0.6056845230686672,right,both,biased-switch,63,12,right,right,0.393
DEK2001WRNO,2020-01-29-12-17-59,6,47,0.5635236514822735,left,probe,ambiguous-switch,-1,24,right,right,0.361
DEK2001WRNO,2020-01-29-12-17-59,6,48,0.5428637619378547,left,both,ambiguous-switch,58,24,right,right,0.366
DEK2001WRNO,2020-01-29-12-17-59,6,49,0.5259848233555886,left,probe,ambiguous-switch,-1,12,right,right,0.353
DEK2001WRNO,2020-01-29-12-17-59,6,50,0.6254809712792071,left,both,ambiguous-switch,58,12,right,right,0.53
DEK2001WRNO,2020-01-29-12-17-59,6,51,0.5568908152294748,left,probe,ambiguous-switch,-1,6,right,right,0.473
DEK2001WRNO,2020-01-29-12-17-59,6,52,0.6014550138794355,left,both,ambiguous-switch,61,6,right,right,0.341
DEK2001WRNO,2020-01-29-12-17-59,6,53,0.5180638914052451,left,probe,biased-switch,-1,0,right,right,0.412
DEK2001WRNO,2020-01-29-12-17-59,6,54,0.6907281955030609,left,both,biased-switch,63,0,right,left,0.287
DEK2001WRNO,2020-01-29-12-17-59,6,55,0.5887824457931417,left,probe,biased-switch,-1,-12,right,right,0.335
DEK2001WRNO,2020-01-29-12-17-59,6,56,0.6716406508251797,left,both,biased-switch,62,-12,right,right,0.201
DEK2001WRNO,2020-01-29-12-17-59,6,57,0.6045230620508183,left,probe,ambiguous-switch,-1,-18,right,right,0.283
DEK2001WRNO,2020-01-29-12-17-59,6,58,0.636694353607838,left,both,ambiguous-switch,60,-18,right,right,0.133
DEK2001WRNO,2020-01-29-12-17-59,6,59,0.5621121761085957,right,probe,ambiguous-switch,-1,18,right,right,0.382
DEK2001WRNO,2020-01-29-12-17-59,6,60,0.527075420039651,right,both,ambiguous-switch,57,18,right,right,0.666
DEK2001WRNO,2020-01-29-12-17-59,6,61,0.5375610787665015,left,probe,ambiguous-switch,-1,0,right,right,0.506
DEK2001WRNO,2020-01-29-12-17-59,6,62,0.553431230714337,left,both,ambiguous-switch,61,0,right,right,0.245
DEK2001WRNO,2020-01-29-12-17-59,6,63,0.5556359182929791,left,probe,ambiguous-switch,-1,3,right,right,0.301
DEK2001WRNO,2020-01-29-12-17-59,6,64,0.595626692663529,left,both,ambiguous-switch,66,3,right,right,0.301
DEK2001WRNO,2020-01-29-12-17-59,6,65,0.6891143539574898,left,probe,ambiguous-switch,-1,-6,right,right,0.466
DEK2001WRNO,2020-01-29-12-17-59,6,66,0.6861499588179552,left,both,ambiguous-switch,55,-6,right,right,0.775
DEK2001WRNO,2020-01-29-12-17-59,6,67,0.5112561577592418,left,probe,biased-switch,-1,24,right,right,0.469
DEK2001WRNO,2020-01-29-12-17-59,6,68,0.5321731410341477,left,both,biased-switch,55,24,right,right,0.362
DEK2001WRNO,2020-01-29-12-17-59,6,69,0.5358166154001716,left,probe,biased-switch,-1,6,right,right,0.299
DEK2001WRNO,2020-01-29-12-17-59,6,70,0.6971435362675864,left,both,biased-switch,64,6,right,right,1.064
DEK2001WRNO,2020-01-29-12-17-59,6,71,0.5464632741588111,left,probe,ambiguous-switch,-1,-3,right,right,0.514
DEK2001WRNO,2020-01-29-12-17-59,6,72,0.5176483779742276,left,both,ambiguous-switch,64,-3,right,right,0.242
DEK2001WRNO,2020-01-29-12-17-59,6,73,0.5612712556677091,left,probe,biased-switch,-1,-6,right,right,0.257
DEK2001WRNO,2020-01-29-12-17-59,6,74,0.691121287882073,left,both,biased-switch,64,-6,right,right,0.341
DEK2001WRNO,2020-01-29-12-17-59,6,75,0.6810651116327744,right,probe,ambiguous-switch,-1,-12,right,right,0.243
DEK2001WRNO,2020-01-29-12-17-59,6,76,0.6573796817568703,right,both,ambiguous-switch,60,-12,right,right,0.215
DEK2001WRNO,2020-01-29-12-17-59,6,77,0.6201436866949772,left,probe,biased-switch,-1,-18,right,right,0.479
DEK2001WRNO,2020-01-29-12-17-59,6,78,0.5405276850344742,left,both,biased-switch,64,-18,right,right,0.243
DEK2001WRNO,2020-01-29-12-17-59,6,79,0.5552709561627822,right,probe,biased-switch,-1,18,right,right,0.304
DEK2001WRNO,2020-01-29-12-17-59,6,80,0.5794857847258338,right,both,biased-switch,65,18,right,right,0.896
DEK2001WRNO,2020-01-29-12-17-59,7,1,0.5834045423595872,right,probe,biased-switch,-1,-18,right,right,0.21
DEK2001WRNO,2020-01-29-12-17-59,7,2,0.612405150084596,right,both,biased-switch,60,-18,right,left,0.205
DEK2001WRNO,2020-01-29-12-17-59,7,3,0.6104221380257506,left,probe,ambiguous-switch,-1,-3,right,right,0.302
DEK2001WRNO,2020-01-29-12-17-59,7,4,0.6433445750618948,left,both,ambiguous-switch,63,-3,right,right,0.251
DEK2001WRNO,2020-01-29-12-17-59,7,5,0.5901049714865104,left,probe,biased-switch,-1,3,right,right,0.271
DEK2001WRNO,2020-01-29-12-17-59,7,6,0.5689775564720474,left,both,biased-switch,54,3,right,right,0.029
DEK2001WRNO,2020-01-29-12-17-59,7,7,0.5084210718009914,left,probe,ambiguous-switch,-1,-18,right,right,0.729
DEK2001WRNO,2020-01-29-12-17-59,7,8,0.6284539333259416,left,both,ambiguous-switch,54,-18,right,right,0.269
DEK2001WRNO,2020-01-29-12-17-59,7,9,0.6328629493402534,right,probe,biased-switch,-1,-3,right,right,0.213
DEK2001WRNO,2020-01-29-12-17-59,7,10,0.5178377762427129,right,both,biased-switch,61,-3,right,left,0.403
DEK2001WRNO,2020-01-29-12-17-59,7,11,0.5146834465879765,right,probe,ambiguous-switch,-1,12,right,right,0.233
DEK2001WRNO,2020-01-29-12-17-59,7,12,0.5193515965650086,right,both,ambiguous-switch,63,12,right,left,0.24
DEK2001WRNO,2020-01-29-12-17-59,7,13,0.5162089661496757,right,probe,biased-switch,-1,18,right,right,0.544
DEK2001WRNO,2020-01-29-12-17-59,7,14,0.5198428056045985,right,both,biased-switch,61,18,right,left,0.251
DEK2001WRNO,2020-01-29-12-17-59,7,15,0.6171876531084531,left,probe,biased-switch,-1,-12,right,right,0.416
DEK2001WRNO,2020-01-29-12-17-59,7,16,0.5702209055248851,left,both,biased-switch,65,-12,right,left,0.261
DEK2001WRNO,2020-01-29-12-17-59,7,17,0.5849494336723801,left,probe,ambiguous-switch,-1,-12,right,right,0.439
DEK2001WRNO,2020-01-29-12-17-59,7,18,0.6077259475360495,left,both,ambiguous-switch,55,-12,right,right,0.53
DEK2001WRNO,2020-01-29-12-17-59,7,19,0.549541695587794,right,probe,biased-switch,-1,12,left,left,0.963
DEK2001WRNO,2020-01-29-12-17-59,7,20,0.6077928942542731,right,both,biased-switch,57,12,left,right,0.359
DEK2001WRNO,2020-01-29-12-17-59,7,21,0.622702745600306,left,probe,ambiguous-switch,-1,3,right,right,0.45
DEK2001WRNO,2020-01-29-12-17-59,7,22,0.6755753521837436,left,both,ambiguous-switch,65,3,right,left,0.116
DEK2001WRNO,2020-01-29-12-17-59,7,23,0.6955812825387406,left,probe,ambiguous-switch,-1,24,right,right,0.249
DEK2001WRNO,2020-01-29-12-17-59,7,24,0.6385682437409879,left,both,ambiguous-switch,56,24,right,right,0.227
DEK2001WRNO,2020-01-29-12-17-59,7,25,0.6652093666291302,right,probe,ambiguous-switch,-1,-6,left,left,0.237
DEK2001WRNO,2020-01-29-12-17-59,7,26,0.5174172984373862,right,both,ambiguous-switch,56,-6,left,left,0.175
DEK2001WRNO,2020-01-29-12-17-59,7,27,0.6977762279794486,left,probe,ambiguous-switch,-1,6,left,left,0.305
DEK2001WRNO,2020-01-29-12-17-59,7,28,0.680772874614803,left,both,ambiguous-switch,65,6,left,left,0.538
DEK2001WRNO,2020-01-29-12-17-59,7,29,0.5809627100255518,right,probe,biased-switch,-1,-6,right,right,0.645
DEK2001WRNO,2020-01-29-12-17-59,7,30,0.6587207822517539,right,both,biased-switch,63,-6,right,left,0.787
DEK2001WRNO,2020-01-29-12-17-59,7,31,0.6186844817856328,left,probe,biased-switch,-1,24,left,left,0.891
DEK2001WRNO,2020-01-29-12-17-59,7,32,0.5606587519639374,left,both,biased-switch,65,24,left,right,0.673
DEK2001WRNO,2020-01-29-12-17-59,7,33,0.5561922369537445,right,probe,biased-switch,-1,0,right,right,0.422
DEK2001WRNO,2020-01-29-12-17-59,7,34,0.6620376736843074,right,both,biased-switch,59,0,right,left,0.497
DEK2001WRNO,2020-01-29-12-17-59,7,35,0.5037806299578961,left,probe,biased-switch,-1,6,left,left,0.497
DEK2001WRNO,2020-01-29-12-17-59,7,36,0.6139694274113718,left,both,biased-switch,58,6,left,right,0.22
DEK2001WRNO,2020-01-29-12-17-59,7,37,0.6515621972634428,right,probe,ambiguous-switch,-1,0,left,left,0.427
DEK2001WRNO,2020-01-29-12-17-59,7,38,0.6913552639332402,right,both,ambiguous-switch,56,0,left,right,0.243
DEK2001WRNO,2020-01-29-12-17-59,7,39,0.5587597900312771,right,probe,ambiguous-switch,-1,18,right,right,0.252
DEK2001WRNO,2020-01-29-12-17-59,7,40,0.6135293205244818,right,both,ambiguous-switch,59,18,right,right,0.322
DEK2001WRNO,2020-01-29-12-17-59,7,41,0.5948369348563042,right,probe,biased-switch,-1,-18,right,right,0.294
DEK2001WRNO,2020-01-29-12-17-59,7,42,0.5486238764081617,right,both,biased-switch,62,-18,right,right,0.374
DEK2001WRNO,2020-01-29-12-17-59,7,43,0.5375608648974382,right,probe,ambiguous-switch,-1,-3,right,right,0.507
DEK2001WRNO,2020-01-29-12-17-59,7,44,0.661275677713101,right,both,ambiguous-switch,63,-3,right,right,0.461
DEK2001WRNO,2020-01-29-12-17-59,7,45,0.5259692165084476,left,probe,biased-switch,-1,3,right,right,0.307
DEK2001WRNO,2020-01-29-12-17-59,7,46,0.6074904941879433,left,both,biased-switch,63,3,right,right,0.383
DEK2001WRNO,2020-01-29-12-17-59,7,47,0.5621861233192523,left,probe,ambiguous-switch,-1,-18,right,right,0.257
DEK2001WRNO,2020-01-29-12-17-59,7,48,0.573862410612038,left,both,ambiguous-switch,63,-18,right,right,0.316
DEK2001WRNO,2020-01-29-12-17-59,7,49,0.6103158458358907,left,probe,biased-switch,-1,-3,right,right,0.454
DEK2001WRNO,2020-01-29-12-17-59,7,50,0.5275935556052086,left,both,biased-switch,56,-3,right,right,1.81
DEK2001WRNO,2020-01-29-12-17-59,7,51,0.5444977643817038,right,probe,ambiguous-switch,-1,12,right,right,0.265
DEK2001WRNO,2020-01-29-12-17-59,7,52,0.6950907377813987,right,both,ambiguous-switch,55,12,right,right,0.465
DEK2001WRNO,2020-01-29-12-17-59,7,53,0.5281419076497166,left,probe,biased-switch,-1,18,right,right,1.15
DEK2001WRNO,2020-01-29-12-17-59,7,54,0.5084638349681176,left,both,biased-switch,59,18,right,right,0.815
DEK2001WRNO,2020-01-29-12-17-59,7,55,0.5002856926412727,right,probe,biased-switch,-1,-12,right,right,0.589
DEK2001WRNO,2020-01-29-12-17-59,7,56,0.630693570759856,right,both,biased-switch,64,-12,right,right,0.259
DEK2001WRNO,2020-01-29-12-17-59,7,57,0.6941214292006137,left,probe,ambiguous-switch,-1,-12,right,right,0.244
DEK2001WRNO,2020-01-29-12-17-59,7,58,0.5115344241775532,left,both,ambiguous-switch,65,-12,right,left,0.278
DEK2001WRNO,2020-01-29-12-17-59,7,59,0.5458121007196385,left,probe,biased-switch,-1,12,left,left,0.26
DEK2001WRNO,2020-01-29-12-17-59,7,60,0.5251118273902999,left,both,biased-switch,56,12,left,right,0.264
DEK2001WRNO,2020-01-29-12-17-59,7,61,0.5683106329685489,right,probe,ambiguous-switch,-1,3,right,right,0.305
DEK2001WRNO,2020-01-29-12-17-59,7,62,0.6278486039806586,right,both,ambiguous-switch,62,3,right,left,0.315
DEK2001WRNO,2020-01-29-12-17-59,7,63,0.6851424039267124,left,probe,ambiguous-switch,-1,24,left,left,0.636
DEK2001WRNO,2020-01-29-12-17-59,7,64,0.6568513699837822,left,both,ambiguous-switch,57,24,left,right,1.291
DEK2001WRNO,2020-01-29-12-17-59,7,65,0.5889577286226642,left,probe,ambiguous-switch,-1,-6,left,left,0.843
DEK2001WRNO,2020-01-29-12-17-59,7,66,0.5349090319408181,left,both,ambiguous-switch,59,-6,left,right,0.528
DEK2001WRNO,2020-01-29-12-17-59,7,67,0.6254434714563712,right,probe,ambiguous-switch,-1,6,right,right,0.218
DEK2001WRNO,2020-01-29-12-17-59,7,68,0.6941397520654204,right,both,ambiguous-switch,60,6,right,right,0.251
DEK2001WRNO,2020-01-29-12-17-59,7,69,0.6792278610347787,right,probe,biased-switch,-1,-6,right,right,1.44
DEK2001WRNO,2020-01-29-12-17-59,7,70,0.5552923428190452,right,both,biased-switch,62,-6,right,right,0.284
DEK2001WRNO,2020-01-29-12-17-59,7,71,0.574944394734445,left,probe,biased-switch,-1,24,right,right,0.47
DEK2001WRNO,2020-01-29-12-17-59,7,72,0.6237436545137519,left,both,biased-switch,57,24,right,right,0.328
DEK2001WRNO,2020-01-29-12-17-59,7,73,0.6311942419152606,right,probe,biased-switch,-1,0,right,right,0.6
DEK2001WRNO,2020-01-29-12-17-59,7,74,0.5199440557283822,right,both,biased-switch,59,0,right,right,0.256
DEK2001WRNO,2020-01-29-12-17-59,7,75,0.6738196353722518,right,probe,biased-switch,-1,6,right,right,0.283
DEK2001WRNO,2020-01-29-12-17-59,7,76,0.5741746642718815,right,both,biased-switch,59,6,right,right,1.05
DEK2001WRNO,2020-01-29-12-17-59,7,77,0.6964811528586861,right,probe,ambiguous-switch,-1,0,left,left,0.294
DEK2001WRNO,2020-01-29-12-17-59,7,78,0.6419328876897719,right,both,ambiguous-switch,66,0,left,left,0.224
DEK2001WRNO,2020-01-29-12-17-59,7,79,0.6526320009311741,left,probe,ambiguous-switch,-1,18,right,right,0.408
DEK2001WRNO,2020-01-29-12-17-59,7,80,0.59299947131058,left,both,ambiguous-switch,64,18,right,right,0.493
DEK2001WRNO,2020-01-29-12-17-59,8,1,0.6696121745116373,left,probe,biased-switch,-1,-12,left,left,0.218
DEK2001WRNO,2020-01-29-12-17-59,8,2,0.6337847134765604,left,both,biased-switch,57,-12,left,left,0.266
DEK2001WRNO,2020-01-29-12-17-59,8,3,0.5962616745361056,left,probe,ambiguous-switch,-1,-12,left,left,0.187
DEK2001WRNO,2020-01-29-12-17-59,8,4,0.5334112129675833,left,both,ambiguous-switch,56,-12,left,left,0.237
DEK2001WRNO,2020-01-29-12-17-59,8,5,0.6145413396880539,right,probe,biased-switch,-1,-18,left,left,0.176
DEK2001WRNO,2020-01-29-12-17-59,8,6,0.6626174902200761,right,both,biased-switch,55,-18,left,left,1.149
DEK2001WRNO,2020-01-29-12-17-59,8,7,0.6445481931434448,right,probe,ambiguous-switch,-1,-3,left,left,0.429
DEK2001WRNO,2020-01-29-12-17-59,8,8,0.6072892074665303,right,both,ambiguous-switch,64,-3,left,left,0.242
DEK2001WRNO,2020-01-29-12-17-59,8,9,0.6482978651383513,left,probe,ambiguous-switch,-1,12,left,left,0.275
DEK2001WRNO,2020-01-29-12-17-59,8,10,0.5372692911146706,left,both,ambiguous-switch,63,12,left,left,0.309
DEK2001WRNO,2020-01-29-12-17-59,8,11,0.6940068265704086,left,probe,biased-switch,-1,24,left,left,0.236
DEK2001WRNO,2020-01-29-12-17-59,8,12,0.5921021958927787,left,both,biased-switch,65,24,left,left,0.205
DEK2001WRNO,2020-01-29-12-17-59,8,13,0.5184670926996381,left,probe,biased-switch,-1,3,left,left,0.2
DEK2001WRNO,2020-01-29-12-17-59,8,14,0.5929648655801105,left,both,biased-switch,64,3,left,left,0.18
DEK2001WRNO,2020-01-29-12-17-59,8,15,0.6510042606583167,right,probe,biased-switch,-1,0,left,left,0.29
DEK2001WRNO,2020-01-29-12-17-59,8,16,0.6585708983750334,right,both,biased-switch,54,0,left,left,0.282
DEK2001WRNO,2020-01-29-12-17-59,8,17,0.5211846716753432,left,probe,biased-switch,-1,6,left,left,0.282
DEK2001WRNO,2020-01-29-12-17-59,8,18,0.5125524091064503,left,both,biased-switch,64,6,left,left,0.279
DEK2001WRNO,2020-01-29-12-17-59,8,19,0.5506730443160929,left,probe,ambiguous-switch,-1,24,left,left,0.302
DEK2001WRNO,2020-01-29-12-17-59,8,20,0.6675819649983213,left,both,ambiguous-switch,62,24,left,left,0.257
DEK2001WRNO,2020-01-29-12-17-59,8,21,0.5240179834082973,left,probe,biased-switch,-1,-3,left,left,0.381
DEK2001WRNO,2020-01-29-12-17-59,8,22,0.5059692982881544,left,both,biased-switch,65,-3,left,left,0.237
DEK2001WRNO,2020-01-29-12-17-59,8,23,0.5339616646102888,right,probe,ambiguous-switch,-1,6,left,left,0.306
DEK2001WRNO,2020-01-29-12-17-59,8,24,0.5337632040815462,right,both,ambiguous-switch,63,6,left,left,0.439
DEK2001WRNO,2020-01-29-12-17-59,8,25,0.6977033204322992,left,probe,biased-switch,-1,18,left,left,0.488
DEK2001WRNO,2020-01-29-12-17-59,8,26,0.5657491893113137,left,both,biased-switch,62,18,left,left,2.118
DEK2001WRNO,2020-01-29-12-17-59,8,27,0.6534470734466753,left,probe,biased-switch,-1,-6,left,left,0.369
DEK2001WRNO,2020-01-29-12-17-59,8,28,0.6760493440697095,left,both,biased-switch,58,-6,left,left,0.291
DEK2001WRNO,2020-01-29-12-17-59,8,29,0.6689657942870147,right,probe,ambiguous-switch,-1,3,left,left,0.38
DEK2001WRNO,2020-01-29-12-17-59,8,30,0.5545549358247663,right,both,ambiguous-switch,59,3,left,right,0.606
DEK2001WRNO,2020-01-29-12-17-59,8,31,0.6961576671193713,right,probe,ambiguous-switch,-1,18,right,right,0.325
DEK2001WRNO,2020-01-29-12-17-59,8,32,0.5290463393809378,right,both,ambiguous-switch,56,18,right,right,0.278
DEK2001WRNO,2020-01-29-12-17-59,8,33,0.6511181973848829,right,probe,ambiguous-switch,-1,-18,left,left,0.454
DEK2001WRNO,2020-01-29-12-17-59,8,34,0.6937876396978704,right,both,ambiguous-switch,56,-18,left,left,1.309
DEK2001WRNO,2020-01-29-12-17-59,8,35,0.5908702947091125,left,probe,ambiguous-switch,-1,-6,left,left,0.609
DEK2001WRNO,2020-01-29-12-17-59,8,36,0.5584883759565455,left,both,ambiguous-switch,61,-6,left,left,0.626
DEK2001WRNO,2020-01-29-12-17-59,8,37,0.600492829654017,right,probe,biased-switch,-1,12,left,left,0.322
DEK2001WRNO,2020-01-29-12-17-59,8,38,0.6523664294238523,right,both,biased-switch,59,12,left,left,0.271
DEK2001WRNO,2020-01-29-12-17-59,8,39,0.6383640720875184,left,probe,ambiguous-switch,-1,0,left,left,0.229
DEK2001WRNO,2020-01-29-12-17-59,8,40,0.5975123255424294,left,both,ambiguous-switch,65,0,left,left,0.263
DEK2001WRNO,2020-01-29-12-17-59,8,41,0.646536061627047,left,probe,biased-switch,-1,-12,left,left,0.325
DEK2001WRNO,2020-01-29-12-17-59,8,42,0.5073583143980731,left,both,biased-switch,59,-12,left,left,0.238
DEK2001WRNO,2020-01-29-12-17-59,8,43,0.6137248250896927,right,probe,ambiguous-switch,-1,-12,left,left,0.265
DEK2001WRNO,2020-01-29-12-17-59,8,44,0.6035262473233018,right,both,ambiguous-switch,56,-12,left,right,0.78
DEK2001WRNO,2020-01-29-12-17-59,8,45,0.5037658193944653,left,probe,biased-switch,-1,-18,left,left,0.274
DEK2001WRNO,2020-01-29-12-17-59,8,46,0.5600976651831612,left,both,biased-switch,55,-18,left,right,0.203
DEK2001WRNO,2020-01-29-12-17-59,8,47,0.530949997547755,left,probe,ambiguous-switch,-1,-3,left,left,0.612
DEK2001WRNO,2020-01-29-12-17-59,8,48,0.6971001131287318,left,both,ambiguous-switch,60,-3,left,right,0.341
DEK2001WRNO,2020-01-29-12-17-59,8,49,0.6301960686053143,left,probe,ambiguous-switch,-1,12,left,left,0.395
DEK2001WRNO,2020-01-29-12-17-59,8,50,0.5130407151907125,left,both,ambiguous-switch,55,12,left,left,0.298
DEK2001WRNO,2020-01-29-12-17-59,8,51,0.6855172497082979,right,probe,biased-switch,-1,24,left,left,0.263
DEK2001WRNO,2020-01-29-12-17-59,8,52,0.5882649778830051,right,both,biased-switch,59,24,left,left,0.31
DEK2001WRNO,2020-01-29-12-17-59,8,53,0.577660284642869,left,probe,biased-switch,-1,3,right,right,0.265
DEK2001WRNO,2020-01-29-12-17-59,8,54,0.6406292813054763,left,both,biased-switch,63,3,right,right,0.27
DEK2001WRNO,2020-01-29-12-17-59,8,55,0.5049085312895251,left,probe,biased-switch,-1,0,right,right,0.774
DEK2001WRNO,2020-01-29-12-17-59,8,56,0.640753252325226,left,both,biased-switch,62,0,right,right,0.076
DEK2001WRNO,2020-01-29-12-17-59,8,57,0.6667461905913945,left,probe,biased-switch,-1,6,right,right,0.414
DEK2001WRNO,2020-01-29-12-17-59,8,58,0.5143924917534429,left,both,biased-switch,62,6,right,right,0.636
DEK2001WRNO,2020-01-29-12-17-59,8,59,0.6156368430189938,left,probe,ambiguous-switch,-1,24,right,right,0.31
DEK2001WRNO,2020-01-29-12-17-59,8,60,0.5947145447408169,left,both,ambiguous-switch,55,24,right,right,0.2
DEK2001WRNO,2020-01-29-12-17-59,8,61,0.5607485218951472,right,probe,biased-switch,-1,-3,right,right,0.184
DEK2001WRNO,2020-01-29-12-17-59,8,62,0.5463216993602674,right,both,biased-switch,66,-3,right,left,0.217
DEK2001WRNO,2020-01-29-12-17-59,8,63,0.5749686073060032,right,probe,ambiguous-switch,-1,6,right,right,0.299
DEK2001WRNO,2020-01-29-12-17-59,8,64,0.5751768870909333,right,both,ambiguous-switch,60,6,right,right,0.248
DEK2001WRNO,2020-01-29-12-17-59,8,65,0.5788747293548717,left,probe,biased-switch,-1,18,right,right,0.212
DEK2001WRNO,2020-01-29-12-17-59,8,66,0.5477879124341624,left,both,biased-switch,60,18,right,right,0.359
DEK2001WRNO,2020-01-29-12-17-59,8,67,0.5925658076029853,left,probe,biased-switch,-1,-6,right,right,1.014
DEK2001WRNO,2020-01-29-12-17-59,8,68,0.5297609660057044,left,both,biased-switch,63,-6,right,right,0.527
DEK2001WRNO,2020-01-29-12-17-59,8,69,0.6935820398617455,left,probe,ambiguous-switch,-1,3,right,right,0.313
DEK2001WRNO,2020-01-29-12-17-59,8,70,0.5864628064756727,left,both,ambiguous-switch,55,3,right,right,0.228
DEK2001WRNO,2020-01-29-12-17-59,8,71,0.6602064432045784,right,probe,ambiguous-switch,-1,18,right,right,0.269
DEK2001WRNO,2020-01-29-12-17-59,8,72,0.6263969879040492,right,both,ambiguous-switch,56,18,right,right,0.199
DEK2001WRNO,2020-01-29-12-17-59,8,73,0.507894309778696,right,probe,ambiguous-switch,-1,-18,right,right,0.297
DEK2001WRNO,2020-01-29-12-17-59,8,74,0.5900707006927925,right,both,ambiguous-switch,63,-18,right,right,0.266
DEK2001WRNO,2020-01-29-12-17-59,8,75,0.6508506144206843,right,probe,ambiguous-switch,-1,-6,right,right,0.227
DEK2001WRNO,2020-01-29-12-17-59,8,76,0.6372093751761829,right,both,ambiguous-switch,58,-6,right,left,0.138
DEK2001WRNO,2020-01-29-12-17-59,8,77,0.6590837629975524,right,probe,biased-switch,-1,12,right,right,0.209
DEK2001WRNO,2020-01-29-12-17-59,8,78,0.6511649170936562,right,both,biased-switch,62,12,right,right,0.668
DEK2001WRNO,2020-01-29-12-17-59,8,79,0.5036506993393486,right,probe,ambiguous-switch,-1,0,left,left,0.024
DEK2001WRNO,2020-01-29-12-17-59,8,80,0.5896371347444495,right,both,ambiguous-switch,62,0,left,right,0.21
DEK2001WRNO,2020-01-29-12-17-59,9,1,0.5111230541598771,left,probe,ambiguous-switch,-1,-6,right,right,0.32
DEK2001WRNO,2020-01-29-12-17-59,9,2,0.549593781374541,left,both,ambiguous-switch,60,-6,right,right,1.166
DEK2001WRNO,2020-01-29-12-17-59,9,3,0.5127475404129311,left,probe,biased-switch,-1,-18,right,right,0.217
DEK2001WRNO,2020-01-29-12-17-59,9,4,0.6986474096446138,left,both,biased-switch,65,-18,right,right,0.292
DEK2001WRNO,2020-01-29-12-17-59,9,5,0.5902596167770049,left,probe,ambiguous-switch,-1,-3,right,right,0.205
DEK2001WRNO,2020-01-29-12-17-59,9,6,0.5579660988622006,left,both,ambiguous-switch,59,-3,right,right,0.252
DEK2001WRNO,2020-01-29-12-17-59,9,7,0.5418077685760844,left,probe,ambiguous-switch,-1,18,right,right,0.217
DEK2001WRNO,2020-01-29-12-17-59,9,8,0.5751702128512384,left,both,ambiguous-switch,62,18,right,right,0.199
DEK2001WRNO,2020-01-29-12-17-59,9,9,0.5185883328965053,left,probe,biased-switch,-1,24,right,right,0.26
DEK2001WRNO,2020-01-29-12-17-59,9,10,0.6198511784830917,left,both,biased-switch,62,24,right,right,0.166
DEK2001WRNO,2020-01-29-12-17-59,9,11,0.6089413764010556,left,probe,biased-switch,-1,12,right,right,0.224
DEK2001WRNO,2020-01-29-12-17-59,9,12,0.5411874865393858,left,both,biased-switch,58,12,right,right,0.277
DEK2001WRNO,2020-01-29-12-17-59,9,13,0.6137121325370363,left,probe,biased-switch,-1,6,right,right,0.244
DEK2001WRNO,2020-01-29-12-17-59,9,14,0.6833753126782192,left,both,biased-switch,62,6,right,right,0.564
DEK2001WRNO,2020-01-29-12-17-59,9,15,0.6044102370308654,left,probe,biased-switch,-1,-3,right,right,0.523
DEK2001WRNO,2020-01-29-12-17-59,9,16,0.5110956788589066,left,both,biased-switch,56,-3,right,right,0.418
DEK2001WRNO,2020-01-29-12-17-59,9,17,0.6628599459681926,left,probe,ambiguous-switch,-1,-18,right,right,0.387
DEK2001WRNO,2020-01-29-12-17-59,9,18,0.6276632000108391,left,both,ambiguous-switch,65,-18,right,right,0.099
DEK2001WRNO,2020-01-29-12-17-59,9,19,0.698477174052123,right,probe,biased-switch,-1,3,right,right,0.417
DEK2001WRNO,2020-01-29-12-17-59,9,20,0.6209098300427243,right,both,biased-switch,60,3,right,right,1.222
DEK2001WRNO,2020-01-29-12-17-59,9,21,0.5899551086701329,right,probe,ambiguous-switch,-1,6,right,right,0.565
DEK2001WRNO,2020-01-29-12-17-59,9,22,0.647774554863245,right,both,ambiguous-switch,60,6,right,right,0.483
DEK2001WRNO,2020-01-29-12-17-59,9,23,0.5103329398474473,left,probe,biased-switch,-1,18,right,right,0.432
DEK2001WRNO,2020-01-29-12-17-59,9,24,0.5530154953749072,left,both,biased-switch,57,18,right,right,0.344
DEK2001WRNO,2020-01-29-12-17-59,9,25,0.6275043252519241,left,probe,ambiguous-switch,-1,12,right,right,0.363
DEK2001WRNO,2020-01-29-12-17-59,9,26,0.5039334164678005,left,both,ambiguous-switch,58,12,right,right,0.547
DEK2001WRNO,2020-01-29-12-17-59,9,27,0.6277398252312314,right,probe,biased-switch,-1,-6,right,right,1.06
DEK2001WRNO,2020-01-29-12-17-59,9,28,0.6248694290775506,right,both,biased-switch,61,-6,right,right,0.293
DEK2001WRNO,2020-01-29-12-17-59,9,29,0.5522237717551423,right,probe,biased-switch,-1,-12,right,right,0.308
DEK2001WRNO,2020-01-29-12-17-59,9,30,0.6778119173341259,right,both,biased-switch,55,-12,right,left,0.006
DEK2001WRNO,2020-01-29-12-17-59,9,31,0.6083032494061213,left,probe,ambiguous-switch,-1,-12,right,right,0.279
DEK2001WRNO,2020-01-29-12-17-59,9,32,0.6286398812867172,left,both,ambiguous-switch,58,-12,right,right,0.22
DEK2001WRNO,2020-01-29-12-17-59,9,33,0.5318557098825998,right,probe,ambiguous-switch,-1,0,right,right,0.299
DEK2001WRNO,2020-01-29-12-17-59,9,34,0.584805363985439,right,both,ambiguous-switch,61,0,right,left,0.385
DEK2001WRNO,2020-01-29-12-17-59,9,35,0.5850959509909286,left,probe,biased-switch,-1,0,right,right,0.564
DEK2001WRNO,2020-01-29-12-17-59,9,36,0.5104116426769724,left,both,biased-switch,65,0,right,left,0.472
DEK2001WRNO,2020-01-29-12-17-59,9,37,0.6511132535597368,left,probe,ambiguous-switch,-1,24,left,left,0.353
DEK2001WRNO,2020-01-29-12-17-59,9,38,0.6358880382083776,left,both,ambiguous-switch,59,24,left,right,0.499
DEK2001WRNO,2020-01-29-12-17-59,9,39,0.5506491972088097,left,probe,ambiguous-switch,-1,3,left,left,0.454
DEK2001WRNO,2020-01-29-12-17-59,9,40,0.6170361680080534,left,both,ambiguous-switch,61,3,left,left,0.218
DEK2001WRNO,2020-01-29-12-17-59,9,41,0.6661898830298078,left,probe,ambiguous-switch,-1,-6,left,left,0.271
DEK2001WRNO,2020-01-29-12-17-59,9,42,0.5048322532033886,left,both,ambiguous-switch,66,-6,left,left,0.191
DEK2001WRNO,2020-01-29-12-17-59,9,43,0.5166222145530139,right,probe,biased-switch,-1,-18,left,left,0.19
DEK2001WRNO,2020-01-29-12-17-59,9,44,0.591871585179535,right,both,biased-switch,62,-18,left,left,0.184
DEK2001WRNO,2020-01-29-12-17-59,9,45,0.6652992677387448,left,probe,ambiguous-switch,-1,-3,left,left,0.247
DEK2001WRNO,2020-01-29-12-17-59,9,46,0.6106094046362021,left,both,ambiguous-switch,58,-3,left,left,0.225
DEK2001WRNO,2020-01-29-12-17-59,9,47,0.6153346631866174,left,probe,ambiguous-switch,-1,18,left,left,0.241
DEK2001WRNO,2020-01-29-12-17-59,9,48,0.5640114254698173,left,both,ambiguous-switch,55,18,left,left,0.06
DEK2001WRNO,2020-01-29-12-17-59,9,49,0.6183020543213531,left,probe,biased-switch,-1,24,left,left,0.156
DEK2001WRNO,2020-01-29-12-17-59,9,50,0.5339427804560795,left,both,biased-switch,65,24,left,left,0.142
DEK2001WRNO,2020-01-29-12-17-59,9,51,0.5285644796453145,right,probe,biased-switch,-1,12,left,left,0.225
DEK2001WRNO,2020-01-29-12-17-59,9,52,0.5452792788055598,right,both,biased-switch,57,12,left,right,0.183
DEK2001WRNO,2020-01-29-12-17-59,9,53,0.5380915827766994,right,probe,biased-switch,-1,6,left,left,0.111
DEK2001WRNO,2020-01-29-12-17-59,9,54,0.6304539524876388,right,both,biased-switch,63,6,left,left,0.458
DEK2001WRNO,2020-01-29-12-17-59,9,55,0.6634832290238136,left,probe,biased-switch,-1,-3,left,left,0.231
DEK2001WRNO,2020-01-29-12-17-59,9,56,0.5289829969241037,left,both,biased-switch,54,-3,left,left,0.266
DEK2001WRNO,2020-01-29-12-17-59,9,57,0.6602429472941922,left,probe,ambiguous-switch,-1,-18,left,left,0.085
DEK2001WRNO,2020-01-29-12-17-59,9,58,0.5846457071398597,left,both,ambiguous-switch,56,-18,left,left,2.362
DEK2001WRNO,2020-01-29-12-17-59,9,59,0.647387594860249,right,probe,biased-switch,-1,3,left,left,0.219
DEK2001WRNO,2020-01-29-12-17-59,9,60,0.5526432718411043,right,both,biased-switch,61,3,left,left,0.225
DEK2001WRNO,2020-01-29-12-17-59,9,61,0.6879368525709892,right,probe,ambiguous-switch,-1,6,left,left,0.551
DEK2001WRNO,2020-01-29-12-17-59,9,62,0.622539767677962,right,both,ambiguous-switch,55,6,left,left,0.27
DEK2001WRNO,2020-01-29-12-17-59,9,63,0.508255744495537,right,probe,biased-switch,-1,18,left,left,0.328
DEK2001WRNO,2020-01-29-12-17-59,9,64,0.6102027174031938,right,both,biased-switch,59,18,left,left,0.322
DEK2001WRNO,2020-01-29-12-17-59,9,65,0.6414265860455468,left,probe,ambiguous-switch,-1,12,left,left,0.396
DEK2001WRNO,2020-01-29-12-17-59,9,66,0.6100728721964289,left,both,ambiguous-switch,59,12,left,left,0.047
DEK2001WRNO,2020-01-29-12-17-59,9,67,0.5107500483593541,left,probe,biased-switch,-1,-6,left,left,0.304
DEK2001WRNO,2020-01-29-12-17-59,9,68,0.6115869169396729,left,both,biased-switch,60,-6,left,left,0.941
DEK2001WRNO,2020-01-29-12-17-59,9,69,0.6440889327226115,right,probe,biased-switch,-1,-12,left,left,0.411
DEK2001WRNO,2020-01-29-12-17-59,9,70,0.5851771154567929,right,both,biased-switch,58,-12,left,left,1.046
DEK2001WRNO,2020-01-29-12-17-59,9,71,0.5322890398640685,right,probe,ambiguous-switch,-1,-12,left,left,0.36
DEK2001WRNO,2020-01-29-12-17-59,9,72,0.5511938445830997,right,both,ambiguous-switch,66,-12,left,left,0.555
DEK2001WRNO,2020-01-29-12-17-59,9,73,0.5223310085130864,right,probe,ambiguous-switch,-1,0,left,left,0.629
DEK2001WRNO,2020-01-29-12-17-59,9,74,0.5880746186119369,right,both,ambiguous-switch,63,0,left,left,0.242
DEK2001WRNO,2020-01-29-12-17-59,9,75,0.6952028491175783,left,probe,biased-switch,-1,0,left,left,0.422
DEK2001WRNO,2020-01-29-12-17-59,9,76,0.6018054963063285,left,both,biased-switch,55,0,left,left,0.127
DEK2001WRNO,2020-01-29-12-17-59,9,77,0.6556584323225372,right,probe,ambiguous-switch,-1,24,left,left,0.422
DEK2001WRNO,2020-01-29-12-17-59,9,78,0.6654435809246607,right,both,ambiguous-switch,56,24,left,left,0.208
DEK2001WRNO,2020-01-29-12-17-59,9,79,0.5500187743472803,right,probe,ambiguous-switch,-1,3,left,left,0.403
DEK2001WRNO,2020-01-29-12-17-59,9,80,0.5746956020004234,right,both,ambiguous-switch,57,3,left,left,0.162
DEK2001WRNO,2020-01-29-12-17-59,10,1,0.5259671777921708,right,probe,biased-switch,-1,-3,left,left,0.224
DEK2001WRNO,2020-01-29-12-17-59,10,2,0.5638038324725593,right,both,biased-switch,62,-3,left,left,0.208
DEK2001WRNO,2020-01-29-12-17-59,10,3,0.5536765139865707,left,probe,ambiguous-switch,-1,24,left,left,0.293
DEK2001WRNO,2020-01-29-12-17-59,10,4,0.5896069473983646,left,both,ambiguous-switch,58,24,left,right,0.297
DEK2001WRNO,2020-01-29-12-17-59,10,5,0.6320862816476726,right,probe,ambiguous-switch,-1,-12,right,right,0.307
DEK2001WRNO,2020-01-29-12-17-59,10,6,0.6258764133594632,right,both,ambiguous-switch,56,-12,right,right,0.288
DEK2001WRNO,2020-01-29-12-17-59,10,7,0.5771979500210145,left,probe,ambiguous-switch,-1,-3,left,left,0.271
DEK2001WRNO,2020-01-29-12-17-59,10,8,0.6631975004009583,left,both,ambiguous-switch,63,-3,left,left,0.462
DEK2001WRNO,2020-01-29-12-17-59,10,9,0.5232389429222987,right,probe,ambiguous-switch,-1,12,right,right,0.3
DEK2001WRNO,2020-01-29-12-17-59,10,10,0.6499287951924771,right,both,ambiguous-switch,54,12,right,right,1.048
DEK2001WRNO,2020-01-29-12-17-59,10,11,0.6385855453393252,right,probe,biased-switch,-1,0,right,right,1.169
DEK2001WRNO,2020-01-29-12-17-59,10,12,0.5325152266467491,right,both,biased-switch,60,0,right,right,0.576
DEK2001WRNO,2020-01-29-12-17-59,10,13,0.6107238022863366,right,probe,biased-switch,-1,-12,right,right,0.347
DEK2001WRNO,2020-01-29-12-17-59,10,14,0.6600721895853551,right,both,biased-switch,62,-12,right,right,0.397
DEK2001WRNO,2020-01-29-12-17-59,10,15,0.6546774266586801,left,probe,ambiguous-switch,-1,6,right,right,0.279
DEK2001WRNO,2020-01-29-12-17-59,10,16,0.5487772086333007,left,both,ambiguous-switch,55,6,right,right,1.132
DEK2001WRNO,2020-01-29-12-17-59,10,17,0.6801384912819773,left,probe,biased-switch,-1,12,right,right,0.42
DEK2001WRNO,2020-01-29-12-17-59,10,18,0.5719003760530356,left,both,biased-switch,61,12,right,right,0.72
DEK2001WRNO,2020-01-29-12-17-59,10,19,0.6993764997018586,right,probe,biased-switch,-1,-6,right,right,0.39
DEK2001WRNO,2020-01-29-12-17-59,10,20,0.5619780085044028,right,both,biased-switch,64,-6,right,right,0.566
DEK2001WRNO,2020-01-29-12-17-59,10,21,0.5736444200341766,right,probe,ambiguous-switch,-1,0,right,right,0.338
DEK2001WRNO,2020-01-29-12-17-59,10,22,0.5800678050371454,right,both,ambiguous-switch,61,0,right,right,0.421
DEK2001WRNO,2020-01-29-12-17-59,10,23,0.5905999776065745,left,probe,biased-switch,-1,6,right,right,0.651
DEK2001WRNO,2020-01-29-12-17-59,10,24,0.5084698701054897,left,both,biased-switch,62,6,right,right,0.238
DEK2001WRNO,2020-01-29-12-17-59,10,25,0.5363750880668907,right,probe,ambiguous-switch,-1,18,right,right,0.747
DEK2001WRNO,2020-01-29-12-17-59,10,26,0.5464812375907656,right,both,ambiguous-switch,64,18,right,right,0.311
DEK2001WRNO,2020-01-29-12-17-59,10,27,0.6299267061445666,left,probe,biased-switch,-1,24,right,right,0.964
DEK2001WRNO,2020-01-29-12-17-59,10,28,0.5393287339570155,left,both,biased-switch,55,24,right,right,0.17
DEK2001WRNO,2020-01-29-12-17-59,10,29,0.6476655932668294,right,probe,biased-switch,-1,-18,right,right,0.556
DEK2001WRNO,2020-01-29-12-17-59,10,30,0.5085687286013385,right,both,biased-switch,63,-18,right,right,0.266
DEK2001WRNO,2020-01-29-12-17-59,10,31,0.6637497958116305,right,probe,ambiguous-switch,-1,3,right,right,0.791
DEK2001WRNO,2020-01-29-12-17-59,10,32,0.6014779706366217,right,both,ambiguous-switch,58,3,right,right,0.207
DEK2001WRNO,2020-01-29-12-17-59,10,33,0.6237726796928437,right,probe,ambiguous-switch,-1,-6,right,right,0.643
DEK2001WRNO,2020-01-29-12-17-59,10,34,0.6496437689167421,right,both,ambiguous-switch,55,-6,right,right,0.2
DEK2001WRNO,2020-01-29-12-17-59,10,35,0.5112394348284773,right,probe,ambiguous-switch,-1,-18,right,right,0.7
DEK2001WRNO,2020-01-29-12-17-59,10,36,0.5524195866524457,right,both,ambiguous-switch,62,-18,right,right,0.194
DEK2001WRNO,2020-01-29-12-17-59,10,37,0.6139391768975062,left,probe,biased-switch,-1,18,right,right,0.543
DEK2001WRNO,2020-01-29-12-17-59,10,38,0.5076917618814053,left,both,biased-switch,65,18,right,right,0.26
DEK2001WRNO,2020-01-29-12-17-59,10,39,0.622546292479098,right,probe,biased-switch,-1,3,right,right,0.987
DEK2001WRNO,2020-01-29-12-17-59,10,40,0.6578090744567868,right,both,biased-switch,56,3,right,right,0.213
DEK2001WRNO,2020-01-29-12-17-59,10,41,0.6805796132007204,right,probe,biased-switch,-1,-3,right,right,0.47
DEK2001WRNO,2020-01-29-12-17-59,10,42,0.5310771549307562,right,both,biased-switch,60,-3,right,right,0.237
DEK2001WRNO,2020-01-29-12-17-59,10,43,0.5998033143704402,left,probe,ambiguous-switch,-1,24,right,right,1.039
DEK2001WRNO,2020-01-29-12-17-59,10,44,0.6344858279042503,left,both,ambiguous-switch,64,24,right,right,0.209
DEK2001WRNO,2020-01-29-12-17-59,10,45,0.5049708895812374,right,probe,ambiguous-switch,-1,-12,right,right,0.737
DEK2001WRNO,2020-01-29-12-17-59,10,46,0.6324464394091744,right,both,ambiguous-switch,64,-12,right,right,0.213
DEK2001WRNO,2020-01-29-12-17-59,10,47,0.6381218234318888,left,probe,ambiguous-switch,-1,-3,right,right,0.696
DEK2001WRNO,2020-01-29-12-17-59,10,48,0.649314394622392,left,both,ambiguous-switch,57,-3,right,right,0.206
DEK2001WRNO,2020-01-29-12-17-59,10,49,0.6092764341916774,right,probe,ambiguous-switch,-1,12,right,right,0.67
DEK2001WRNO,2020-01-29-12-17-59,10,50,0.6725798524932981,right,both,ambiguous-switch,63,12,right,right,0.211
DEK2001WRNO,2020-01-29-12-17-59,10,51,0.6030980824098624,left,probe,biased-switch,-1,0,right,right,0.614
DEK2001WRNO,2020-01-29-12-17-59,10,52,0.6770027466911587,left,both,biased-switch,64,0,right,right,0.211
DEK2001WRNO,2020-01-29-12-17-59,10,53,0.5888220843073556,left,probe,biased-switch,-1,-12,right,right,0.456
DEK2001WRNO,2020-01-29-12-17-59,10,54,0.5818222623451169,left,both,biased-switch,63,-12,right,right,0.29
DEK2001WRNO,2020-01-29-12-17-59,10,55,0.6568573322115006,left,probe,ambiguous-switch,-1,6,right,right,0.602
DEK2001WRNO,2020-01-29-12-17-59,10,56,0.6058577769081412,left,both,ambiguous-switch,60,6,right,right,1.798
DEK2001WRNO,2020-01-29-12-17-59,10,57,0.6051799993284538,left,probe,biased-switch,-1,12,right,right,1.511
DEK2001WRNO,2020-01-29-12-17-59,10,58,0.5183350204204986,left,both,biased-switch,59,12,right,right,0.549
DEK2001WRNO,2020-01-29-12-17-59,10,59,0.5002740666827289,right,probe,biased-switch,-1,-6,right,right,0.513
DEK2001WRNO,2020-01-29-12-17-59,10,60,0.510822451626313,right,both,biased-switch,59,-6,right,right,0.296
DEK2001WRNO,2020-01-29-12-17-59,10,61,0.504185817874531,left,probe,ambiguous-switch,-1,0,right,right,0.404
DEK2001WRNO,2020-01-29-12-17-59,10,62,0.6456270357624483,left,both,ambiguous-switch,65,0,right,right,0.206
DEK2001WRNO,2020-01-29-12-17-59,10,63,0.6795874296418205,left,probe,biased-switch,-1,6,right,right,0.623
DEK2001WRNO,2020-01-29-12-17-59,10,64,0.6045665674486891,left,both,biased-switch,60,6,right,right,0.306
DEK2001WRNO,2020-01-29-12-17-59,10,65,0.5975460170340293,right,probe,ambiguous-switch,-1,18,right,right,0.311
DEK2001WRNO,2020-01-29-12-17-59,10,66,0.6163887121272316,right,both,ambiguous-switch,64,18,right,right,0.212
DEK2001WRNO,2020-01-29-12-17-59,10,67,0.6635561492865765,left,probe,biased-switch,-1,24,right,right,0.381
DEK2001WRNO,2020-01-29-12-17-59,10,68,0.6103372966305342,left,both,biased-switch,63,24,right,right,0.209
DEK2001WRNO,2020-01-29-12-17-59,10,69,0.6594756438383865,right,probe,biased-switch,-1,-18,right,right,0.424
DEK2001WRNO,2020-01-29-12-17-59,10,70,0.6802975689656703,right,both,biased-switch,65,-18,right,right,0.383
DEK2001WRNO,2020-01-29-12-17-59,10,71,0.6339175732757638,right,probe,ambiguous-switch,-1,3,right,right,0.522
DEK2001WRNO,2020-01-29-12-17-59,10,72,0.5497161632635774,right,both,ambiguous-switch,65,3,right,right,0.23
DEK2001WRNO,2020-01-29-12-17-59,10,73,0.5759776700129923,right,probe,ambiguous-switch,-1,-6,right,right,0.741
DEK2001WRNO,2020-01-29-12-17-59,10,74,0.6231692276782332,right,both,ambiguous-switch,64,-6,right,right,0.362
DEK2001WRNO,2020-01-29-12-17-59,10,75,0.6995539179776857,right,probe,ambiguous-switch,-1,-18,right,right,0.708
DEK2001WRNO,2020-01-29-12-17-59,10,76,0.6442132986284528,right,both,ambiguous-switch,64,-18,right,right,0.356
DEK2001WRNO,2020-01-29-12-17-59,10,77,0.6827937986882922,right,probe,biased-switch,-1,18,right,right,0.732
DEK2001WRNO,2020-01-29-12-17-59,10,78,0.5872019459330826,right,both,biased-switch,60,18,right,right,0.284
DEK2001WRNO,2020-01-29-12-17-59,10,79,0.5212433009890041,right,probe,biased-switch,-1,3,right,right,0.515
DEK2001WRNO,2020-01-29-12-17-59,10,80,0.5073186771810576,right,both,biased-switch,57,3,right,right,0.291
