Participant,Session,Block,Trial,OnsetDelay,ProbeLocation,WhatIsReported,Condition,TriggerTime,ProbeSOA,PrimeDirection,Response,RT
ESN1998WRNO,2019-09-18-12-13-28,1,1,0.6824628512480118,left,probe,ambiguous-switch,-1,-5,right,right,1.812
ESN1998WRNO,2019-09-18-12-13-28,1,2,0.600814235589904,left,both,ambiguous-switch,95,-5,right,right,0.921
ESN1998WRNO,2019-09-18-12-13-28,1,3,0.6189802386810359,left,probe,biased-switch,-1,20,right,right,0.897
ESN1998WRNO,2019-09-18-12-13-28,1,4,0.6692022056295159,left,both,biased-switch,106,20,right,right,0.666
ESN1998WRNO,2019-09-18-12-13-28,1,5,0.5430439921026049,right,probe,biased-switch,-1,5,right,right,0.638
ESN1998WRNO,2019-09-18-12-13-28,1,6,0.5768263532298707,right,both,biased-switch,91,5,right,right,0.486
ESN1998WRNO,2019-09-18-12-13-28,1,7,0.5199652414612278,left,probe,biased-switch,-1,40,right,right,0.626
ESN1998WRNO,2019-09-18-12-13-28,1,8,0.6049614872060503,left,both,biased-switch,110,40,right,right,0.308
ESN1998WRNO,2019-09-18-12-13-28,1,9,0.5742613457560015,left,probe,ambiguous-stable,-1,-30,right,right,0.46
ESN1998WRNO,2019-09-18-12-13-28,1,10,0.5783589028996278,left,both,ambiguous-stable,98,-30,left,right,0.653
ESN1998WRNO,2019-09-18-12-13-28,1,11,0.5665057685208876,right,probe,ambiguous-stable,-1,-20,right,right,0.822
ESN1998WRNO,2019-09-18-12-13-28,1,12,0.5267359714220902,right,both,ambiguous-stable,92,-20,left,right,0.495
ESN1998WRNO,2019-09-18-12-13-28,1,13,0.6958803629022685,left,probe,biased-switch,-1,30,right,right,0.932
ESN1998WRNO,2019-09-18-12-13-28,1,14,0.6495775041653448,left,both,biased-switch,102,30,right,right,0.479
ESN1998WRNO,2019-09-18-12-13-28,1,15,0.6583592954447082,right,probe,biased-switch,-1,-20,right,right,0.445
ESN1998WRNO,2019-09-18-12-13-28,1,16,0.6938047585508478,right,both,biased-switch,97,-20,right,right,0.486
ESN1998WRNO,2019-09-18-12-13-28,1,17,0.5179396525473159,right,probe,ambiguous-switch,-1,20,right,right,0.451
ESN1998WRNO,2019-09-18-12-13-28,1,18,0.6390535867850148,right,both,ambiguous-switch,102,20,right,right,0.865
ESN1998WRNO,2019-09-18-12-13-28,1,19,0.5792574227727583,right,probe,biased-switch,-1,10,right,right,1.139
ESN1998WRNO,2019-09-18-12-13-28,1,20,0.5995142641519707,right,both,biased-switch,93,10,right,right,0.459
ESN1998WRNO,2019-09-18-12-13-28,1,21,0.5344056396623218,right,probe,biased-switch,-1,-30,right,right,0.785
ESN1998WRNO,2019-09-18-12-13-28,1,22,0.6080300052157136,right,both,biased-switch,100,-30,right,right,1.292
ESN1998WRNO,2019-09-18-12-13-28,1,23,0.605364335845615,right,probe,biased-switch,-1,-10,right,right,1.104
ESN1998WRNO,2019-09-18-12-13-28,1,24,0.5950723869453177,right,both,biased-switch,100,-10,right,right,0.783
ESN1998WRNO,2019-09-18-12-13-28,1,25,0.5018023384757582,right,probe,ambiguous-switch,-1,-20,right,right,1.301
ESN1998WRNO,2019-09-18-12-13-28,1,26,0.5093350845177662,right,both,ambiguous-switch,95,-20,right,right,0.628
ESN1998WRNO,2019-09-18-12-13-28,1,27,0.5150194532512498,right,probe,ambiguous-stable,-1,20,right,right,0.826
ESN1998WRNO,2019-09-18-12-13-28,1,28,0.678462089165709,right,both,ambiguous-stable,95,20,left,right,0.643
ESN1998WRNO,2019-09-18-12-13-28,1,29,0.6405214473987113,left,probe,ambiguous-switch,-1,40,right,right,0.723
ESN1998WRNO,2019-09-18-12-13-28,1,30,0.5719967399817826,left,both,ambiguous-switch,97,40,right,right,1.554
ESN1998WRNO,2019-09-18-12-13-28,1,31,0.681097239407735,right,probe,ambiguous-switch,-1,-10,right,right,1.249
ESN1998WRNO,2019-09-18-12-13-28,1,32,0.68991836306535,right,both,ambiguous-switch,109,-10,right,right,5.519
ESN1998WRNO,2019-09-18-12-13-28,1,33,0.6979230590546637,left,probe,ambiguous-switch,-1,30,right,right,1.14
ESN1998WRNO,2019-09-18-12-13-28,1,34,0.6023251676765107,left,both,ambiguous-switch,104,30,right,right,0.994
ESN1998WRNO,2019-09-18-12-13-28,1,35,0.5740435097616686,left,probe,ambiguous-stable,-1,-5,right,right,0.786
ESN1998WRNO,2019-09-18-12-13-28,1,36,0.686398263988723,left,both,ambiguous-stable,97,-5,left,right,1.693
ESN1998WRNO,2019-09-18-12-13-28,1,37,0.5168023761424196,right,probe,ambiguous-stable,-1,0,right,right,1.109
ESN1998WRNO,2019-09-18-12-13-28,1,38,0.511390949539259,right,both,ambiguous-stable,103,0,left,right,1.056
ESN1998WRNO,2019-09-18-12-13-28,1,39,0.5998144764290843,right,probe,ambiguous-switch,-1,0,right,right,1.308
ESN1998WRNO,2019-09-18-12-13-28,1,40,0.6786424515169855,right,both,ambiguous-switch,108,0,right,right,0.999
ESN1998WRNO,2019-09-18-12-13-28,1,41,0.6381289455327486,left,probe,ambiguous-stable,-1,40,right,right,1.618
ESN1998WRNO,2019-09-18-12-13-28,1,42,0.5600883732721242,left,both,ambiguous-stable,101,40,left,right,0.725
ESN1998WRNO,2019-09-18-12-13-28,1,43,0.5454889079311327,left,probe,ambiguous-stable,-1,5,right,right,0.661
ESN1998WRNO,2019-09-18-12-13-28,1,44,0.6835014155142579,left,both,ambiguous-stable,107,5,left,right,0.862
ESN1998WRNO,2019-09-18-12-13-28,1,45,0.5042883529808673,left,probe,ambiguous-switch,-1,-30,right,right,1.403
ESN1998WRNO,2019-09-18-12-13-28,1,46,0.57234485157535,left,both,ambiguous-switch,90,-30,right,right,2.901
ESN1998WRNO,2019-09-18-12-13-28,1,47,0.6736102813645505,left,probe,ambiguous-stable,-1,10,right,right,1.718
ESN1998WRNO,2019-09-18-12-13-28,1,48,0.6988689047147447,left,both,ambiguous-stable,98,10,left,right,1.263
ESN1998WRNO,2019-09-18-12-13-28,1,49,0.6104684586755972,left,probe,biased-switch,-1,0,right,right,1.384
ESN1998WRNO,2019-09-18-12-13-28,1,50,0.6843202886120405,left,both,biased-switch,102,0,right,right,3.71
ESN1998WRNO,2019-09-18-12-13-28,1,51,0.5292864790990165,left,probe,ambiguous-switch,-1,5,right,right,0.835
ESN1998WRNO,2019-09-18-12-13-28,1,52,0.5383547867336944,left,both,ambiguous-switch,104,5,right,right,0.767
ESN1998WRNO,2019-09-18-12-13-28,1,53,0.5427264537984833,right,probe,biased-switch,-1,-5,right,right,0.775
ESN1998WRNO,2019-09-18-12-13-28,1,54,0.5788596699537635,right,both,biased-switch,105,-5,right,left,0.717
ESN1998WRNO,2019-09-18-12-13-28,1,55,0.6356758770450335,left,probe,ambiguous-switch,-1,10,right,right,1.165
ESN1998WRNO,2019-09-18-12-13-28,1,56,0.6750807333880947,left,both,ambiguous-switch,99,10,right,right,0.738
ESN1998WRNO,2019-09-18-12-13-28,1,57,0.6895806161466467,left,probe,ambiguous-stable,-1,30,right,right,1.019
ESN1998WRNO,2019-09-18-12-13-28,1,58,0.651080930404048,left,both,ambiguous-stable,97,30,left,right,0.756
ESN1998WRNO,2019-09-18-12-13-28,1,59,0.5146230236174529,left,probe,ambiguous-stable,-1,-10,right,right,0.957
ESN1998WRNO,2019-09-18-12-13-28,1,60,0.5058528799774517,left,both,ambiguous-stable,94,-10,left,right,0.564
ESN1998WRNO,2019-09-18-12-13-28,2,1,0.5379046419033724,right,probe,ambiguous-switch,-1,-10,right,right,2.263
ESN1998WRNO,2019-09-18-12-13-28,2,2,0.5644467126888344,right,both,ambiguous-switch,100,-10,right,left,0.687
ESN1998WRNO,2019-09-18-12-13-28,2,3,0.5845345713842542,right,probe,biased-switch,-1,-5,right,right,1.123
ESN1998WRNO,2019-09-18-12-13-28,2,4,0.5655048968109987,right,both,biased-switch,109,-5,right,left,0.913
ESN1998WRNO,2019-09-18-12-13-28,2,5,0.5035469471399407,right,probe,biased-switch,-1,-20,right,right,1.168
ESN1998WRNO,2019-09-18-12-13-28,2,6,0.6992372336381076,right,both,biased-switch,99,-20,right,left,0.913
ESN1998WRNO,2019-09-18-12-13-28,2,7,0.6022822290776976,left,probe,ambiguous-switch,-1,-5,right,right,0.644
ESN1998WRNO,2019-09-18-12-13-28,2,8,0.6560315759374152,left,both,ambiguous-switch,97,-5,right,right,0.514
ESN1998WRNO,2019-09-18-12-13-28,2,9,0.5229974028180954,left,probe,biased-switch,-1,30,right,right,0.559
ESN1998WRNO,2019-09-18-12-13-28,2,10,0.5073408306335337,left,both,biased-switch,93,30,right,right,0.442
ESN1998WRNO,2019-09-18-12-13-28,2,11,0.6432667520936466,right,probe,ambiguous-stable,-1,40,right,right,0.384
ESN1998WRNO,2019-09-18-12-13-28,2,12,0.5755470768330989,right,both,ambiguous-stable,93,40,left,right,0.542
ESN1998WRNO,2019-09-18-12-13-28,2,13,0.6266596775153647,right,probe,ambiguous-stable,-1,-5,right,right,0.648
ESN1998WRNO,2019-09-18-12-13-28,2,14,0.5637381267740829,right,both,ambiguous-stable,97,-5,left,right,0.275
ESN1998WRNO,2019-09-18-12-13-28,2,15,0.5871508656159008,left,probe,ambiguous-stable,-1,10,right,right,0.759
ESN1998WRNO,2019-09-18-12-13-28,2,16,0.6077965724973514,left,both,ambiguous-stable,99,10,left,right,0.508
ESN1998WRNO,2019-09-18-12-13-28,2,17,0.6151953016324009,left,probe,biased-switch,-1,0,right,right,0.601
ESN1998WRNO,2019-09-18-12-13-28,2,18,0.5079838251540684,left,both,biased-switch,97,0,right,right,0.689
ESN1998WRNO,2019-09-18-12-13-28,2,19,0.5038544597034383,left,probe,ambiguous-switch,-1,20,right,right,0.717
ESN1998WRNO,2019-09-18-12-13-28,2,20,0.5442024108933957,left,both,ambiguous-switch,102,20,right,right,0.621
ESN1998WRNO,2019-09-18-12-13-28,2,21,0.642499742943214,right,probe,ambiguous-switch,-1,30,right,right,1.047
ESN1998WRNO,2019-09-18-12-13-28,2,22,0.5768361559599738,right,both,ambiguous-switch,96,30,right,right,1.175
ESN1998WRNO,2019-09-18-12-13-28,2,23,0.5241731591928142,right,probe,biased-switch,-1,5,right,right,0.881
ESN1998WRNO,2019-09-18-12-13-28,2,24,0.5141077229055638,right,both,biased-switch,109,5,right,right,0.406
ESN1998WRNO,2019-09-18-12-13-28,2,25,0.6190253525797821,right,probe,ambiguous-switch,-1,10,right,right,0.565
ESN1998WRNO,2019-09-18-12-13-28,2,26,0.519710236466576,right,both,ambiguous-switch,95,10,right,right,0.393
ESN1998WRNO,2019-09-18-12-13-28,2,27,0.5728559491729388,right,probe,ambiguous-switch,-1,40,right,right,0.485
ESN1998WRNO,2019-09-18-12-13-28,2,28,0.5153410561410673,right,both,ambiguous-switch,104,40,right,right,0.394
ESN1998WRNO,2019-09-18-12-13-28,2,29,0.6383288720181408,left,probe,ambiguous-switch,-1,0,right,right,0.547
ESN1998WRNO,2019-09-18-12-13-28,2,30,0.5987803480148256,left,both,ambiguous-switch,92,0,right,right,0.583
ESN1998WRNO,2019-09-18-12-13-28,2,31,0.6435382401119999,left,probe,ambiguous-stable,-1,5,right,right,0.618
ESN1998WRNO,2019-09-18-12-13-28,2,32,0.6853975810231161,left,both,ambiguous-stable,98,5,left,right,0.536
ESN1998WRNO,2019-09-18-12-13-28,2,33,0.6318711391801974,left,probe,biased-switch,-1,20,right,right,0.875
ESN1998WRNO,2019-09-18-12-13-28,2,34,0.5726144848526565,left,both,biased-switch,98,20,right,right,0.484
ESN1998WRNO,2019-09-18-12-13-28,2,35,0.5599098408889984,left,probe,ambiguous-stable,-1,-20,right,right,0.648
ESN1998WRNO,2019-09-18-12-13-28,2,36,0.6238737195043196,left,both,ambiguous-stable,93,-20,left,right,0.474
ESN1998WRNO,2019-09-18-12-13-28,2,37,0.6996635544329106,left,probe,ambiguous-switch,-1,-30,right,right,0.715
ESN1998WRNO,2019-09-18-12-13-28,2,38,0.50417924759713,left,both,ambiguous-switch,99,-30,right,right,0.58
ESN1998WRNO,2019-09-18-12-13-28,2,39,0.6866471303674467,right,probe,ambiguous-stable,-1,30,right,right,0.724
ESN1998WRNO,2019-09-18-12-13-28,2,40,0.572600733763073,right,both,ambiguous-stable,98,30,left,right,0.468
ESN1998WRNO,2019-09-18-12-13-28,2,41,0.5784478462466736,right,probe,ambiguous-stable,-1,0,right,right,0.515
ESN1998WRNO,2019-09-18-12-13-28,2,42,0.6154401800030233,right,both,ambiguous-stable,103,0,left,right,0.38
ESN1998WRNO,2019-09-18-12-13-28,2,43,0.6112122009231115,right,probe,ambiguous-switch,-1,5,right,right,0.459
ESN1998WRNO,2019-09-18-12-13-28,2,44,0.580041047590579,right,both,ambiguous-switch,103,5,right,right,0.26
ESN1998WRNO,2019-09-18-12-13-28,2,45,0.6367394890454626,right,probe,ambiguous-stable,-1,20,right,right,0.43
ESN1998WRNO,2019-09-18-12-13-28,2,46,0.5963879273322982,right,both,ambiguous-stable,94,20,left,right,0.462
ESN1998WRNO,2019-09-18-12-13-28,2,47,0.5766103529889475,right,probe,biased-switch,-1,-30,right,right,0.525
ESN1998WRNO,2019-09-18-12-13-28,2,48,0.5999037710094813,right,both,biased-switch,110,-30,right,right,1.479
ESN1998WRNO,2019-09-18-12-13-28,2,49,0.5479767635472437,right,probe,biased-switch,-1,10,right,right,0.875
ESN1998WRNO,2019-09-18-12-13-28,2,50,0.5752904118153411,right,both,biased-switch,102,10,right,right,0.415
ESN1998WRNO,2019-09-18-12-13-28,2,51,0.5012439902577007,left,probe,ambiguous-stable,-1,-10,right,right,0.979
ESN1998WRNO,2019-09-18-12-13-28,2,52,0.6920318845692743,left,both,ambiguous-stable,100,-10,left,right,0.549
ESN1998WRNO,2019-09-18-12-13-28,2,53,0.5217278161391745,right,probe,ambiguous-switch,-1,-20,right,right,1.237
ESN1998WRNO,2019-09-18-12-13-28,2,54,0.5410709556622657,right,both,ambiguous-switch,107,-20,right,right,0.521
ESN1998WRNO,2019-09-18-12-13-28,2,55,0.5378117555453434,right,probe,biased-switch,-1,-10,right,right,0.551
ESN1998WRNO,2019-09-18-12-13-28,2,56,0.591359726225771,right,both,biased-switch,109,-10,right,right,0.524
ESN1998WRNO,2019-09-18-12-13-28,2,57,0.6117257713494252,right,probe,ambiguous-stable,-1,-30,right,right,0.552
ESN1998WRNO,2019-09-18-12-13-28,2,58,0.6474070229430229,right,both,ambiguous-stable,99,-30,left,right,0.566
ESN1998WRNO,2019-09-18-12-13-28,2,59,0.6569553723656416,right,probe,biased-switch,-1,40,right,right,0.536
ESN1998WRNO,2019-09-18-12-13-28,2,60,0.6940353941633651,right,both,biased-switch,107,40,right,right,0.996
ESN1998WRNO,2019-09-18-12-13-28,3,1,0.65054114161446,left,probe,biased-switch,-1,30,right,right,1.747
ESN1998WRNO,2019-09-18-12-13-28,3,2,0.5741548055468504,left,both,biased-switch,91,30,right,right,0.892
ESN1998WRNO,2019-09-18-12-13-28,3,3,0.5546064721383586,left,probe,ambiguous-switch,-1,-5,right,right,0.734
ESN1998WRNO,2019-09-18-12-13-28,3,4,0.6288476217548606,left,both,ambiguous-switch,92,-5,right,right,1.5
ESN1998WRNO,2019-09-18-12-13-28,3,5,0.554594507186697,right,probe,ambiguous-switch,-1,0,right,right,0.782
ESN1998WRNO,2019-09-18-12-13-28,3,6,0.5484433387005252,right,both,ambiguous-switch,94,0,right,right,0.357
ESN1998WRNO,2019-09-18-12-13-28,3,7,0.532802957086796,right,probe,biased-switch,-1,-20,right,right,0.484
ESN1998WRNO,2019-09-18-12-13-28,3,8,0.5972505107196506,right,both,biased-switch,94,-20,right,right,0.46
ESN1998WRNO,2019-09-18-12-13-28,3,9,0.5665613109946248,right,probe,biased-switch,-1,-30,right,right,0.396
ESN1998WRNO,2019-09-18-12-13-28,3,10,0.5196210953101004,right,both,biased-switch,95,-30,right,right,0.63
ESN1998WRNO,2019-09-18-12-13-28,3,11,0.5172091936893797,left,probe,ambiguous-stable,-1,-20,right,right,0.61
ESN1998WRNO,2019-09-18-12-13-28,3,12,0.592333355361385,left,both,ambiguous-stable,107,-20,left,right,0.45
ESN1998WRNO,2019-09-18-12-13-28,3,13,0.6644066432478241,right,probe,ambiguous-switch,-1,-30,right,right,0.475
ESN1998WRNO,2019-09-18-12-13-28,3,14,0.5687883323982715,right,both,ambiguous-switch,101,-30,right,right,0.605
ESN1998WRNO,2019-09-18-12-13-28,3,15,0.627269871204444,left,probe,biased-switch,-1,-10,right,right,0.51
ESN1998WRNO,2019-09-18-12-13-28,3,16,0.526779233936407,left,both,biased-switch,98,-10,right,right,0.478
ESN1998WRNO,2019-09-18-12-13-28,3,17,0.5308453873014242,left,probe,biased-switch,-1,-5,right,right,0.343
ESN1998WRNO,2019-09-18-12-13-28,3,18,0.5720614648011545,left,both,biased-switch,106,-5,right,right,0.385
ESN1998WRNO,2019-09-18-12-13-28,3,19,0.5942268092179331,left,probe,ambiguous-switch,-1,10,right,right,0.593
ESN1998WRNO,2019-09-18-12-13-28,3,20,0.6932061612572857,left,both,ambiguous-switch,98,10,right,right,0.533
ESN1998WRNO,2019-09-18-12-13-28,3,21,0.5401942271847009,right,probe,ambiguous-stable,-1,-30,right,right,0.906
ESN1998WRNO,2019-09-18-12-13-28,3,22,0.5732618346151248,right,both,ambiguous-stable,92,-30,left,right,0.551
ESN1998WRNO,2019-09-18-12-13-28,3,23,0.6695553216237149,left,probe,ambiguous-switch,-1,40,right,right,0.653
ESN1998WRNO,2019-09-18-12-13-28,3,24,0.5354875850122193,left,both,ambiguous-switch,106,40,right,right,0.529
ESN1998WRNO,2019-09-18-12-13-28,3,25,0.5483779461158171,left,probe,biased-switch,-1,0,right,right,0.409
ESN1998WRNO,2019-09-18-12-13-28,3,26,0.6882995570590595,left,both,biased-switch,101,0,right,right,0.235
ESN1998WRNO,2019-09-18-12-13-28,3,27,0.5262642505937235,left,probe,ambiguous-stable,-1,40,right,right,0.377
ESN1998WRNO,2019-09-18-12-13-28,3,28,0.5700976490793073,left,both,ambiguous-stable,107,40,left,right,0.362
ESN1998WRNO,2019-09-18-12-13-28,3,29,0.6304674580327743,right,probe,ambiguous-stable,-1,10,right,right,0.639
ESN1998WRNO,2019-09-18-12-13-28,3,30,0.5868664088267134,right,both,ambiguous-stable,101,10,left,right,0.554
ESN1998WRNO,2019-09-18-12-13-28,3,31,0.5293712141538854,right,probe,biased-switch,-1,5,right,right,0.609
ESN1998WRNO,2019-09-18-12-13-28,3,32,0.6599313499536842,right,both,biased-switch,91,5,right,right,1.501
ESN1998WRNO,2019-09-18-12-13-28,3,33,0.5752535617538952,right,probe,ambiguous-stable,-1,20,right,right,0.583
ESN1998WRNO,2019-09-18-12-13-28,3,34,0.6556036255338338,right,both,ambiguous-stable,97,20,left,right,0.615
ESN1998WRNO,2019-09-18-12-13-28,3,35,0.5412335740015053,right,probe,ambiguous-stable,-1,5,right,right,0.886
ESN1998WRNO,2019-09-18-12-13-28,3,36,0.6644357494852515,right,both,ambiguous-stable,93,5,left,right,0.546
ESN1998WRNO,2019-09-18-12-13-28,3,37,0.585552797213953,left,probe,ambiguous-switch,-1,20,right,right,1.558
ESN1998WRNO,2019-09-18-12-13-28,3,38,0.584753600893726,left,both,ambiguous-switch,108,20,right,right,0.321
ESN1998WRNO,2019-09-18-12-13-28,3,39,0.5970626078318076,right,probe,ambiguous-switch,-1,-10,right,right,0.493
ESN1998WRNO,2019-09-18-12-13-28,3,40,0.6933259035792075,right,both,ambiguous-switch,96,-10,right,right,0.926
ESN1998WRNO,2019-09-18-12-13-28,3,41,0.6520603212169745,left,probe,ambiguous-switch,-1,-20,right,right,1.241
ESN1998WRNO,2019-09-18-12-13-28,3,42,0.6535708034595514,left,both,ambiguous-switch,95,-20,right,right,0.512
ESN1998WRNO,2019-09-18-12-13-28,3,43,0.579559341186577,right,probe,biased-switch,-1,20,right,right,0.798
ESN1998WRNO,2019-09-18-12-13-28,3,44,0.5293003967883255,right,both,biased-switch,109,20,right,right,0.281
ESN1998WRNO,2019-09-18-12-13-28,3,45,0.5896439377181257,left,probe,ambiguous-stable,-1,-5,right,right,0.505
ESN1998WRNO,2019-09-18-12-13-28,3,46,0.6675373855591552,left,both,ambiguous-stable,106,-5,left,right,0.508
ESN1998WRNO,2019-09-18-12-13-28,3,47,0.6652422558597101,left,probe,ambiguous-stable,-1,0,right,right,0.434
ESN1998WRNO,2019-09-18-12-13-28,3,48,0.5317993329680292,left,both,ambiguous-stable,92,0,left,right,0.558
ESN1998WRNO,2019-09-18-12-13-28,3,49,0.6861347414499775,left,probe,biased-switch,-1,10,right,right,0.424
ESN1998WRNO,2019-09-18-12-13-28,3,50,0.6409882539713252,left,both,biased-switch,95,10,right,right,0.557
ESN1998WRNO,2019-09-18-12-13-28,3,51,0.6434615098694627,right,probe,ambiguous-stable,-1,30,right,right,0.426
ESN1998WRNO,2019-09-18-12-13-28,3,52,0.6113470497877694,right,both,ambiguous-stable,105,30,left,right,0.367
ESN1998WRNO,2019-09-18-12-13-28,3,53,0.6187021565593092,right,probe,biased-switch,-1,40,right,right,0.363
ESN1998WRNO,2019-09-18-12-13-28,3,54,0.5955262466947655,right,both,biased-switch,99,40,right,right,0.398
ESN1998WRNO,2019-09-18-12-13-28,3,55,0.5677198709602876,right,probe,ambiguous-switch,-1,5,right,right,0.603
ESN1998WRNO,2019-09-18-12-13-28,3,56,0.6212380956031089,right,both,ambiguous-switch,108,5,right,left,0.633
ESN1998WRNO,2019-09-18-12-13-28,3,57,0.6797414390042379,left,probe,ambiguous-switch,-1,30,right,right,0.303
ESN1998WRNO,2019-09-18-12-13-28,3,58,0.5390451088019742,left,both,ambiguous-switch,101,30,right,right,0.264
ESN1998WRNO,2019-09-18-12-13-28,3,59,0.5574651643104432,left,probe,ambiguous-stable,-1,-10,right,right,0.422
ESN1998WRNO,2019-09-18-12-13-28,3,60,0.5218685931562551,left,both,ambiguous-stable,103,-10,left,right,0.175
ESN1998WRNO,2019-09-18-12-13-28,4,1,0.6102592241487319,left,probe,ambiguous-switch,-1,10,right,right,1.288
ESN1998WRNO,2019-09-18-12-13-28,4,2,0.608779248123461,left,both,ambiguous-switch,104,10,right,right,0.331
ESN1998WRNO,2019-09-18-12-13-28,4,3,0.570309896722236,right,probe,ambiguous-stable,-1,5,right,right,0.829
ESN1998WRNO,2019-09-18-12-13-28,4,4,0.5062978072230514,right,both,ambiguous-stable,95,5,left,right,0.254
ESN1998WRNO,2019-09-18-12-13-28,4,5,0.5337291118258514,right,probe,ambiguous-stable,-1,10,right,right,0.513
ESN1998WRNO,2019-09-18-12-13-28,4,6,0.5276553159625368,right,both,ambiguous-stable,99,10,left,right,0.468
ESN1998WRNO,2019-09-18-12-13-28,4,7,0.5340550186184564,right,probe,ambiguous-switch,-1,30,right,right,0.542
ESN1998WRNO,2019-09-18-12-13-28,4,8,0.6907342313152541,right,both,ambiguous-switch,103,30,right,right,0.501
ESN1998WRNO,2019-09-18-12-13-28,4,9,0.6834028617801179,right,probe,ambiguous-switch,-1,-5,right,right,0.665
ESN1998WRNO,2019-09-18-12-13-28,4,10,0.6717065049128392,right,both,ambiguous-switch,94,-5,right,right,0.561
ESN1998WRNO,2019-09-18-12-13-28,4,11,0.581226615076077,right,probe,ambiguous-stable,-1,-30,right,right,0.354
ESN1998WRNO,2019-09-18-12-13-28,4,12,0.5638234414273873,right,both,ambiguous-stable,103,-30,left,left,0.616
ESN1998WRNO,2019-09-18-12-13-28,4,13,0.6888183948093842,left,probe,ambiguous-stable,-1,0,right,right,0.608
ESN1998WRNO,2019-09-18-12-13-28,4,14,0.6370659589054619,left,both,ambiguous-stable,97,0,left,right,0.2
ESN1998WRNO,2019-09-18-12-13-28,4,15,0.5382327996014508,left,probe,ambiguous-switch,-1,-30,right,right,0.438
ESN1998WRNO,2019-09-18-12-13-28,4,16,0.664699879038188,left,both,ambiguous-switch,103,-30,right,right,0.561
ESN1998WRNO,2019-09-18-12-13-28,4,17,0.6311830534622503,left,probe,ambiguous-switch,-1,0,right,right,0.486
ESN1998WRNO,2019-09-18-12-13-28,4,18,0.5106318785149198,left,both,ambiguous-switch,102,0,right,right,0.681
ESN1998WRNO,2019-09-18-12-13-28,4,19,0.5990044969971634,left,probe,ambiguous-stable,-1,-10,right,right,0.804
ESN1998WRNO,2019-09-18-12-13-28,4,20,0.5746656242410311,left,both,ambiguous-stable,93,-10,left,right,0.411
ESN1998WRNO,2019-09-18-12-13-28,4,21,0.5827240989822241,left,probe,biased-switch,-1,5,right,right,0.546
ESN1998WRNO,2019-09-18-12-13-28,4,22,0.5369574125827029,left,both,biased-switch,95,5,right,left,0.425
ESN1998WRNO,2019-09-18-12-13-28,4,23,0.6561666704711673,right,probe,ambiguous-switch,-1,-20,right,right,0.57
ESN1998WRNO,2019-09-18-12-13-28,4,24,0.5211710248812181,right,both,ambiguous-switch,108,-20,right,left,0.521
ESN1998WRNO,2019-09-18-12-13-28,4,25,0.5725355671127847,left,probe,ambiguous-stable,-1,20,right,right,0.747
ESN1998WRNO,2019-09-18-12-13-28,4,26,0.5953500181582958,left,both,ambiguous-stable,97,20,left,right,0.456
ESN1998WRNO,2019-09-18-12-13-28,4,27,0.6663722425874796,right,probe,ambiguous-switch,-1,40,left,left,0.426
ESN1998WRNO,2019-09-18-12-13-28,4,28,0.6991562949318613,right,both,ambiguous-switch,94,40,left,right,0.303
ESN1998WRNO,2019-09-18-12-13-28,4,29,0.5219177110507771,right,probe,biased-switch,-1,40,right,right,0.27
ESN1998WRNO,2019-09-18-12-13-28,4,30,0.5173772307264705,right,both,biased-switch,103,40,right,right,0.363
ESN1998WRNO,2019-09-18-12-13-28,4,31,0.5704119224044227,right,probe,ambiguous-stable,-1,30,right,right,0.468
ESN1998WRNO,2019-09-18-12-13-28,4,32,0.6543763803128768,right,both,ambiguous-stable,96,30,left,right,1.367
ESN1998WRNO,2019-09-18-12-13-28,4,33,0.6948575057742409,right,probe,biased-switch,-1,20,right,right,0.597
ESN1998WRNO,2019-09-18-12-13-28,4,34,0.6789147196680183,right,both,biased-switch,99,20,right,right,0.443
ESN1998WRNO,2019-09-18-12-13-28,4,35,0.631340457111059,right,probe,biased-switch,-1,-30,right,right,0.286
ESN1998WRNO,2019-09-18-12-13-28,4,36,0.6832106697628975,right,both,biased-switch,99,-30,right,right,0.477
ESN1998WRNO,2019-09-18-12-13-28,4,37,0.6159666934828675,left,probe,biased-switch,-1,0,right,right,0.49
ESN1998WRNO,2019-09-18-12-13-28,4,38,0.6663388306792073,left,both,biased-switch,100,0,right,left,0.313
ESN1998WRNO,2019-09-18-12-13-28,4,39,0.6813520524399679,right,probe,biased-switch,-1,10,right,right,0.554
ESN1998WRNO,2019-09-18-12-13-28,4,40,0.6607474756811474,right,both,biased-switch,104,10,right,right,0.456
ESN1998WRNO,2019-09-18-12-13-28,4,41,0.6080920352401681,left,probe,ambiguous-switch,-1,5,right,right,0.441
ESN1998WRNO,2019-09-18-12-13-28,4,42,0.5806334519837587,left,both,ambiguous-switch,97,5,right,left,0.436
ESN1998WRNO,2019-09-18-12-13-28,4,43,0.5556275780145805,left,probe,ambiguous-switch,-1,-10,right,right,0.469
ESN1998WRNO,2019-09-18-12-13-28,4,44,0.592902882495391,left,both,ambiguous-switch,108,-10,right,left,0.345
ESN1998WRNO,2019-09-18-12-13-28,4,45,0.698812500023542,left,probe,ambiguous-stable,-1,40,right,right,0.475
ESN1998WRNO,2019-09-18-12-13-28,4,46,0.5713730247978235,left,both,ambiguous-stable,94,40,left,right,0.229
ESN1998WRNO,2019-09-18-12-13-28,4,47,0.5295616624171529,right,probe,ambiguous-stable,-1,-20,right,right,0.318
ESN1998WRNO,2019-09-18-12-13-28,4,48,0.6112015883163681,right,both,ambiguous-stable,98,-20,left,right,0.314
ESN1998WRNO,2019-09-18-12-13-28,4,49,0.5225141029294773,left,probe,biased-switch,-1,-10,left,left,0.407
ESN1998WRNO,2019-09-18-12-13-28,4,50,0.5164616575961412,left,both,biased-switch,99,-10,left,left,0.392
ESN1998WRNO,2019-09-18-12-13-28,4,51,0.629344319194776,left,probe,biased-switch,-1,-5,left,left,0.767
ESN1998WRNO,2019-09-18-12-13-28,4,52,0.5900192983773934,left,both,biased-switch,97,-5,left,right,0.44
ESN1998WRNO,2019-09-18-12-13-28,4,53,0.6500843214142698,right,probe,biased-switch,-1,30,right,right,0.585
ESN1998WRNO,2019-09-18-12-13-28,4,54,0.6781908610340899,right,both,biased-switch,97,30,right,right,0.491
ESN1998WRNO,2019-09-18-12-13-28,4,55,0.5771945149332803,right,probe,biased-switch,-1,-20,right,right,0.418
ESN1998WRNO,2019-09-18-12-13-28,4,56,0.529299679341695,right,both,biased-switch,104,-20,right,right,0.32
ESN1998WRNO,2019-09-18-12-13-28,4,57,0.5203454823749427,right,probe,ambiguous-switch,-1,20,right,right,0.484
ESN1998WRNO,2019-09-18-12-13-28,4,58,0.650579986219318,right,both,ambiguous-switch,95,20,right,right,0.268
ESN1998WRNO,2019-09-18-12-13-28,4,59,0.5637705032068772,left,probe,ambiguous-stable,-1,-5,right,right,0.869
ESN1998WRNO,2019-09-18-12-13-28,4,60,0.6761084632214552,left,both,ambiguous-stable,104,-5,left,right,0.398
ESN1998WRNO,2019-09-18-12-13-28,5,1,0.667261935639144,left,probe,ambiguous-stable,-1,-10,right,right,1.238
ESN1998WRNO,2019-09-18-12-13-28,5,2,0.5426213891867759,left,both,ambiguous-stable,102,-10,left,right,0.495
ESN1998WRNO,2019-09-18-12-13-28,5,3,0.6189830089820137,right,probe,ambiguous-switch,-1,-30,right,right,1.072
ESN1998WRNO,2019-09-18-12-13-28,5,4,0.5147836900486265,right,both,ambiguous-switch,103,-30,right,right,5.435
ESN1998WRNO,2019-09-18-12-13-28,5,5,0.5882455432594184,left,probe,biased-switch,-1,0,right,right,0.923
ESN1998WRNO,2019-09-18-12-13-28,5,6,0.5899601993916618,left,both,biased-switch,103,0,right,left,0.536
ESN1998WRNO,2019-09-18-12-13-28,5,7,0.5949606060881983,left,probe,biased-switch,-1,-5,left,left,0.616
ESN1998WRNO,2019-09-18-12-13-28,5,8,0.5049303180273564,left,both,biased-switch,106,-5,left,left,0.285
ESN1998WRNO,2019-09-18-12-13-28,5,9,0.5921649976705928,left,probe,ambiguous-stable,-1,30,left,left,0.469
ESN1998WRNO,2019-09-18-12-13-28,5,10,0.57632010372074,left,both,ambiguous-stable,95,30,right,left,0.346
ESN1998WRNO,2019-09-18-12-13-28,5,11,0.5734615663429746,left,probe,biased-switch,-1,10,left,left,0.646
ESN1998WRNO,2019-09-18-12-13-28,5,12,0.5024315468032331,left,both,biased-switch,94,10,left,left,1.151
ESN1998WRNO,2019-09-18-12-13-28,5,13,0.6033073427896335,right,probe,ambiguous-stable,-1,10,right,right,0.82
ESN1998WRNO,2019-09-18-12-13-28,5,14,0.6429460674882432,right,both,ambiguous-stable,110,10,left,right,0.816
ESN1998WRNO,2019-09-18-12-13-28,5,15,0.5221217732001837,right,probe,ambiguous-switch,-1,5,right,right,1.146
ESN1998WRNO,2019-09-18-12-13-28,5,16,0.6345739889706181,right,both,ambiguous-switch,94,5,right,right,0.734
ESN1998WRNO,2019-09-18-12-13-28,5,17,0.5010668782335187,left,probe,biased-switch,-1,-10,left,left,4.399
ESN1998WRNO,2019-09-18-12-13-28,5,18,0.5164529742611881,left,both,biased-switch,97,-10,left,left,1.574
ESN1998WRNO,2019-09-18-12-13-28,5,19,0.6225145139449759,right,probe,ambiguous-stable,-1,20,right,right,0.655
ESN1998WRNO,2019-09-18-12-13-28,5,20,0.5089460247693744,right,both,ambiguous-stable,98,20,left,right,0.492
ESN1998WRNO,2019-09-18-12-13-28,5,21,0.667866723997586,right,probe,ambiguous-stable,-1,-20,right,right,0.453
ESN1998WRNO,2019-09-18-12-13-28,5,22,0.5654923992076647,right,both,ambiguous-stable,108,-20,left,right,0.428
ESN1998WRNO,2019-09-18-12-13-28,5,23,0.5390902618315395,left,probe,ambiguous-switch,-1,0,left,left,0.827
ESN1998WRNO,2019-09-18-12-13-28,5,24,0.6342058677593204,left,both,ambiguous-switch,104,0,left,left,0.756
ESN1998WRNO,2019-09-18-12-13-28,5,25,0.6498738335188046,left,probe,biased-switch,-1,-30,left,left,0.782
ESN1998WRNO,2019-09-18-12-13-28,5,26,0.6562478992304523,left,both,biased-switch,103,-30,left,left,0.883
ESN1998WRNO,2019-09-18-12-13-28,5,27,0.6762591028412253,left,probe,ambiguous-switch,-1,30,left,left,0.59
ESN1998WRNO,2019-09-18-12-13-28,5,28,0.6828400871526284,left,both,ambiguous-switch,107,30,left,left,0.669
ESN1998WRNO,2019-09-18-12-13-28,5,29,0.5832477909238278,right,probe,ambiguous-switch,-1,40,left,left,0.848
ESN1998WRNO,2019-09-18-12-13-28,5,30,0.5437251499950106,right,both,ambiguous-switch,96,40,left,right,0.355
ESN1998WRNO,2019-09-18-12-13-28,5,31,0.5024003682842514,left,probe,ambiguous-switch,-1,20,left,left,0.669
ESN1998WRNO,2019-09-18-12-13-28,5,32,0.5092379450888385,left,both,ambiguous-switch,101,20,left,left,0.581
ESN1998WRNO,2019-09-18-12-13-28,5,33,0.6008434017307438,left,probe,ambiguous-switch,-1,-10,left,left,0.989
ESN1998WRNO,2019-09-18-12-13-28,5,34,0.6113103708089045,left,both,ambiguous-switch,93,-10,left,left,0.888
ESN1998WRNO,2019-09-18-12-13-28,5,35,0.6110434921999562,right,probe,ambiguous-stable,-1,40,left,left,1.93
ESN1998WRNO,2019-09-18-12-13-28,5,36,0.508043090357099,right,both,ambiguous-stable,102,40,right,left,1.417
ESN1998WRNO,2019-09-18-12-13-28,5,37,0.5635512690083925,left,probe,ambiguous-stable,-1,0,left,left,1.359
ESN1998WRNO,2019-09-18-12-13-28,5,38,0.6001388522440846,left,both,ambiguous-stable,107,0,right,left,0.627
ESN1998WRNO,2019-09-18-12-13-28,5,39,0.6880806613203093,left,probe,biased-switch,-1,30,left,left,0.819
ESN1998WRNO,2019-09-18-12-13-28,5,40,0.6098971010100868,left,both,biased-switch,105,30,left,left,0.513
ESN1998WRNO,2019-09-18-12-13-28,5,41,0.6237200485581378,left,probe,biased-switch,-1,5,left,left,0.719
ESN1998WRNO,2019-09-18-12-13-28,5,42,0.5890940719671949,left,both,biased-switch,91,5,left,left,1.326
ESN1998WRNO,2019-09-18-12-13-28,5,43,0.5964140915164141,right,probe,ambiguous-stable,-1,-5,right,right,0.667
ESN1998WRNO,2019-09-18-12-13-28,5,44,0.6317212878489432,right,both,ambiguous-stable,98,-5,left,right,0.363
ESN1998WRNO,2019-09-18-12-13-28,5,45,0.6330166383376223,right,probe,ambiguous-stable,-1,5,right,right,0.478
ESN1998WRNO,2019-09-18-12-13-28,5,46,0.6937720909662837,right,both,ambiguous-stable,96,5,left,right,0.485
ESN1998WRNO,2019-09-18-12-13-28,5,47,0.6185855583070046,left,probe,ambiguous-switch,-1,10,left,left,0.676
ESN1998WRNO,2019-09-18-12-13-28,5,48,0.5051640461335711,left,both,ambiguous-switch,107,10,left,left,1.802
ESN1998WRNO,2019-09-18-12-13-28,5,49,0.6415381964877498,left,probe,ambiguous-switch,-1,-20,left,left,1.267
ESN1998WRNO,2019-09-18-12-13-28,5,50,0.6474660029745752,left,both,ambiguous-switch,107,-20,left,left,1.17
ESN1998WRNO,2019-09-18-12-13-28,5,51,0.6556192346740387,left,probe,biased-switch,-1,40,left,left,0.642
ESN1998WRNO,2019-09-18-12-13-28,5,52,0.5556033034022797,left,both,biased-switch,109,40,left,left,0.699
ESN1998WRNO,2019-09-18-12-13-28,5,53,0.6295475363358204,left,probe,biased-switch,-1,-20,left,left,0.617
ESN1998WRNO,2019-09-18-12-13-28,5,54,0.5217900949488863,left,both,biased-switch,101,-20,left,left,0.465
ESN1998WRNO,2019-09-18-12-13-28,5,55,0.6643440063267831,left,probe,ambiguous-switch,-1,-5,left,left,0.754
ESN1998WRNO,2019-09-18-12-13-28,5,56,0.5241816627028819,left,both,ambiguous-switch,101,-5,left,left,0.485
ESN1998WRNO,2019-09-18-12-13-28,5,57,0.5181126446578851,left,probe,ambiguous-stable,-1,-30,left,left,1.46
ESN1998WRNO,2019-09-18-12-13-28,5,58,0.6528543014540766,left,both,ambiguous-stable,100,-30,right,left,0.834
ESN1998WRNO,2019-09-18-12-13-28,5,59,0.5144069412417662,right,probe,biased-switch,-1,20,right,right,2.407
ESN1998WRNO,2019-09-18-12-13-28,5,60,0.5757081150134356,right,both,biased-switch,105,20,right,right,1.135
ESN1998WRNO,2019-09-18-12-13-28,6,1,0.6046070336096461,right,probe,biased-switch,-1,10,right,right,1.365
ESN1998WRNO,2019-09-18-12-13-28,6,2,0.6770413324249647,right,both,biased-switch,108,10,right,right,0.905
ESN1998WRNO,2019-09-18-12-13-28,6,3,0.6056700279493225,right,probe,biased-switch,-1,5,right,right,0.78
ESN1998WRNO,2019-09-18-12-13-28,6,4,0.644470587951401,right,both,biased-switch,107,5,right,left,0.849
ESN1998WRNO,2019-09-18-12-13-28,6,5,0.5835081258226198,right,probe,ambiguous-stable,-1,40,right,right,1.485
ESN1998WRNO,2019-09-18-12-13-28,6,6,0.5160080046792406,right,both,ambiguous-stable,108,40,left,right,1.131
ESN1998WRNO,2019-09-18-12-13-28,6,7,0.5168772941835705,right,probe,biased-switch,-1,-10,right,right,1.543
ESN1998WRNO,2019-09-18-12-13-28,6,8,0.5147268932840298,right,both,biased-switch,99,-10,right,right,0.624
ESN1998WRNO,2019-09-18-12-13-28,6,9,0.5347930547451343,left,probe,ambiguous-stable,-1,-20,right,right,0.448
ESN1998WRNO,2019-09-18-12-13-28,6,10,0.5212327329413187,left,both,ambiguous-stable,91,-20,left,right,0.434
ESN1998WRNO,2019-09-18-12-13-28,6,11,0.6585009829110542,left,probe,ambiguous-stable,-1,-10,right,right,1.083
ESN1998WRNO,2019-09-18-12-13-28,6,12,0.6297107251170523,left,both,ambiguous-stable,96,-10,left,right,0.548
ESN1998WRNO,2019-09-18-12-13-28,6,13,0.5649824129038323,right,probe,ambiguous-stable,-1,-5,right,right,1.218
ESN1998WRNO,2019-09-18-12-13-28,6,14,0.6890815020770412,right,both,ambiguous-stable,106,-5,left,right,0.674
ESN1998WRNO,2019-09-18-12-13-28,6,15,0.6043208313798222,left,probe,ambiguous-switch,-1,10,right,right,0.611
ESN1998WRNO,2019-09-18-12-13-28,6,16,0.5039499680171181,left,both,ambiguous-switch,95,10,right,left,0.311
ESN1998WRNO,2019-09-18-12-13-28,6,17,0.519840177407675,right,probe,ambiguous-stable,-1,10,right,right,0.608
ESN1998WRNO,2019-09-18-12-13-28,6,18,0.648861188821686,right,both,ambiguous-stable,92,10,left,right,0.517
ESN1998WRNO,2019-09-18-12-13-28,6,19,0.6495461307966344,right,probe,biased-switch,-1,20,right,right,0.351
ESN1998WRNO,2019-09-18-12-13-28,6,20,0.6101505386537867,right,both,biased-switch,101,20,right,right,0.708
ESN1998WRNO,2019-09-18-12-13-28,6,21,0.6698715652897228,right,probe,biased-switch,-1,40,right,right,0.373
ESN1998WRNO,2019-09-18-12-13-28,6,22,0.5318683494377887,right,both,biased-switch,95,40,right,right,0.455
ESN1998WRNO,2019-09-18-12-13-28,6,23,0.6046135866195718,right,probe,ambiguous-stable,-1,5,right,right,0.602
ESN1998WRNO,2019-09-18-12-13-28,6,24,0.5531785144445722,right,both,ambiguous-stable,94,5,left,right,0.552
ESN1998WRNO,2019-09-18-12-13-28,6,25,0.6090654144214785,left,probe,biased-switch,-1,-30,left,left,0.784
ESN1998WRNO,2019-09-18-12-13-28,6,26,0.6525524083652237,left,both,biased-switch,97,-30,left,left,0.432
ESN1998WRNO,2019-09-18-12-13-28,6,27,0.5113479826568226,left,probe,ambiguous-switch,-1,20,left,left,0.874
ESN1998WRNO,2019-09-18-12-13-28,6,28,0.5871617010686292,left,both,ambiguous-switch,106,20,left,right,0.458
ESN1998WRNO,2019-09-18-12-13-28,6,29,0.6683151132161407,right,probe,ambiguous-switch,-1,40,right,right,0.787
ESN1998WRNO,2019-09-18-12-13-28,6,30,0.6369750592979593,right,both,ambiguous-switch,105,40,right,right,0.453
ESN1998WRNO,2019-09-18-12-13-28,6,31,0.6544040348856157,right,probe,biased-switch,-1,-5,right,right,0.549
ESN1998WRNO,2019-09-18-12-13-28,6,32,0.656929483625504,right,both,biased-switch,100,-5,right,right,0.527
ESN1998WRNO,2019-09-18-12-13-28,6,33,0.5715775769592717,left,probe,ambiguous-switch,-1,-30,right,right,0.587
ESN1998WRNO,2019-09-18-12-13-28,6,34,0.5013476860910192,left,both,ambiguous-switch,99,-30,right,right,0.628
ESN1998WRNO,2019-09-18-12-13-28,6,35,0.5426474426068069,right,probe,ambiguous-switch,-1,0,right,right,0.498
ESN1998WRNO,2019-09-18-12-13-28,6,36,0.6282799956760118,right,both,ambiguous-switch,99,0,right,right,0.711
ESN1998WRNO,2019-09-18-12-13-28,6,37,0.633901952868679,right,probe,ambiguous-stable,-1,30,right,right,0.445
ESN1998WRNO,2019-09-18-12-13-28,6,38,0.6266042959484482,right,both,ambiguous-stable,91,30,left,right,0.46
ESN1998WRNO,2019-09-18-12-13-28,6,39,0.5131646673388477,left,probe,ambiguous-stable,-1,0,right,right,1.074
ESN1998WRNO,2019-09-18-12-13-28,6,40,0.6206771938620269,left,both,ambiguous-stable,100,0,left,right,0.422
ESN1998WRNO,2019-09-18-12-13-28,6,41,0.6167617850017955,left,probe,biased-switch,-1,-20,right,right,0.579
ESN1998WRNO,2019-09-18-12-13-28,6,42,0.6503976279772306,left,both,biased-switch,109,-20,right,right,0.657
ESN1998WRNO,2019-09-18-12-13-28,6,43,0.5259483434549925,right,probe,ambiguous-switch,-1,-5,right,right,0.884
ESN1998WRNO,2019-09-18-12-13-28,6,44,0.5538439129273321,right,both,ambiguous-switch,100,-5,right,right,1.501
ESN1998WRNO,2019-09-18-12-13-28,6,45,0.6721966177082382,right,probe,ambiguous-switch,-1,30,right,right,1.229
ESN1998WRNO,2019-09-18-12-13-28,6,46,0.5854544555150861,right,both,ambiguous-switch,90,30,right,right,0.626
ESN1998WRNO,2019-09-18-12-13-28,6,47,0.6541308551644733,left,probe,biased-switch,-1,30,right,right,0.864
ESN1998WRNO,2019-09-18-12-13-28,6,48,0.6073575993139718,left,both,biased-switch,99,30,right,right,0.761
ESN1998WRNO,2019-09-18-12-13-28,6,49,0.6095155596129844,left,probe,ambiguous-switch,-1,-10,right,right,0.553
ESN1998WRNO,2019-09-18-12-13-28,6,50,0.5030545069387472,left,both,ambiguous-switch,94,-10,right,right,1.089
ESN1998WRNO,2019-09-18-12-13-28,6,51,0.5678600599366106,right,probe,ambiguous-stable,-1,-30,right,right,0.4
ESN1998WRNO,2019-09-18-12-13-28,6,52,0.6352928705588814,right,both,ambiguous-stable,101,-30,left,right,1.048
ESN1998WRNO,2019-09-18-12-13-28,6,53,0.6877827139108885,left,probe,ambiguous-switch,-1,5,right,right,0.821
ESN1998WRNO,2019-09-18-12-13-28,6,54,0.640070795526029,left,both,ambiguous-switch,102,5,right,right,0.226
ESN1998WRNO,2019-09-18-12-13-28,6,55,0.6016613796029615,left,probe,biased-switch,-1,0,right,right,0.404
ESN1998WRNO,2019-09-18-12-13-28,6,56,0.6252011607397654,left,both,biased-switch,105,0,right,right,0.077
ESN1998WRNO,2019-09-18-12-13-28,6,57,0.6336783038469158,right,probe,ambiguous-stable,-1,20,right,right,0.537
ESN1998WRNO,2019-09-18-12-13-28,6,58,0.5894948354482273,right,both,ambiguous-stable,90,20,left,right,0.426
ESN1998WRNO,2019-09-18-12-13-28,6,59,0.6286959259176018,left,probe,ambiguous-switch,-1,-20,right,right,0.762
ESN1998WRNO,2019-09-18-12-13-28,6,60,0.6529570167149484,left,both,ambiguous-switch,92,-20,right,right,0.483
ESN1998WRNO,2019-09-18-12-13-28,7,1,0.5477372294044544,left,probe,ambiguous-switch,-1,5,right,right,1.275
ESN1998WRNO,2019-09-18-12-13-28,7,2,0.6822815478549882,left,both,ambiguous-switch,94,5,right,right,0.403
ESN1998WRNO,2019-09-18-12-13-28,7,3,0.626522491377581,right,probe,ambiguous-switch,-1,-10,right,right,0.64
ESN1998WRNO,2019-09-18-12-13-28,7,4,0.5059376545426271,right,both,ambiguous-switch,94,-10,right,right,0.347
ESN1998WRNO,2019-09-18-12-13-28,7,5,0.6503558828708802,left,probe,ambiguous-switch,-1,20,right,right,0.531
ESN1998WRNO,2019-09-18-12-13-28,7,6,0.6869482729647078,left,both,ambiguous-switch,99,20,right,right,0.27
ESN1998WRNO,2019-09-18-12-13-28,7,7,0.6090086138079744,right,probe,biased-switch,-1,-30,right,right,0.548
ESN1998WRNO,2019-09-18-12-13-28,7,8,0.5162662226911837,right,both,biased-switch,98,-30,right,right,1.113
ESN1998WRNO,2019-09-18-12-13-28,7,9,0.5439252891250222,left,probe,ambiguous-stable,-1,20,right,right,0.889
ESN1998WRNO,2019-09-18-12-13-28,7,10,0.5521863592470513,left,both,ambiguous-stable,98,20,left,right,0.429
ESN1998WRNO,2019-09-18-12-13-28,7,11,0.6676012669326064,left,probe,ambiguous-stable,-1,10,right,right,0.786
ESN1998WRNO,2019-09-18-12-13-28,7,12,0.6808900247963181,left,both,ambiguous-stable,103,10,left,right,0.498
ESN1998WRNO,2019-09-18-12-13-28,7,13,0.6695561274163775,left,probe,ambiguous-stable,-1,-10,right,right,0.394
ESN1998WRNO,2019-09-18-12-13-28,7,14,0.6540955407001737,left,both,ambiguous-stable,104,-10,left,right,0.298
ESN1998WRNO,2019-09-18-12-13-28,7,15,0.6663994502341695,left,probe,ambiguous-stable,-1,-30,right,right,0.335
ESN1998WRNO,2019-09-18-12-13-28,7,16,0.5313572759989366,left,both,ambiguous-stable,101,-30,left,right,0.344
ESN1998WRNO,2019-09-18-12-13-28,7,17,0.5498210785425606,left,probe,ambiguous-stable,-1,-5,right,right,1.154
ESN1998WRNO,2019-09-18-12-13-28,7,18,0.6521962555033811,left,both,ambiguous-stable,92,-5,left,right,0.39
ESN1998WRNO,2019-09-18-12-13-28,7,19,0.6052135842647838,left,probe,biased-switch,-1,20,right,right,0.538
ESN1998WRNO,2019-09-18-12-13-28,7,20,0.689933685761768,left,both,biased-switch,102,20,right,right,0.218
ESN1998WRNO,2019-09-18-12-13-28,7,21,0.5719810001716854,left,probe,ambiguous-switch,-1,-5,right,right,0.34
ESN1998WRNO,2019-09-18-12-13-28,7,22,0.5271163432238066,left,both,ambiguous-switch,99,-5,right,right,0.457
ESN1998WRNO,2019-09-18-12-13-28,7,23,0.6957538814739356,left,probe,ambiguous-switch,-1,40,right,right,0.532
ESN1998WRNO,2019-09-18-12-13-28,7,24,0.6894267869205926,left,both,ambiguous-switch,97,40,right,right,0.555
ESN1998WRNO,2019-09-18-12-13-28,7,25,0.5125346473042203,right,probe,biased-switch,-1,-5,right,right,0.517
ESN1998WRNO,2019-09-18-12-13-28,7,26,0.6206003502747734,right,both,biased-switch,105,-5,right,right,0.405
ESN1998WRNO,2019-09-18-12-13-28,7,27,0.571139137905401,left,probe,ambiguous-switch,-1,-20,right,right,0.724
ESN1998WRNO,2019-09-18-12-13-28,7,28,0.5928354385012711,left,both,ambiguous-switch,106,-20,right,right,0.56
ESN1998WRNO,2019-09-18-12-13-28,7,29,0.6165787393841677,right,probe,biased-switch,-1,-10,right,right,0.407
ESN1998WRNO,2019-09-18-12-13-28,7,30,0.5335025677878407,right,both,biased-switch,98,-10,right,right,0.379
ESN1998WRNO,2019-09-18-12-13-28,7,31,0.664866169973495,right,probe,ambiguous-stable,-1,40,right,right,0.466
ESN1998WRNO,2019-09-18-12-13-28,7,32,0.6383384384021114,right,both,ambiguous-stable,92,40,left,right,0.437
ESN1998WRNO,2019-09-18-12-13-28,7,33,0.6012476301758485,left,probe,biased-switch,-1,5,right,right,0.679
ESN1998WRNO,2019-09-18-12-13-28,7,34,0.5371637114164757,left,both,biased-switch,93,5,right,left,0.512
ESN1998WRNO,2019-09-18-12-13-28,7,35,0.5010301189426606,right,probe,ambiguous-switch,-1,-30,right,right,0.947
ESN1998WRNO,2019-09-18-12-13-28,7,36,0.581654069332911,right,both,ambiguous-switch,98,-30,right,right,0.558
ESN1998WRNO,2019-09-18-12-13-28,7,37,0.6911054246492674,left,probe,biased-switch,-1,10,right,right,0.538
ESN1998WRNO,2019-09-18-12-13-28,7,38,0.68880648091566,left,both,biased-switch,106,10,right,left,0.324
ESN1998WRNO,2019-09-18-12-13-28,7,39,0.6676999097929484,right,probe,ambiguous-switch,-1,10,right,right,0.661
ESN1998WRNO,2019-09-18-12-13-28,7,40,0.6724975560054118,right,both,ambiguous-switch,107,10,right,right,0.266
ESN1998WRNO,2019-09-18-12-13-28,7,41,0.6805604646479821,right,probe,ambiguous-switch,-1,0,right,right,0.505
ESN1998WRNO,2019-09-18-12-13-28,7,42,0.5698606331774901,right,both,ambiguous-switch,100,0,right,right,0.181
ESN1998WRNO,2019-09-18-12-13-28,7,43,0.6984041034295042,right,probe,biased-switch,-1,0,right,right,0.301
ESN1998WRNO,2019-09-18-12-13-28,7,44,0.5907783828025502,right,both,biased-switch,94,0,right,right,0.226
ESN1998WRNO,2019-09-18-12-13-28,7,45,0.6255574353000959,right,probe,ambiguous-switch,-1,30,right,right,0.459
ESN1998WRNO,2019-09-18-12-13-28,7,46,0.6248878633039813,right,both,ambiguous-switch,93,30,right,right,0.262
ESN1998WRNO,2019-09-18-12-13-28,7,47,0.5142125856403998,left,probe,biased-switch,-1,30,right,right,0.696
ESN1998WRNO,2019-09-18-12-13-28,7,48,0.5375563701336569,left,both,biased-switch,98,30,right,right,0.78
ESN1998WRNO,2019-09-18-12-13-28,7,49,0.5787794700819948,right,probe,ambiguous-stable,-1,0,right,right,0.642
ESN1998WRNO,2019-09-18-12-13-28,7,50,0.6187942738103889,right,both,ambiguous-stable,98,0,left,right,0.426
ESN1998WRNO,2019-09-18-12-13-28,7,51,0.5364047442111961,left,probe,ambiguous-stable,-1,5,right,right,0.477
ESN1998WRNO,2019-09-18-12-13-28,7,52,0.6684104982149146,left,both,ambiguous-stable,96,5,left,right,0.386
ESN1998WRNO,2019-09-18-12-13-28,7,53,0.5078751078027345,left,probe,ambiguous-stable,-1,30,right,right,0.505
ESN1998WRNO,2019-09-18-12-13-28,7,54,0.5019569817189039,left,both,ambiguous-stable,109,30,left,right,0.764
ESN1998WRNO,2019-09-18-12-13-28,7,55,0.6223552855695716,right,probe,biased-switch,-1,40,right,right,1.226
ESN1998WRNO,2019-09-18-12-13-28,7,56,0.5883376098281797,right,both,biased-switch,99,40,right,right,0.197
ESN1998WRNO,2019-09-18-12-13-28,7,57,0.6642185689746365,right,probe,biased-switch,-1,-20,right,right,0.212
ESN1998WRNO,2019-09-18-12-13-28,7,58,0.5849535087214999,right,both,biased-switch,94,-20,right,right,0.27
ESN1998WRNO,2019-09-18-12-13-28,7,59,0.6781268383564028,right,probe,ambiguous-stable,-1,-20,right,right,0.199
ESN1998WRNO,2019-09-18-12-13-28,7,60,0.5195878702752904,right,both,ambiguous-stable,110,-20,left,right,0.204
ESN1998WRNO,2019-09-18-12-13-28,8,1,0.6516341517235353,right,probe,ambiguous-switch,-1,-20,right,right,0.372
ESN1998WRNO,2019-09-18-12-13-28,8,2,0.6486893014387011,right,both,ambiguous-switch,106,-20,right,right,0.178
ESN1998WRNO,2019-09-18-12-13-28,8,3,0.6312479071748547,left,probe,biased-switch,-1,-5,right,right,0.268
ESN1998WRNO,2019-09-18-12-13-28,8,4,0.6579048693753935,left,both,biased-switch,109,-5,right,left,0.196
ESN1998WRNO,2019-09-18-12-13-28,8,5,0.6109789969375268,right,probe,ambiguous-switch,-1,20,right,right,0.797
ESN1998WRNO,2019-09-18-12-13-28,8,6,0.6329232957214893,right,both,ambiguous-switch,108,20,right,left,0.23
ESN1998WRNO,2019-09-18-12-13-28,8,7,0.5528882282326093,left,probe,ambiguous-stable,-1,-20,right,right,0.39
ESN1998WRNO,2019-09-18-12-13-28,8,8,0.5172710575313854,left,both,ambiguous-stable,108,-20,left,right,0.409
ESN1998WRNO,2019-09-18-12-13-28,8,9,0.5055718091348463,left,probe,biased-switch,-1,-30,right,right,0.667
ESN1998WRNO,2019-09-18-12-13-28,8,10,0.6225024382393944,left,both,biased-switch,105,-30,right,right,4.767
ESN1998WRNO,2019-09-18-12-13-28,8,11,0.6619520957463954,left,probe,ambiguous-switch,-1,0,right,right,0.315
ESN1998WRNO,2019-09-18-12-13-28,8,12,0.5228879395696062,left,both,ambiguous-switch,103,0,right,left,0.279
ESN1998WRNO,2019-09-18-12-13-28,8,13,0.5831834729550516,left,probe,biased-switch,-1,40,left,left,0.232
ESN1998WRNO,2019-09-18-12-13-28,8,14,0.6516119292651257,left,both,biased-switch,107,40,left,left,0.386
ESN1998WRNO,2019-09-18-12-13-28,8,15,0.6382089962139592,left,probe,ambiguous-stable,-1,-30,left,left,0.57
ESN1998WRNO,2019-09-18-12-13-28,8,16,0.6380776158151324,left,both,ambiguous-stable,109,-30,right,left,0.38
ESN1998WRNO,2019-09-18-12-13-28,8,17,0.6181916766726228,left,probe,biased-switch,-1,20,left,left,0.519
ESN1998WRNO,2019-09-18-12-13-28,8,18,0.608039451389555,left,both,biased-switch,97,20,left,left,0.448
ESN1998WRNO,2019-09-18-12-13-28,8,19,0.5295947078925932,right,probe,biased-switch,-1,-10,left,left,0.503
ESN1998WRNO,2019-09-18-12-13-28,8,20,0.5570558779826371,right,both,biased-switch,92,-10,left,left,0.349
ESN1998WRNO,2019-09-18-12-13-28,8,21,0.5337893892669765,left,probe,biased-switch,-1,10,left,left,0.516
ESN1998WRNO,2019-09-18-12-13-28,8,22,0.5551149368842869,left,both,biased-switch,109,10,left,left,0.772
ESN1998WRNO,2019-09-18-12-13-28,8,23,0.5475502458488735,left,probe,ambiguous-switch,-1,-5,left,left,0.319
ESN1998WRNO,2019-09-18-12-13-28,8,24,0.5036068857017804,left,both,ambiguous-switch,96,-5,left,left,0.146
ESN1998WRNO,2019-09-18-12-13-28,8,25,0.6720159200531994,right,probe,biased-switch,-1,5,left,left,0.545
ESN1998WRNO,2019-09-18-12-13-28,8,26,0.6572668172735632,right,both,biased-switch,104,5,left,right,0.21
ESN1998WRNO,2019-09-18-12-13-28,8,27,0.5787376032903926,left,probe,ambiguous-switch,-1,40,left,left,0.663
ESN1998WRNO,2019-09-18-12-13-28,8,28,0.5864190564549446,left,both,ambiguous-switch,106,40,left,left,0.334
ESN1998WRNO,2019-09-18-12-13-28,8,29,0.5911683862861605,right,probe,ambiguous-switch,-1,5,left,left,1.041
ESN1998WRNO,2019-09-18-12-13-28,8,30,0.6999760523118481,right,both,ambiguous-switch,92,5,left,right,0.42
ESN1998WRNO,2019-09-18-12-13-28,8,31,0.5564618358319217,left,probe,ambiguous-switch,-1,10,left,left,0.619
ESN1998WRNO,2019-09-18-12-13-28,8,32,0.6912430067320111,left,both,ambiguous-switch,99,10,left,left,0.318
ESN1998WRNO,2019-09-18-12-13-28,8,33,0.5306165033014935,right,probe,ambiguous-switch,-1,-10,right,right,0.597
ESN1998WRNO,2019-09-18-12-13-28,8,34,0.5925928276390752,right,both,ambiguous-switch,91,-10,right,right,0.363
ESN1998WRNO,2019-09-18-12-13-28,8,35,0.5586401511708057,right,probe,ambiguous-stable,-1,-10,left,left,0.392
ESN1998WRNO,2019-09-18-12-13-28,8,36,0.6390936442600887,right,both,ambiguous-stable,92,-10,right,left,0.604
ESN1998WRNO,2019-09-18-12-13-28,8,37,0.6126696181382777,left,probe,ambiguous-switch,-1,30,left,left,0.545
ESN1998WRNO,2019-09-18-12-13-28,8,38,0.5531450313918533,left,both,ambiguous-switch,93,30,left,right,0.272
ESN1998WRNO,2019-09-18-12-13-28,8,39,0.6907729558133742,right,probe,ambiguous-stable,-1,5,left,left,0.444
ESN1998WRNO,2019-09-18-12-13-28,8,40,0.5207995512713333,right,both,ambiguous-stable,91,5,right,left,0.207
ESN1998WRNO,2019-09-18-12-13-28,8,41,0.6839108941317784,left,probe,biased-switch,-1,-20,left,left,0.799
ESN1998WRNO,2019-09-18-12-13-28,8,42,0.5562775202877913,left,both,biased-switch,109,-20,left,left,0.563
ESN1998WRNO,2019-09-18-12-13-28,8,43,0.6218725092702297,left,probe,ambiguous-stable,-1,30,left,left,0.621
ESN1998WRNO,2019-09-18-12-13-28,8,44,0.659268981080724,left,both,ambiguous-stable,96,30,right,left,0.533
ESN1998WRNO,2019-09-18-12-13-28,8,45,0.6746693930061923,left,probe,biased-switch,-1,30,left,left,0.829
ESN1998WRNO,2019-09-18-12-13-28,8,46,0.571661481888534,left,both,biased-switch,96,30,left,left,0.429
ESN1998WRNO,2019-09-18-12-13-28,8,47,0.6107455797823046,left,probe,ambiguous-switch,-1,-30,left,left,0.395
ESN1998WRNO,2019-09-18-12-13-28,8,48,0.5671753622039064,left,both,ambiguous-switch,96,-30,left,left,1.175
ESN1998WRNO,2019-09-18-12-13-28,8,49,0.6026472616704089,right,probe,ambiguous-stable,-1,40,left,left,0.713
ESN1998WRNO,2019-09-18-12-13-28,8,50,0.5786167731805945,right,both,ambiguous-stable,99,40,right,left,0.281
ESN1998WRNO,2019-09-18-12-13-28,8,51,0.5152784276675569,left,probe,ambiguous-stable,-1,0,left,left,0.468
ESN1998WRNO,2019-09-18-12-13-28,8,52,0.6766924533491481,left,both,ambiguous-stable,108,0,right,left,0.322
ESN1998WRNO,2019-09-18-12-13-28,8,53,0.6686612783349128,left,probe,ambiguous-stable,-1,-5,left,left,0.209
ESN1998WRNO,2019-09-18-12-13-28,8,54,0.695082474149038,left,both,ambiguous-stable,91,-5,right,left,0.182
ESN1998WRNO,2019-09-18-12-13-28,8,55,0.5660539730341694,left,probe,ambiguous-stable,-1,10,left,left,0.341
ESN1998WRNO,2019-09-18-12-13-28,8,56,0.6619094964931589,left,both,ambiguous-stable,107,10,right,left,0.457
ESN1998WRNO,2019-09-18-12-13-28,8,57,0.5403709593892534,left,probe,ambiguous-stable,-1,20,left,left,0.403
ESN1998WRNO,2019-09-18-12-13-28,8,58,0.6458811679450088,left,both,ambiguous-stable,92,20,right,left,0.22
ESN1998WRNO,2019-09-18-12-13-28,8,59,0.6858890524422496,right,probe,biased-switch,-1,0,right,right,0.426
ESN1998WRNO,2019-09-18-12-13-28,8,60,0.6634785875134218,right,both,biased-switch,96,0,right,left,0.187
ESN1998WRNO,2019-09-18-12-13-28,9,1,0.5857340344522788,left,probe,ambiguous-switch,-1,20,right,right,1.477
ESN1998WRNO,2019-09-18-12-13-28,9,2,0.5210917620380385,left,both,ambiguous-switch,94,20,right,left,0.46
ESN1998WRNO,2019-09-18-12-13-28,9,3,0.5665542518163469,right,probe,ambiguous-stable,-1,20,right,right,0.275
ESN1998WRNO,2019-09-18-12-13-28,9,4,0.6706174894326837,right,both,ambiguous-stable,102,20,left,right,0.602
ESN1998WRNO,2019-09-18-12-13-28,9,5,0.5092563253306692,left,probe,biased-switch,-1,20,left,left,0.456
ESN1998WRNO,2019-09-18-12-13-28,9,6,0.6220323396574887,left,both,biased-switch,97,20,left,left,0.363
ESN1998WRNO,2019-09-18-12-13-28,9,7,0.5948738411918516,left,probe,biased-switch,-1,30,left,left,0.326
ESN1998WRNO,2019-09-18-12-13-28,9,8,0.5167602757799508,left,both,biased-switch,92,30,left,left,0.359
ESN1998WRNO,2019-09-18-12-13-28,9,9,0.6400430208363883,right,probe,ambiguous-stable,-1,5,right,right,0.456
ESN1998WRNO,2019-09-18-12-13-28,9,10,0.5306263446699829,right,both,ambiguous-stable,109,5,left,right,0.296
ESN1998WRNO,2019-09-18-12-13-28,9,11,0.6359748592149327,left,probe,biased-switch,-1,-30,left,left,0.652
ESN1998WRNO,2019-09-18-12-13-28,9,12,0.6894188799812633,left,both,biased-switch,95,-30,left,left,0.987
ESN1998WRNO,2019-09-18-12-13-28,9,13,0.6537637819327078,left,probe,ambiguous-stable,-1,40,left,left,0.938
ESN1998WRNO,2019-09-18-12-13-28,9,14,0.5020299439183238,left,both,ambiguous-stable,91,40,right,left,0.4
ESN1998WRNO,2019-09-18-12-13-28,9,15,0.5057826685089922,right,probe,ambiguous-switch,-1,40,right,right,0.506
ESN1998WRNO,2019-09-18-12-13-28,9,16,0.6085422693855873,right,both,ambiguous-switch,103,40,right,right,1.624
ESN1998WRNO,2019-09-18-12-13-28,9,17,0.5171256332189758,left,probe,biased-switch,-1,0,left,left,0.92
ESN1998WRNO,2019-09-18-12-13-28,9,18,0.5003169742262698,left,both,biased-switch,104,0,left,left,0.841
ESN1998WRNO,2019-09-18-12-13-28,9,19,0.5015279501287686,right,probe,ambiguous-stable,-1,-5,right,right,0.549
ESN1998WRNO,2019-09-18-12-13-28,9,20,0.5226707045517219,right,both,ambiguous-stable,95,-5,left,right,0.393
ESN1998WRNO,2019-09-18-12-13-28,9,21,0.6756143853659546,right,probe,ambiguous-switch,-1,10,right,right,0.632
ESN1998WRNO,2019-09-18-12-13-28,9,22,0.6707705274521737,right,both,ambiguous-switch,94,10,right,right,0.369
ESN1998WRNO,2019-09-18-12-13-28,9,23,0.6290947658831029,left,probe,biased-switch,-1,10,left,left,0.379
ESN1998WRNO,2019-09-18-12-13-28,9,24,0.5462891782399473,left,both,biased-switch,92,10,left,left,0.227
ESN1998WRNO,2019-09-18-12-13-28,9,25,0.5814985495961206,right,probe,biased-switch,-1,-5,right,right,0.258
ESN1998WRNO,2019-09-18-12-13-28,9,26,0.6658134725670162,right,both,biased-switch,95,-5,right,right,0.227
ESN1998WRNO,2019-09-18-12-13-28,9,27,0.5873368702097733,right,probe,ambiguous-stable,-1,-10,right,right,0.699
ESN1998WRNO,2019-09-18-12-13-28,9,28,0.6228353313644985,right,both,ambiguous-stable,110,-10,left,right,0.203
ESN1998WRNO,2019-09-18-12-13-28,9,29,0.5361991197289432,right,probe,ambiguous-stable,-1,10,right,right,0.187
ESN1998WRNO,2019-09-18-12-13-28,9,30,0.6282152848823424,right,both,ambiguous-stable,105,10,left,right,0.731
ESN1998WRNO,2019-09-18-12-13-28,9,31,0.5741741836670495,left,probe,ambiguous-switch,-1,-20,left,left,0.66
ESN1998WRNO,2019-09-18-12-13-28,9,32,0.537092580353475,left,both,ambiguous-switch,109,-20,left,left,0.398
ESN1998WRNO,2019-09-18-12-13-28,9,33,0.5219085669095342,left,probe,biased-switch,-1,5,left,left,0.53
ESN1998WRNO,2019-09-18-12-13-28,9,34,0.6369941525975541,left,both,biased-switch,103,5,left,left,0.22
ESN1998WRNO,2019-09-18-12-13-28,9,35,0.6400368680269519,right,probe,ambiguous-switch,-1,-5,right,right,0.237
ESN1998WRNO,2019-09-18-12-13-28,9,36,0.6199618191478293,right,both,ambiguous-switch,108,-5,right,right,0.715
ESN1998WRNO,2019-09-18-12-13-28,9,37,0.6940145738045347,right,probe,ambiguous-switch,-1,-10,right,right,0.221
ESN1998WRNO,2019-09-18-12-13-28,9,38,0.6457293972771236,right,both,ambiguous-switch,95,-10,right,right,0.562
ESN1998WRNO,2019-09-18-12-13-28,9,39,0.514750851420688,right,probe,ambiguous-stable,-1,-20,right,right,0.481
ESN1998WRNO,2019-09-18-12-13-28,9,40,0.6595910644808062,right,both,ambiguous-stable,94,-20,left,right,0.915
ESN1998WRNO,2019-09-18-12-13-28,9,41,0.6249841271805865,right,probe,ambiguous-switch,-1,30,right,right,0.589
ESN1998WRNO,2019-09-18-12-13-28,9,42,0.6385680101531124,right,both,ambiguous-switch,105,30,right,right,0.318
ESN1998WRNO,2019-09-18-12-13-28,9,43,0.6490019292016024,left,probe,ambiguous-switch,-1,-30,right,right,0.494
ESN1998WRNO,2019-09-18-12-13-28,9,44,0.5034049757991607,left,both,ambiguous-switch,104,-30,right,right,0.078
ESN1998WRNO,2019-09-18-12-13-28,9,45,0.5429351463095577,right,probe,ambiguous-stable,-1,-30,right,right,0.57
ESN1998WRNO,2019-09-18-12-13-28,9,46,0.666046600967626,right,both,ambiguous-stable,105,-30,left,right,0.413
ESN1998WRNO,2019-09-18-12-13-28,9,47,0.5021358791692325,left,probe,ambiguous-switch,-1,5,left,left,1.037
ESN1998WRNO,2019-09-18-12-13-28,9,48,0.6156260207554288,left,both,ambiguous-switch,98,5,left,right,0.361
ESN1998WRNO,2019-09-18-12-13-28,9,49,0.6438899793563024,right,probe,ambiguous-stable,-1,0,right,right,0.271
ESN1998WRNO,2019-09-18-12-13-28,9,50,0.6641957273504115,right,both,ambiguous-stable,91,0,left,right,0.222
ESN1998WRNO,2019-09-18-12-13-28,9,51,0.6016930187749968,right,probe,biased-switch,-1,-10,right,right,0.356
ESN1998WRNO,2019-09-18-12-13-28,9,52,0.5573284482112619,right,both,biased-switch,101,-10,right,right,0.48
ESN1998WRNO,2019-09-18-12-13-28,9,53,0.5916220706608172,left,probe,ambiguous-stable,-1,30,right,right,0.703
ESN1998WRNO,2019-09-18-12-13-28,9,54,0.6138453768593947,left,both,ambiguous-stable,105,30,left,right,0.3
ESN1998WRNO,2019-09-18-12-13-28,9,55,0.5315671092398367,right,probe,biased-switch,-1,40,right,right,0.477
ESN1998WRNO,2019-09-18-12-13-28,9,56,0.5926955569784191,right,both,biased-switch,106,40,right,right,0.214
ESN1998WRNO,2019-09-18-12-13-28,9,57,0.5600153408682846,left,probe,biased-switch,-1,-20,right,right,0.323
ESN1998WRNO,2019-09-18-12-13-28,9,58,0.6985606688130759,left,both,biased-switch,105,-20,right,right,0.239
ESN1998WRNO,2019-09-18-12-13-28,9,59,0.6233899242466675,right,probe,ambiguous-switch,-1,0,right,right,0.267
ESN1998WRNO,2019-09-18-12-13-28,9,60,0.6136148716699773,right,both,ambiguous-switch,97,0,right,right,0.167
ESN1998WRNO,2019-09-18-12-13-28,10,1,0.6789107590752934,left,probe,ambiguous-stable,-1,-20,right,right,0.572
ESN1998WRNO,2019-09-18-12-13-28,10,2,0.5754016789840742,left,both,ambiguous-stable,94,-20,left,right,0.275
ESN1998WRNO,2019-09-18-12-13-28,10,3,0.5147549697640589,right,probe,ambiguous-switch,-1,30,right,right,0.33
ESN1998WRNO,2019-09-18-12-13-28,10,4,0.5084119606072549,right,both,ambiguous-switch,92,30,right,right,0.2
ESN1998WRNO,2019-09-18-12-13-28,10,5,0.5503403831847004,left,probe,biased-switch,-1,0,right,right,0.487
ESN1998WRNO,2019-09-18-12-13-28,10,6,0.5572766168519552,left,both,biased-switch,106,0,right,left,1.319
ESN1998WRNO,2019-09-18-12-13-28,10,7,0.6536785698417529,right,probe,ambiguous-switch,-1,-30,right,right,0.71
ESN1998WRNO,2019-09-18-12-13-28,10,8,0.6920759353103698,right,both,ambiguous-switch,99,-30,right,right,0.304
ESN1998WRNO,2019-09-18-12-13-28,10,9,0.6813410113387315,right,probe,ambiguous-switch,-1,-10,right,right,0.407
ESN1998WRNO,2019-09-18-12-13-28,10,10,0.5790137321042849,right,both,ambiguous-switch,93,-10,right,right,0.161
ESN1998WRNO,2019-09-18-12-13-28,10,11,0.573873935539311,right,probe,ambiguous-switch,-1,40,right,right,0.448
ESN1998WRNO,2019-09-18-12-13-28,10,12,0.571183443127872,right,both,ambiguous-switch,106,40,right,right,0.174
ESN1998WRNO,2019-09-18-12-13-28,10,13,0.599589452476447,left,probe,biased-switch,-1,-20,right,right,0.716
ESN1998WRNO,2019-09-18-12-13-28,10,14,0.5203378915096138,left,both,biased-switch,92,-20,right,right,0.434
ESN1998WRNO,2019-09-18-12-13-28,10,15,0.6595619628019153,left,probe,ambiguous-switch,-1,0,right,right,0.811
ESN1998WRNO,2019-09-18-12-13-28,10,16,0.6504542062597706,left,both,ambiguous-switch,100,0,right,right,0.322
ESN1998WRNO,2019-09-18-12-13-28,10,17,0.6114980350096091,right,probe,biased-switch,-1,-5,right,right,0.673
ESN1998WRNO,2019-09-18-12-13-28,10,18,0.657122632212563,right,both,biased-switch,91,-5,right,right,1.632
ESN1998WRNO,2019-09-18-12-13-28,10,19,0.6409440584914277,right,probe,biased-switch,-1,20,right,right,0.482
ESN1998WRNO,2019-09-18-12-13-28,10,20,0.5298217989317738,right,both,biased-switch,94,20,right,right,0.356
ESN1998WRNO,2019-09-18-12-13-28,10,21,0.5389686491287486,right,probe,biased-switch,-1,40,right,right,0.29
ESN1998WRNO,2019-09-18-12-13-28,10,22,0.5501354121384682,right,both,biased-switch,92,40,right,right,0.312
ESN1998WRNO,2019-09-18-12-13-28,10,23,0.5737967530761244,right,probe,ambiguous-stable,-1,20,right,right,0.825
ESN1998WRNO,2019-09-18-12-13-28,10,24,0.5333053599619536,right,both,ambiguous-stable,90,20,left,right,0.499
ESN1998WRNO,2019-09-18-12-13-28,10,25,0.532876046442255,left,probe,biased-switch,-1,-30,right,right,0.32
ESN1998WRNO,2019-09-18-12-13-28,10,26,0.5598523385347434,left,both,biased-switch,99,-30,right,right,0.171
ESN1998WRNO,2019-09-18-12-13-28,10,27,0.6181283026249349,right,probe,ambiguous-switch,-1,10,right,right,0.281
ESN1998WRNO,2019-09-18-12-13-28,10,28,0.614663918784188,right,both,ambiguous-switch,94,10,right,left,0.329
ESN1998WRNO,2019-09-18-12-13-28,10,29,0.6820010595405143,left,probe,biased-switch,-1,-10,right,right,0.825
ESN1998WRNO,2019-09-18-12-13-28,10,30,0.6370208097243427,left,both,biased-switch,94,-10,right,right,0.467
ESN1998WRNO,2019-09-18-12-13-28,10,31,0.6345145484109124,right,probe,ambiguous-stable,-1,10,right,right,0.264
ESN1998WRNO,2019-09-18-12-13-28,10,32,0.685357864853279,right,both,ambiguous-stable,96,10,left,right,0.198
ESN1998WRNO,2019-09-18-12-13-28,10,33,0.6903319203950397,left,probe,ambiguous-switch,-1,20,right,right,0.203
ESN1998WRNO,2019-09-18-12-13-28,10,34,0.6665197743269635,left,both,ambiguous-switch,90,20,right,right,0.501
ESN1998WRNO,2019-09-18-12-13-28,10,35,0.6637123081685308,left,probe,biased-switch,-1,5,right,right,0.483
ESN1998WRNO,2019-09-18-12-13-28,10,36,0.6489168141336954,left,both,biased-switch,106,5,right,left,0.189
ESN1998WRNO,2019-09-18-12-13-28,10,37,0.5496197149065272,left,probe,ambiguous-stable,-1,5,right,right,0.216
ESN1998WRNO,2019-09-18-12-13-28,10,38,0.6611648096459587,left,both,ambiguous-stable,100,5,left,right,0.193
ESN1998WRNO,2019-09-18-12-13-28,10,39,0.6753651100138601,left,probe,biased-switch,-1,30,right,right,0.319
ESN1998WRNO,2019-09-18-12-13-28,10,40,0.5885035352465882,left,both,biased-switch,90,30,right,right,0.201
ESN1998WRNO,2019-09-18-12-13-28,10,41,0.5096169347033342,right,probe,biased-switch,-1,10,right,right,0.205
ESN1998WRNO,2019-09-18-12-13-28,10,42,0.5013421828479228,right,both,biased-switch,94,10,right,right,0.196
ESN1998WRNO,2019-09-18-12-13-28,10,43,0.6855418246435226,right,probe,ambiguous-switch,-1,-5,right,right,0.179
ESN1998WRNO,2019-09-18-12-13-28,10,44,0.6711320613104709,right,both,ambiguous-switch,100,-5,right,left,0.169
ESN1998WRNO,2019-09-18-12-13-28,10,45,0.6999118743936843,right,probe,ambiguous-stable,-1,-30,right,right,0.089
ESN1998WRNO,2019-09-18-12-13-28,10,46,0.5479465025643752,right,both,ambiguous-stable,96,-30,left,right,0.169
ESN1998WRNO,2019-09-18-12-13-28,10,47,0.6263778510357826,left,probe,ambiguous-stable,-1,30,right,right,0.272
ESN1998WRNO,2019-09-18-12-13-28,10,48,0.6711716943706646,left,both,ambiguous-stable,97,30,left,right,0.466
ESN1998WRNO,2019-09-18-12-13-28,10,49,0.5416119209782043,right,probe,ambiguous-switch,-1,5,right,right,0.372
ESN1998WRNO,2019-09-18-12-13-28,10,50,0.5627536380632068,right,both,ambiguous-switch,103,5,right,left,0.301
ESN1998WRNO,2019-09-18-12-13-28,10,51,0.5323380932083316,right,probe,ambiguous-stable,-1,-10,right,right,0.267
ESN1998WRNO,2019-09-18-12-13-28,10,52,0.6405982791072283,right,both,ambiguous-stable,97,-10,left,right,0.239
ESN1998WRNO,2019-09-18-12-13-28,10,53,0.6466196326192681,right,probe,ambiguous-stable,-1,0,right,right,0.342
ESN1998WRNO,2019-09-18-12-13-28,10,54,0.6012774153856598,right,both,ambiguous-stable,96,0,left,right,0.251
ESN1998WRNO,2019-09-18-12-13-28,10,55,0.5264992413213171,right,probe,ambiguous-stable,-1,-5,right,right,0.515
ESN1998WRNO,2019-09-18-12-13-28,10,56,0.6282690682331714,right,both,ambiguous-stable,96,-5,left,right,0.342
ESN1998WRNO,2019-09-18-12-13-28,10,57,0.6985739119830807,left,probe,ambiguous-switch,-1,-20,right,right,0.46
ESN1998WRNO,2019-09-18-12-13-28,10,58,0.6134688012699993,left,both,ambiguous-switch,100,-20,right,right,0.169
ESN1998WRNO,2019-09-18-12-13-28,10,59,0.6714496806908943,left,probe,ambiguous-stable,-1,40,right,right,0.233
ESN1998WRNO,2019-09-18-12-13-28,10,60,0.6583556801024208,left,both,ambiguous-stable,93,40,left,right,0.233
