Participant,Session,Block,Trial,OnsetDelay,ProbeLocation,WhatIsReported,Condition,TriggerTime,ProbeSOA,PrimeDirection,Response,RT
SKL1994WRNO,2019-09-30-15-00-56,1,1,0.510142259309055,left,probe,biased-switch,-1,10,left,left,1.011
SKL1994WRNO,2019-09-30-15-00-56,1,2,0.5822225443268416,left,both,biased-switch,97,10,left,right,0.237
SKL1994WRNO,2019-09-30-15-00-56,1,3,0.5336091849423314,left,probe,biased-switch,-1,-10,right,right,0.248
SKL1994WRNO,2019-09-30-15-00-56,1,4,0.6807720491635658,left,both,biased-switch,105,-10,right,right,0.196
SKL1994WRNO,2019-09-30-15-00-56,1,5,0.6439476840808286,left,probe,biased-switch,-1,40,right,right,0.188
SKL1994WRNO,2019-09-30-15-00-56,1,6,0.6043065131722459,left,both,biased-switch,109,40,right,right,0.198
SKL1994WRNO,2019-09-30-15-00-56,1,7,0.6256371394190272,left,probe,ambiguous-switch,-1,10,right,right,0.264
SKL1994WRNO,2019-09-30-15-00-56,1,8,0.5241576355142676,left,both,ambiguous-switch,104,10,right,right,0.228
SKL1994WRNO,2019-09-30-15-00-56,1,9,0.6899543725485704,right,probe,ambiguous-switch,-1,5,right,right,0.198
SKL1994WRNO,2019-09-30-15-00-56,1,10,0.5535773236723417,right,both,ambiguous-switch,94,5,right,right,0.19
SKL1994WRNO,2019-09-30-15-00-56,1,11,0.6381918131421951,left,probe,ambiguous-switch,-1,30,right,right,0.155
SKL1994WRNO,2019-09-30-15-00-56,1,12,0.5122052373070265,left,both,ambiguous-switch,110,30,right,right,0.195
SKL1994WRNO,2019-09-30-15-00-56,1,13,0.5655623780413754,right,probe,ambiguous-switch,-1,-10,right,right,0.183
SKL1994WRNO,2019-09-30-15-00-56,1,14,0.568954071749955,right,both,ambiguous-switch,94,-10,right,right,0.192
SKL1994WRNO,2019-09-30-15-00-56,1,15,0.69996466626483,left,probe,biased-switch,-1,-30,right,right,0.148
SKL1994WRNO,2019-09-30-15-00-56,1,16,0.5866613791739096,left,both,biased-switch,99,-30,right,right,0.183
SKL1994WRNO,2019-09-30-15-00-56,1,17,0.6384990870722913,right,probe,ambiguous-switch,-1,-30,right,right,0.311
SKL1994WRNO,2019-09-30-15-00-56,1,18,0.5635139039018163,right,both,ambiguous-switch,97,-30,right,right,0.205
SKL1994WRNO,2019-09-30-15-00-56,1,19,0.5680745489838088,left,probe,biased-switch,-1,-5,right,right,0.168
SKL1994WRNO,2019-09-30-15-00-56,1,20,0.689075262019659,left,both,biased-switch,98,-5,right,right,0.191
SKL1994WRNO,2019-09-30-15-00-56,1,21,0.5518139411684958,left,probe,ambiguous-switch,-1,-5,right,right,0.173
SKL1994WRNO,2019-09-30-15-00-56,1,22,0.6356566747919263,left,both,ambiguous-switch,92,-5,right,right,0.216
SKL1994WRNO,2019-09-30-15-00-56,1,23,0.5574611778419003,left,probe,biased-switch,-1,-20,right,right,0.135
SKL1994WRNO,2019-09-30-15-00-56,1,24,0.5384438876069029,left,both,biased-switch,101,-20,right,right,0.283
SKL1994WRNO,2019-09-30-15-00-56,1,25,0.6015895249515821,right,probe,ambiguous-switch,-1,0,right,right,0.181
SKL1994WRNO,2019-09-30-15-00-56,1,26,0.5613138731851586,right,both,ambiguous-switch,98,0,right,right,0.225
SKL1994WRNO,2019-09-30-15-00-56,1,27,0.6094691645053667,right,probe,biased-switch,-1,30,right,right,0.208
SKL1994WRNO,2019-09-30-15-00-56,1,28,0.6130174482543206,right,both,biased-switch,90,30,right,right,0.191
SKL1994WRNO,2019-09-30-15-00-56,1,29,0.6836080765071392,left,probe,ambiguous-switch,-1,40,right,right,0.552
SKL1994WRNO,2019-09-30-15-00-56,1,30,0.6615341147614271,left,both,ambiguous-switch,94,40,right,right,3.698
SKL1994WRNO,2019-09-30-15-00-56,1,31,0.6027943046814891,right,probe,ambiguous-switch,-1,20,right,right,0.229
SKL1994WRNO,2019-09-30-15-00-56,1,32,0.5405405191369753,right,both,ambiguous-switch,99,20,right,right,0.242
SKL1994WRNO,2019-09-30-15-00-56,1,33,0.6071645402414613,right,probe,biased-switch,-1,0,right,right,0.212
SKL1994WRNO,2019-09-30-15-00-56,1,34,0.6602475080362156,right,both,biased-switch,101,0,right,right,0.211
SKL1994WRNO,2019-09-30-15-00-56,1,35,0.6691623939959913,left,probe,ambiguous-switch,-1,-20,right,right,0.336
SKL1994WRNO,2019-09-30-15-00-56,1,36,0.6318186136341838,left,both,ambiguous-switch,105,-20,right,right,0.288
SKL1994WRNO,2019-09-30-15-00-56,1,37,0.6944362098275978,right,probe,biased-switch,-1,20,right,right,0.241
SKL1994WRNO,2019-09-30-15-00-56,1,38,0.6129380335941502,right,both,biased-switch,105,20,right,right,0.183
SKL1994WRNO,2019-09-30-15-00-56,1,39,0.6159481142386579,right,probe,biased-switch,-1,5,right,right,0.244
SKL1994WRNO,2019-09-30-15-00-56,1,40,0.6614428417775304,right,both,biased-switch,104,5,right,right,0.177
SKL1994WRNO,2019-09-30-15-00-56,1,41,0.53627112888881,left,probe,biased-switch,-1,10,right,right,0.201
SKL1994WRNO,2019-09-30-15-00-56,1,42,0.6962639823094829,left,both,biased-switch,108,10,right,right,0.247
SKL1994WRNO,2019-09-30-15-00-56,1,43,0.6443439885335652,left,probe,biased-switch,-1,-10,right,right,0.326
SKL1994WRNO,2019-09-30-15-00-56,1,44,0.682981817815823,left,both,biased-switch,92,-10,right,right,0.197
SKL1994WRNO,2019-09-30-15-00-56,1,45,0.6147215999355162,left,probe,biased-switch,-1,40,right,right,0.249
SKL1994WRNO,2019-09-30-15-00-56,1,46,0.6217980239834571,left,both,biased-switch,95,40,right,right,0.182
SKL1994WRNO,2019-09-30-15-00-56,1,47,0.6583611889109058,left,probe,ambiguous-switch,-1,10,right,right,0.21
SKL1994WRNO,2019-09-30-15-00-56,1,48,0.6227740954186582,left,both,ambiguous-switch,102,10,right,right,0.173
SKL1994WRNO,2019-09-30-15-00-56,1,49,0.6263208980250304,right,probe,ambiguous-switch,-1,5,right,right,0.101
SKL1994WRNO,2019-09-30-15-00-56,1,50,0.5012361043787901,right,both,ambiguous-switch,104,5,right,right,0.208
SKL1994WRNO,2019-09-30-15-00-56,1,51,0.6693176872822448,left,probe,ambiguous-switch,-1,30,right,right,0.056
SKL1994WRNO,2019-09-30-15-00-56,1,52,0.6559244798581496,left,both,ambiguous-switch,98,30,right,right,0.504
SKL1994WRNO,2019-09-30-15-00-56,1,53,0.5637886992147467,left,probe,ambiguous-switch,-1,-10,right,right,0.363
SKL1994WRNO,2019-09-30-15-00-56,1,54,0.5201037641710125,left,both,ambiguous-switch,97,-10,right,right,0.253
SKL1994WRNO,2019-09-30-15-00-56,1,55,0.6395734766528011,left,probe,biased-switch,-1,-30,right,right,0.244
SKL1994WRNO,2019-09-30-15-00-56,1,56,0.5133339450891207,left,both,biased-switch,92,-30,right,right,0.217
SKL1994WRNO,2019-09-30-15-00-56,1,57,0.5497175155658952,left,probe,ambiguous-switch,-1,-30,right,right,0.177
SKL1994WRNO,2019-09-30-15-00-56,1,58,0.5480097420249618,left,both,ambiguous-switch,93,-30,right,right,0.258
SKL1994WRNO,2019-09-30-15-00-56,1,59,0.5632793965564746,right,probe,biased-switch,-1,-5,right,right,0.206
SKL1994WRNO,2019-09-30-15-00-56,1,60,0.6674017794736143,right,both,biased-switch,95,-5,right,right,0.17
SKL1994WRNO,2019-09-30-15-00-56,1,61,0.6892444903344354,right,probe,ambiguous-switch,-1,-5,right,right,0.015
SKL1994WRNO,2019-09-30-15-00-56,1,62,0.5674296854255676,right,both,ambiguous-switch,90,-5,right,right,0.224
SKL1994WRNO,2019-09-30-15-00-56,1,63,0.5589441189182576,right,probe,biased-switch,-1,-20,right,right,0.044
SKL1994WRNO,2019-09-30-15-00-56,1,64,0.6572365988102498,right,both,biased-switch,107,-20,right,right,0.168
SKL1994WRNO,2019-09-30-15-00-56,1,65,0.6346342365263051,right,probe,ambiguous-switch,-1,0,right,right,0.129
SKL1994WRNO,2019-09-30-15-00-56,1,66,0.6779960824306217,right,both,ambiguous-switch,100,0,right,right,0.09
SKL1994WRNO,2019-09-30-15-00-56,1,67,0.6720220932649583,right,probe,biased-switch,-1,30,right,right,0.182
SKL1994WRNO,2019-09-30-15-00-56,1,68,0.6049271816626666,right,both,biased-switch,96,30,right,right,0.238
SKL1994WRNO,2019-09-30-15-00-56,1,69,0.5230724331355395,right,probe,ambiguous-switch,-1,40,right,right,0.247
SKL1994WRNO,2019-09-30-15-00-56,1,70,0.5526709347896339,right,both,ambiguous-switch,92,40,right,right,0.187
SKL1994WRNO,2019-09-30-15-00-56,1,71,0.5746622278698228,right,probe,ambiguous-switch,-1,20,right,right,0.157
SKL1994WRNO,2019-09-30-15-00-56,1,72,0.5695419079185388,right,both,ambiguous-switch,104,20,right,right,0.189
SKL1994WRNO,2019-09-30-15-00-56,1,73,0.5603486389659383,left,probe,biased-switch,-1,0,right,right,0.219
SKL1994WRNO,2019-09-30-15-00-56,1,74,0.5360107469644226,left,both,biased-switch,108,0,right,right,0.232
SKL1994WRNO,2019-09-30-15-00-56,1,75,0.5526021411881438,right,probe,ambiguous-switch,-1,-20,right,right,0.272
SKL1994WRNO,2019-09-30-15-00-56,1,76,0.5708108276649901,right,both,ambiguous-switch,107,-20,right,right,0.277
SKL1994WRNO,2019-09-30-15-00-56,1,77,0.515200674073341,left,probe,biased-switch,-1,20,right,right,0.107
SKL1994WRNO,2019-09-30-15-00-56,1,78,0.6561128234205662,left,both,biased-switch,107,20,right,right,0.192
SKL1994WRNO,2019-09-30-15-00-56,1,79,0.6445585413264394,left,probe,biased-switch,-1,5,right,right,0.165
SKL1994WRNO,2019-09-30-15-00-56,1,80,0.5736716746705753,left,both,biased-switch,95,5,right,right,0.208
SKL1994WRNO,2019-09-30-15-00-56,2,1,0.679521789681522,left,probe,biased-switch,-1,-20,right,right,0.24
SKL1994WRNO,2019-09-30-15-00-56,2,2,0.5147819466046863,left,both,biased-switch,108,-20,right,right,0.25
SKL1994WRNO,2019-09-30-15-00-56,2,3,0.6012782506777509,left,probe,ambiguous-switch,-1,-30,right,right,0.295
SKL1994WRNO,2019-09-30-15-00-56,2,4,0.6400724375623955,left,both,ambiguous-switch,92,-30,right,right,0.272
SKL1994WRNO,2019-09-30-15-00-56,2,5,0.5398254335828161,right,probe,biased-switch,-1,-10,right,right,0.185
SKL1994WRNO,2019-09-30-15-00-56,2,6,0.6592264881087967,right,both,biased-switch,103,-10,right,right,0.246
SKL1994WRNO,2019-09-30-15-00-56,2,7,0.6325714042586731,left,probe,biased-switch,-1,40,right,right,0.172
SKL1994WRNO,2019-09-30-15-00-56,2,8,0.59367567937332,left,both,biased-switch,98,40,right,right,0.339
SKL1994WRNO,2019-09-30-15-00-56,2,9,0.5895085178166083,right,probe,ambiguous-switch,-1,10,right,right,0.18
SKL1994WRNO,2019-09-30-15-00-56,2,10,0.55297288736631,right,both,ambiguous-switch,91,10,right,right,0.284
SKL1994WRNO,2019-09-30-15-00-56,2,11,0.5819287455831037,left,probe,ambiguous-switch,-1,0,right,right,0.057
SKL1994WRNO,2019-09-30-15-00-56,2,12,0.5488823015344613,left,both,ambiguous-switch,100,0,right,right,0.155
SKL1994WRNO,2019-09-30-15-00-56,2,13,0.6970880408085542,left,probe,biased-switch,-1,0,right,right,0.129
SKL1994WRNO,2019-09-30-15-00-56,2,14,0.6324447721939493,left,both,biased-switch,101,0,right,right,0.118
SKL1994WRNO,2019-09-30-15-00-56,2,15,0.642587149552118,left,probe,biased-switch,-1,-5,right,right,0.183
SKL1994WRNO,2019-09-30-15-00-56,2,16,0.58928444359339,left,both,biased-switch,98,-5,right,right,0.236
SKL1994WRNO,2019-09-30-15-00-56,2,17,0.5340635738579702,right,probe,biased-switch,-1,20,right,right,0.202
SKL1994WRNO,2019-09-30-15-00-56,2,18,0.5024939781253385,right,both,biased-switch,98,20,right,right,0.184
SKL1994WRNO,2019-09-30-15-00-56,2,19,0.673864938306479,right,probe,biased-switch,-1,30,right,right,0.208
SKL1994WRNO,2019-09-30-15-00-56,2,20,0.6349022399589781,right,both,biased-switch,92,30,right,right,0.199
SKL1994WRNO,2019-09-30-15-00-56,2,21,0.6596818343252051,right,probe,ambiguous-switch,-1,-20,right,right,0.161
SKL1994WRNO,2019-09-30-15-00-56,2,22,0.6706350125214047,right,both,ambiguous-switch,93,-20,right,right,0.215
SKL1994WRNO,2019-09-30-15-00-56,2,23,0.5523512284506599,right,probe,ambiguous-switch,-1,30,right,right,0.18
SKL1994WRNO,2019-09-30-15-00-56,2,24,0.6377297502855419,right,both,ambiguous-switch,95,30,right,right,0.217
SKL1994WRNO,2019-09-30-15-00-56,2,25,0.5234030148832249,right,probe,biased-switch,-1,-30,right,right,0.218
SKL1994WRNO,2019-09-30-15-00-56,2,26,0.5422470781620382,right,both,biased-switch,93,-30,right,right,0.271
SKL1994WRNO,2019-09-30-15-00-56,2,27,0.5366130688619731,right,probe,biased-switch,-1,5,right,right,0.078
SKL1994WRNO,2019-09-30-15-00-56,2,28,0.6767508330177332,right,both,biased-switch,106,5,right,right,0.123
SKL1994WRNO,2019-09-30-15-00-56,2,29,0.547370046643417,left,probe,ambiguous-switch,-1,5,right,right,0.205
SKL1994WRNO,2019-09-30-15-00-56,2,30,0.5277875693264634,left,both,ambiguous-switch,98,5,right,right,0.206
SKL1994WRNO,2019-09-30-15-00-56,2,31,0.6003647678649441,right,probe,ambiguous-switch,-1,-5,right,right,0.181
SKL1994WRNO,2019-09-30-15-00-56,2,32,0.6044886433588486,right,both,ambiguous-switch,95,-5,right,right,0.224
SKL1994WRNO,2019-09-30-15-00-56,2,33,0.656384382592578,left,probe,ambiguous-switch,-1,40,right,right,0.037
SKL1994WRNO,2019-09-30-15-00-56,2,34,0.5099979764931458,left,both,ambiguous-switch,102,40,right,right,0.214
SKL1994WRNO,2019-09-30-15-00-56,2,35,0.667472375956471,right,probe,biased-switch,-1,10,right,right,0.247
SKL1994WRNO,2019-09-30-15-00-56,2,36,0.6675654774007059,right,both,biased-switch,91,10,right,right,0.215
SKL1994WRNO,2019-09-30-15-00-56,2,37,0.5352143225874664,left,probe,ambiguous-switch,-1,20,right,right,0.272
SKL1994WRNO,2019-09-30-15-00-56,2,38,0.6716335372316896,left,both,ambiguous-switch,91,20,right,right,0.209
SKL1994WRNO,2019-09-30-15-00-56,2,39,0.6820375497863933,left,probe,ambiguous-switch,-1,-10,right,right,0.184
SKL1994WRNO,2019-09-30-15-00-56,2,40,0.6753568047767997,left,both,ambiguous-switch,108,-10,right,right,0.177
SKL1994WRNO,2019-09-30-15-00-56,2,41,0.5459777873479793,right,probe,biased-switch,-1,-20,right,right,0.3
SKL1994WRNO,2019-09-30-15-00-56,2,42,0.6878132552087723,right,both,biased-switch,103,-20,right,right,0.296
SKL1994WRNO,2019-09-30-15-00-56,2,43,0.566110734717421,left,probe,ambiguous-switch,-1,-30,right,right,0.019
SKL1994WRNO,2019-09-30-15-00-56,2,44,0.6976153034017216,left,both,ambiguous-switch,95,-30,right,right,0.371
SKL1994WRNO,2019-09-30-15-00-56,2,45,0.6537507433209503,right,probe,biased-switch,-1,-10,right,right,0.175
SKL1994WRNO,2019-09-30-15-00-56,2,46,0.6347829566612853,right,both,biased-switch,99,-10,right,right,0.208
SKL1994WRNO,2019-09-30-15-00-56,2,47,0.6591883263530592,right,probe,biased-switch,-1,40,right,right,0.217
SKL1994WRNO,2019-09-30-15-00-56,2,48,0.5216414119931002,right,both,biased-switch,102,40,right,right,0.278
SKL1994WRNO,2019-09-30-15-00-56,2,49,0.5713977347290727,right,probe,ambiguous-switch,-1,10,right,right,0.2
SKL1994WRNO,2019-09-30-15-00-56,2,50,0.534567441301031,right,both,ambiguous-switch,96,10,right,left,0.311
SKL1994WRNO,2019-09-30-15-00-56,2,51,0.5812467444709453,right,probe,ambiguous-switch,-1,0,left,left,0.199
SKL1994WRNO,2019-09-30-15-00-56,2,52,0.5339717350710512,right,both,ambiguous-switch,100,0,left,left,0.186
SKL1994WRNO,2019-09-30-15-00-56,2,53,0.602699019816547,left,probe,biased-switch,-1,0,right,right,0.049
SKL1994WRNO,2019-09-30-15-00-56,2,54,0.5864464090425004,left,both,biased-switch,90,0,right,left,0.203
SKL1994WRNO,2019-09-30-15-00-56,2,55,0.6072644729784175,right,probe,biased-switch,-1,-5,left,left,0.179
SKL1994WRNO,2019-09-30-15-00-56,2,56,0.6635441948988964,right,both,biased-switch,97,-5,left,left,0.189
SKL1994WRNO,2019-09-30-15-00-56,2,57,0.5166441181744147,right,probe,biased-switch,-1,20,left,left,0.268
SKL1994WRNO,2019-09-30-15-00-56,2,58,0.5978975980519652,right,both,biased-switch,101,20,left,left,0.192
SKL1994WRNO,2019-09-30-15-00-56,2,59,0.5889899576938543,left,probe,biased-switch,-1,30,right,right,0.198
SKL1994WRNO,2019-09-30-15-00-56,2,60,0.6480882230071092,left,both,biased-switch,94,30,right,right,0.182
SKL1994WRNO,2019-09-30-15-00-56,2,61,0.6623985518168124,right,probe,ambiguous-switch,-1,-20,right,right,0.148
SKL1994WRNO,2019-09-30-15-00-56,2,62,0.6918066684119137,right,both,ambiguous-switch,92,-20,right,left,0.235
SKL1994WRNO,2019-09-30-15-00-56,2,63,0.6058436067053897,right,probe,ambiguous-switch,-1,30,left,left,0.204
SKL1994WRNO,2019-09-30-15-00-56,2,64,0.6336154070246753,right,both,ambiguous-switch,102,30,left,left,0.162
SKL1994WRNO,2019-09-30-15-00-56,2,65,0.6022938771350758,right,probe,biased-switch,-1,-30,left,left,0.162
SKL1994WRNO,2019-09-30-15-00-56,2,66,0.6625659562974918,right,both,biased-switch,106,-30,left,left,0.082
SKL1994WRNO,2019-09-30-15-00-56,2,67,0.644816432664317,left,probe,biased-switch,-1,5,right,right,0.014
SKL1994WRNO,2019-09-30-15-00-56,2,68,0.6115303213813502,left,both,biased-switch,104,5,right,left,0.19
SKL1994WRNO,2019-09-30-15-00-56,2,69,0.5251451205952722,left,probe,ambiguous-switch,-1,5,left,left,0.158
SKL1994WRNO,2019-09-30-15-00-56,2,70,0.6581300088280401,left,both,ambiguous-switch,95,5,left,left,0.264
SKL1994WRNO,2019-09-30-15-00-56,2,71,0.6074963026968613,right,probe,ambiguous-switch,-1,-5,left,left,0.184
SKL1994WRNO,2019-09-30-15-00-56,2,72,0.6994986180935858,right,both,ambiguous-switch,99,-5,left,left,0.217
SKL1994WRNO,2019-09-30-15-00-56,2,73,0.6213206339683894,right,probe,ambiguous-switch,-1,40,left,left,0.264
SKL1994WRNO,2019-09-30-15-00-56,2,74,0.6981498670743843,right,both,ambiguous-switch,110,40,left,left,0.173
SKL1994WRNO,2019-09-30-15-00-56,2,75,0.500640808968238,left,probe,biased-switch,-1,10,left,left,0.236
SKL1994WRNO,2019-09-30-15-00-56,2,76,0.5018518963346282,left,both,biased-switch,99,10,left,right,0.241
SKL1994WRNO,2019-09-30-15-00-56,2,77,0.6187389664683666,right,probe,ambiguous-switch,-1,20,left,left,0.185
SKL1994WRNO,2019-09-30-15-00-56,2,78,0.6239694908225205,right,both,ambiguous-switch,108,20,left,left,0.178
SKL1994WRNO,2019-09-30-15-00-56,2,79,0.5511284851317558,right,probe,ambiguous-switch,-1,-10,left,left,0.185
SKL1994WRNO,2019-09-30-15-00-56,2,80,0.5697914277923752,right,both,ambiguous-switch,107,-10,left,left,0.266
SKL1994WRNO,2019-09-30-15-00-56,3,1,0.601966505914012,right,probe,ambiguous-switch,-1,30,left,left,0.091
SKL1994WRNO,2019-09-30-15-00-56,3,2,0.6650864673726238,right,both,ambiguous-switch,108,30,left,left,0.198
SKL1994WRNO,2019-09-30-15-00-56,3,3,0.6332041725427935,left,probe,biased-switch,-1,10,left,left,0.238
SKL1994WRNO,2019-09-30-15-00-56,3,4,0.6993875051963793,left,both,biased-switch,94,10,left,right,0.198
SKL1994WRNO,2019-09-30-15-00-56,3,5,0.6928054896150664,right,probe,ambiguous-switch,-1,-5,left,left,0.158
SKL1994WRNO,2019-09-30-15-00-56,3,6,0.6184113263256462,right,both,ambiguous-switch,98,-5,left,left,0.193
SKL1994WRNO,2019-09-30-15-00-56,3,7,0.6580588181892769,left,probe,ambiguous-switch,-1,40,right,right,0.014
SKL1994WRNO,2019-09-30-15-00-56,3,8,0.5143406985023316,left,both,ambiguous-switch,103,40,right,right,0.119
SKL1994WRNO,2019-09-30-15-00-56,3,9,0.5028969666045412,left,probe,ambiguous-switch,-1,5,right,right,0.024
SKL1994WRNO,2019-09-30-15-00-56,3,10,0.5988715139239008,left,both,ambiguous-switch,96,5,right,right,0.177
SKL1994WRNO,2019-09-30-15-00-56,3,11,0.6843946174881191,left,probe,biased-switch,-1,-20,right,right,0.125
SKL1994WRNO,2019-09-30-15-00-56,3,12,0.5838939092393252,left,both,biased-switch,102,-20,right,right,0.182
SKL1994WRNO,2019-09-30-15-00-56,3,13,0.6316139374358638,left,probe,ambiguous-switch,-1,10,right,right,0.101
SKL1994WRNO,2019-09-30-15-00-56,3,14,0.6716511012433892,left,both,ambiguous-switch,100,10,right,right,0.049
SKL1994WRNO,2019-09-30-15-00-56,3,15,0.6302167026481774,left,probe,biased-switch,-1,40,right,right,0.001
SKL1994WRNO,2019-09-30-15-00-56,3,16,0.5955585959873921,left,both,biased-switch,93,40,right,right,0.067
SKL1994WRNO,2019-09-30-15-00-56,3,17,0.5684166143584616,right,probe,ambiguous-switch,-1,20,left,left,0.119
SKL1994WRNO,2019-09-30-15-00-56,3,18,0.5969759864682408,right,both,ambiguous-switch,104,20,left,left,0.005
SKL1994WRNO,2019-09-30-15-00-56,3,19,0.6839241903579851,left,probe,biased-switch,-1,30,right,right,0.069
SKL1994WRNO,2019-09-30-15-00-56,3,20,0.5602645164803504,left,both,biased-switch,103,30,right,right,0.248
SKL1994WRNO,2019-09-30-15-00-56,3,21,0.6593385357067625,right,probe,biased-switch,-1,5,left,left,0.214
SKL1994WRNO,2019-09-30-15-00-56,3,22,0.5172053955143476,right,both,biased-switch,108,5,left,left,0.123
SKL1994WRNO,2019-09-30-15-00-56,3,23,0.5612910548329428,left,probe,biased-switch,-1,20,right,right,0.16
SKL1994WRNO,2019-09-30-15-00-56,3,24,0.6135984454362582,left,both,biased-switch,102,20,right,right,0.189
SKL1994WRNO,2019-09-30-15-00-56,3,25,0.6726520264212869,left,probe,ambiguous-switch,-1,-20,right,right,0.186
SKL1994WRNO,2019-09-30-15-00-56,3,26,0.6044930918723701,left,both,ambiguous-switch,108,-20,right,right,0.148
SKL1994WRNO,2019-09-30-15-00-56,3,27,0.5581234607603442,left,probe,biased-switch,-1,-10,right,right,0.214
SKL1994WRNO,2019-09-30-15-00-56,3,28,0.6995365938867407,left,both,biased-switch,92,-10,right,right,0.157
SKL1994WRNO,2019-09-30-15-00-56,3,29,0.5531263050506378,right,probe,ambiguous-switch,-1,-10,left,left,0.089
SKL1994WRNO,2019-09-30-15-00-56,3,30,0.5530571153832808,right,both,ambiguous-switch,102,-10,left,left,0.008
SKL1994WRNO,2019-09-30-15-00-56,3,31,0.641262854992271,left,probe,biased-switch,-1,0,right,right,0.09
SKL1994WRNO,2019-09-30-15-00-56,3,32,0.5706603439752097,left,both,biased-switch,109,0,right,left,0.176
SKL1994WRNO,2019-09-30-15-00-56,3,33,0.6139383246930977,left,probe,ambiguous-switch,-1,0,left,left,0.1
SKL1994WRNO,2019-09-30-15-00-56,3,34,0.5066682219104515,left,both,ambiguous-switch,110,0,left,left,0.113
SKL1994WRNO,2019-09-30-15-00-56,3,35,0.66419181280157,right,probe,biased-switch,-1,-5,left,left,0.234
SKL1994WRNO,2019-09-30-15-00-56,3,36,0.5694844528809057,right,both,biased-switch,107,-5,left,left,0.161
SKL1994WRNO,2019-09-30-15-00-56,3,37,0.6579890067138452,right,probe,ambiguous-switch,-1,-30,left,left,0.172
SKL1994WRNO,2019-09-30-15-00-56,3,38,0.563036337600573,right,both,ambiguous-switch,97,-30,left,left,0.157
SKL1994WRNO,2019-09-30-15-00-56,3,39,0.5908271283046509,left,probe,biased-switch,-1,-30,left,left,0.189
SKL1994WRNO,2019-09-30-15-00-56,3,40,0.6543116561628471,left,both,biased-switch,103,-30,left,left,1.182
SKL1994WRNO,2019-09-30-15-00-56,3,41,0.6621314058354842,right,probe,ambiguous-switch,-1,30,left,left,0.237
SKL1994WRNO,2019-09-30-15-00-56,3,42,0.5754743019085813,right,both,ambiguous-switch,105,30,left,left,0.177
SKL1994WRNO,2019-09-30-15-00-56,3,43,0.6932648598700943,right,probe,biased-switch,-1,10,left,left,0.182
SKL1994WRNO,2019-09-30-15-00-56,3,44,0.5983757018486534,right,both,biased-switch,97,10,left,right,0.227
SKL1994WRNO,2019-09-30-15-00-56,3,45,0.557777547458679,left,probe,ambiguous-switch,-1,-5,left,left,0.169
SKL1994WRNO,2019-09-30-15-00-56,3,46,0.587853157295128,left,both,ambiguous-switch,96,-5,left,left,0.194
SKL1994WRNO,2019-09-30-15-00-56,3,47,0.5639766014204417,left,probe,ambiguous-switch,-1,40,left,left,0.086
SKL1994WRNO,2019-09-30-15-00-56,3,48,0.5980074245061746,left,both,ambiguous-switch,100,40,left,left,1.198
SKL1994WRNO,2019-09-30-15-00-56,3,49,0.525695473320133,right,probe,ambiguous-switch,-1,5,left,left,0.199
SKL1994WRNO,2019-09-30-15-00-56,3,50,0.5258736432972909,right,both,ambiguous-switch,105,5,left,left,0.209
SKL1994WRNO,2019-09-30-15-00-56,3,51,0.6330187188015027,right,probe,biased-switch,-1,-20,left,left,0.245
SKL1994WRNO,2019-09-30-15-00-56,3,52,0.5161128644746317,right,both,biased-switch,97,-20,left,left,0.227
SKL1994WRNO,2019-09-30-15-00-56,3,53,0.5656679327646247,right,probe,ambiguous-switch,-1,10,left,left,0.277
SKL1994WRNO,2019-09-30-15-00-56,3,54,0.5130951729536701,right,both,ambiguous-switch,100,10,left,left,0.264
SKL1994WRNO,2019-09-30-15-00-56,3,55,0.6984450528883599,right,probe,biased-switch,-1,40,left,left,0.143
SKL1994WRNO,2019-09-30-15-00-56,3,56,0.639967226677863,right,both,biased-switch,106,40,left,left,0.299
SKL1994WRNO,2019-09-30-15-00-56,3,57,0.5190145607309724,left,probe,ambiguous-switch,-1,20,left,left,0.191
SKL1994WRNO,2019-09-30-15-00-56,3,58,0.6010749839840959,left,both,ambiguous-switch,94,20,left,left,0.155
SKL1994WRNO,2019-09-30-15-00-56,3,59,0.540377689361873,right,probe,biased-switch,-1,30,left,left,0.21
SKL1994WRNO,2019-09-30-15-00-56,3,60,0.5242386236950335,right,both,biased-switch,107,30,left,left,0.273
SKL1994WRNO,2019-09-30-15-00-56,3,61,0.5883226903049364,left,probe,biased-switch,-1,5,left,left,0.171
SKL1994WRNO,2019-09-30-15-00-56,3,62,0.6359545996196653,left,both,biased-switch,92,5,left,right,0.185
SKL1994WRNO,2019-09-30-15-00-56,3,63,0.6131331406644821,left,probe,biased-switch,-1,20,right,right,0.162
SKL1994WRNO,2019-09-30-15-00-56,3,64,0.5681701268752657,left,both,biased-switch,92,20,right,right,0.006
SKL1994WRNO,2019-09-30-15-00-56,3,65,0.5212682336443817,left,probe,ambiguous-switch,-1,-20,right,right,0.119
SKL1994WRNO,2019-09-30-15-00-56,3,66,0.5464418562316053,left,both,ambiguous-switch,97,-20,right,right,0.222
SKL1994WRNO,2019-09-30-15-00-56,3,67,0.5617854824298955,left,probe,biased-switch,-1,-10,right,right,0.155
SKL1994WRNO,2019-09-30-15-00-56,3,68,0.6400873119783993,left,both,biased-switch,106,-10,right,right,0.183
SKL1994WRNO,2019-09-30-15-00-56,3,69,0.6102436906266345,left,probe,ambiguous-switch,-1,-10,right,right,0.2
SKL1994WRNO,2019-09-30-15-00-56,3,70,0.6109872825960224,left,both,ambiguous-switch,104,-10,right,right,0.175
SKL1994WRNO,2019-09-30-15-00-56,3,71,0.5155351834458796,left,probe,biased-switch,-1,0,right,right,1.829
SKL1994WRNO,2019-09-30-15-00-56,3,72,0.693313351862004,left,both,biased-switch,103,0,right,right,0.203
SKL1994WRNO,2019-09-30-15-00-56,3,73,0.6108446191586734,left,probe,ambiguous-switch,-1,0,right,right,0.158
SKL1994WRNO,2019-09-30-15-00-56,3,74,0.5906776348337636,left,both,ambiguous-switch,94,0,right,right,0.207
SKL1994WRNO,2019-09-30-15-00-56,3,75,0.5450734415197814,left,probe,biased-switch,-1,-5,right,right,0.103
SKL1994WRNO,2019-09-30-15-00-56,3,76,0.5508653025784175,left,both,biased-switch,101,-5,right,right,0.17
SKL1994WRNO,2019-09-30-15-00-56,3,77,0.654720665250689,left,probe,ambiguous-switch,-1,-30,right,right,0.202
SKL1994WRNO,2019-09-30-15-00-56,3,78,0.6320078729092112,left,both,ambiguous-switch,109,-30,right,right,0.2
SKL1994WRNO,2019-09-30-15-00-56,3,79,0.6132640587778346,left,probe,biased-switch,-1,-30,right,right,0.191
SKL1994WRNO,2019-09-30-15-00-56,3,80,0.6524276121664513,left,both,biased-switch,105,-30,right,right,0.206
SKL1994WRNO,2019-09-30-15-00-56,4,1,0.5346325135092107,left,probe,biased-switch,-1,30,right,right,0.169
SKL1994WRNO,2019-09-30-15-00-56,4,2,0.6590134409944682,left,both,biased-switch,109,30,right,right,0.211
SKL1994WRNO,2019-09-30-15-00-56,4,3,0.6208312478094375,left,probe,ambiguous-switch,-1,-5,right,right,0.317
SKL1994WRNO,2019-09-30-15-00-56,4,4,0.5558885104200129,left,both,ambiguous-switch,97,-5,right,right,0.215
SKL1994WRNO,2019-09-30-15-00-56,4,5,0.5605377617423281,right,probe,biased-switch,-1,-30,right,right,0.253
SKL1994WRNO,2019-09-30-15-00-56,4,6,0.6243187560241147,right,both,biased-switch,94,-30,right,right,0.208
SKL1994WRNO,2019-09-30-15-00-56,4,7,0.6814594507720999,left,probe,ambiguous-switch,-1,-10,right,right,0.122
SKL1994WRNO,2019-09-30-15-00-56,4,8,0.5638156073813343,left,both,ambiguous-switch,101,-10,right,right,0.192
SKL1994WRNO,2019-09-30-15-00-56,4,9,0.5894791130470349,right,probe,ambiguous-switch,-1,40,right,right,0.148
SKL1994WRNO,2019-09-30-15-00-56,4,10,0.6936196338765229,right,both,ambiguous-switch,95,40,right,right,0.057
SKL1994WRNO,2019-09-30-15-00-56,4,11,0.5660493290989699,left,probe,biased-switch,-1,0,right,right,1.527
SKL1994WRNO,2019-09-30-15-00-56,4,12,0.6698095344186556,left,both,biased-switch,110,0,right,right,0.241
SKL1994WRNO,2019-09-30-15-00-56,4,13,0.6032848603616394,left,probe,ambiguous-switch,-1,-30,right,right,0.198
SKL1994WRNO,2019-09-30-15-00-56,4,14,0.6301426522385363,left,both,ambiguous-switch,98,-30,right,right,0.205
SKL1994WRNO,2019-09-30-15-00-56,4,15,0.6688059112187615,right,probe,ambiguous-switch,-1,0,right,right,0.208
SKL1994WRNO,2019-09-30-15-00-56,4,16,0.5443100083747412,right,both,ambiguous-switch,101,0,right,right,0.199
SKL1994WRNO,2019-09-30-15-00-56,4,17,0.6382959944312817,right,probe,biased-switch,-1,40,right,right,0.248
SKL1994WRNO,2019-09-30-15-00-56,4,18,0.6203057801068254,right,both,biased-switch,97,40,right,right,0.225
SKL1994WRNO,2019-09-30-15-00-56,4,19,0.6486937802046144,right,probe,biased-switch,-1,10,right,right,0.211
SKL1994WRNO,2019-09-30-15-00-56,4,20,0.5751497316625477,right,both,biased-switch,93,10,right,right,0.231
SKL1994WRNO,2019-09-30-15-00-56,4,21,0.6497553737637243,left,probe,biased-switch,-1,-5,right,right,0.214
SKL1994WRNO,2019-09-30-15-00-56,4,22,0.5793976031115106,left,both,biased-switch,101,-5,right,right,0.229
SKL1994WRNO,2019-09-30-15-00-56,4,23,0.6483935019769493,left,probe,biased-switch,-1,5,right,right,0.209
SKL1994WRNO,2019-09-30-15-00-56,4,24,0.6752709582225762,left,both,biased-switch,94,5,right,left,0.234
SKL1994WRNO,2019-09-30-15-00-56,4,25,0.6679355900798812,right,probe,biased-switch,-1,-20,right,right,0.202
SKL1994WRNO,2019-09-30-15-00-56,4,26,0.581768807394742,right,both,biased-switch,104,-20,right,right,0.167
SKL1994WRNO,2019-09-30-15-00-56,4,27,0.5644485428968689,right,probe,ambiguous-switch,-1,10,right,right,0.17
SKL1994WRNO,2019-09-30-15-00-56,4,28,0.5490923453289186,right,both,ambiguous-switch,96,10,right,left,0.129
SKL1994WRNO,2019-09-30-15-00-56,4,29,0.6583896081220536,left,probe,biased-switch,-1,-10,right,right,0.199
SKL1994WRNO,2019-09-30-15-00-56,4,30,0.6297231636758519,left,both,biased-switch,95,-10,right,right,0.076
SKL1994WRNO,2019-09-30-15-00-56,4,31,0.6326826653483625,left,probe,ambiguous-switch,-1,5,right,right,0.036
SKL1994WRNO,2019-09-30-15-00-56,4,32,0.6281221898322269,left,both,ambiguous-switch,107,5,right,right,0.168
SKL1994WRNO,2019-09-30-15-00-56,4,33,0.5196555075903908,right,probe,ambiguous-switch,-1,-20,right,right,0.197
SKL1994WRNO,2019-09-30-15-00-56,4,34,0.6007321672958024,right,both,ambiguous-switch,106,-20,right,right,0.277
SKL1994WRNO,2019-09-30-15-00-56,4,35,0.6057814770850852,right,probe,biased-switch,-1,20,right,right,0.222
SKL1994WRNO,2019-09-30-15-00-56,4,36,0.5688872224370178,right,both,biased-switch,105,20,right,left,0.206
SKL1994WRNO,2019-09-30-15-00-56,4,37,0.6300320268141707,right,probe,ambiguous-switch,-1,20,left,left,0.197
SKL1994WRNO,2019-09-30-15-00-56,4,38,0.6456185308539346,right,both,ambiguous-switch,96,20,left,left,0.212
SKL1994WRNO,2019-09-30-15-00-56,4,39,0.5546054542807111,left,probe,ambiguous-switch,-1,30,right,right,0.189
SKL1994WRNO,2019-09-30-15-00-56,4,40,0.6429957100521785,left,both,ambiguous-switch,105,30,right,right,0.278
SKL1994WRNO,2019-09-30-15-00-56,4,41,0.6333412093368057,right,probe,biased-switch,-1,30,left,left,0.205
SKL1994WRNO,2019-09-30-15-00-56,4,42,0.6258778140729878,right,both,biased-switch,91,30,left,left,0.22
SKL1994WRNO,2019-09-30-15-00-56,4,43,0.6655808930803251,left,probe,ambiguous-switch,-1,-5,right,right,0.231
SKL1994WRNO,2019-09-30-15-00-56,4,44,0.6303672983361279,left,both,ambiguous-switch,95,-5,right,right,0.221
SKL1994WRNO,2019-09-30-15-00-56,4,45,0.6378182522585999,right,probe,biased-switch,-1,-30,right,right,0.199
SKL1994WRNO,2019-09-30-15-00-56,4,46,0.5130474055090631,right,both,biased-switch,92,-30,right,left,0.214
SKL1994WRNO,2019-09-30-15-00-56,4,47,0.5308232056258707,right,probe,ambiguous-switch,-1,-10,left,left,0.21
SKL1994WRNO,2019-09-30-15-00-56,4,48,0.6607085149706543,right,both,ambiguous-switch,101,-10,left,left,0.257
SKL1994WRNO,2019-09-30-15-00-56,4,49,0.6494526428566357,left,probe,ambiguous-switch,-1,40,right,right,0.276
SKL1994WRNO,2019-09-30-15-00-56,4,50,0.5660550728606001,left,both,ambiguous-switch,96,40,right,right,0.236
SKL1994WRNO,2019-09-30-15-00-56,4,51,0.5963669027613281,right,probe,biased-switch,-1,0,left,left,0.194
SKL1994WRNO,2019-09-30-15-00-56,4,52,0.6903010766752364,right,both,biased-switch,102,0,left,left,0.224
SKL1994WRNO,2019-09-30-15-00-56,4,53,0.5560742097757722,right,probe,ambiguous-switch,-1,-30,left,left,0.154
SKL1994WRNO,2019-09-30-15-00-56,4,54,0.597003336352731,right,both,ambiguous-switch,100,-30,left,left,0.159
SKL1994WRNO,2019-09-30-15-00-56,4,55,0.6051423778029016,right,probe,ambiguous-switch,-1,0,left,left,0.227
SKL1994WRNO,2019-09-30-15-00-56,4,56,0.6467908927646757,right,both,ambiguous-switch,101,0,left,left,0.123
SKL1994WRNO,2019-09-30-15-00-56,4,57,0.6301385393685721,left,probe,biased-switch,-1,40,left,left,0.186
SKL1994WRNO,2019-09-30-15-00-56,4,58,0.5560198747661133,left,both,biased-switch,103,40,left,right,0.21
SKL1994WRNO,2019-09-30-15-00-56,4,59,0.628524432385474,left,probe,biased-switch,-1,10,right,right,0.052
SKL1994WRNO,2019-09-30-15-00-56,4,60,0.679408995866609,left,both,biased-switch,93,10,right,left,0.204
SKL1994WRNO,2019-09-30-15-00-56,4,61,0.6979507882399814,left,probe,biased-switch,-1,-5,left,left,0.181
SKL1994WRNO,2019-09-30-15-00-56,4,62,0.5381546989988749,left,both,biased-switch,95,-5,left,right,0.206
SKL1994WRNO,2019-09-30-15-00-56,4,63,0.5671282880215344,right,probe,biased-switch,-1,5,left,left,0.176
SKL1994WRNO,2019-09-30-15-00-56,4,64,0.6791247757809146,right,both,biased-switch,94,5,left,right,0.205
SKL1994WRNO,2019-09-30-15-00-56,4,65,0.5937670100059164,left,probe,biased-switch,-1,-20,right,right,0.164
SKL1994WRNO,2019-09-30-15-00-56,4,66,0.6781045409860844,left,both,biased-switch,91,-20,right,right,0.187
SKL1994WRNO,2019-09-30-15-00-56,4,67,0.608256765075171,left,probe,ambiguous-switch,-1,10,right,right,0.144
SKL1994WRNO,2019-09-30-15-00-56,4,68,0.5409653710529131,left,both,ambiguous-switch,97,10,right,right,0.106
SKL1994WRNO,2019-09-30-15-00-56,4,69,0.5592242788680382,left,probe,biased-switch,-1,-10,right,right,0.128
SKL1994WRNO,2019-09-30-15-00-56,4,70,0.5451696675139343,left,both,biased-switch,109,-10,right,right,0.203
SKL1994WRNO,2019-09-30-15-00-56,4,71,0.541240554055934,left,probe,ambiguous-switch,-1,5,right,right,0.155
SKL1994WRNO,2019-09-30-15-00-56,4,72,0.5731533133729761,left,both,ambiguous-switch,99,5,right,right,0.2
SKL1994WRNO,2019-09-30-15-00-56,4,73,0.6037159771401172,right,probe,ambiguous-switch,-1,-20,right,right,0.085
SKL1994WRNO,2019-09-30-15-00-56,4,74,0.5029800585552087,right,both,ambiguous-switch,94,-20,right,right,0.198
SKL1994WRNO,2019-09-30-15-00-56,4,75,0.5378993904465066,left,probe,biased-switch,-1,20,right,right,0.246
SKL1994WRNO,2019-09-30-15-00-56,4,76,0.5310295244137394,left,both,biased-switch,105,20,right,right,0.21
SKL1994WRNO,2019-09-30-15-00-56,4,77,0.5219686850043918,right,probe,ambiguous-switch,-1,20,right,right,0.164
SKL1994WRNO,2019-09-30-15-00-56,4,78,0.65083323874225,right,both,ambiguous-switch,103,20,right,left,0.177
SKL1994WRNO,2019-09-30-15-00-56,4,79,0.6489780440937344,right,probe,ambiguous-switch,-1,30,left,left,0.242
SKL1994WRNO,2019-09-30-15-00-56,4,80,0.5905943767786831,right,both,ambiguous-switch,101,30,left,left,0.162
SKL1994WRNO,2019-09-30-15-00-56,5,1,0.6476300795789618,right,probe,biased-switch,-1,-20,right,right,0.248
SKL1994WRNO,2019-09-30-15-00-56,5,2,0.5328921698044079,right,both,biased-switch,105,-20,right,right,0.172
SKL1994WRNO,2019-09-30-15-00-56,5,3,0.5735383308569564,left,probe,biased-switch,-1,10,right,right,0.019
SKL1994WRNO,2019-09-30-15-00-56,5,4,0.5309723935428898,left,both,biased-switch,90,10,right,right,0.184
SKL1994WRNO,2019-09-30-15-00-56,5,5,0.6487413886724647,left,probe,ambiguous-switch,-1,0,right,right,1.93
SKL1994WRNO,2019-09-30-15-00-56,5,6,0.5402417476569792,left,both,ambiguous-switch,102,0,right,right,0.208
SKL1994WRNO,2019-09-30-15-00-56,5,7,0.6355243967932482,left,probe,ambiguous-switch,-1,5,right,right,0.221
SKL1994WRNO,2019-09-30-15-00-56,5,8,0.5158170612260241,left,both,ambiguous-switch,104,5,right,right,0.081
SKL1994WRNO,2019-09-30-15-00-56,5,9,0.6632342312967999,right,probe,biased-switch,-1,-10,right,right,0.163
SKL1994WRNO,2019-09-30-15-00-56,5,10,0.5061129540219953,right,both,biased-switch,93,-10,right,right,0.155
SKL1994WRNO,2019-09-30-15-00-56,5,11,0.5389256152812526,right,probe,ambiguous-switch,-1,-30,right,right,0.148
SKL1994WRNO,2019-09-30-15-00-56,5,12,0.5987520491289827,right,both,ambiguous-switch,93,-30,right,right,0.131
SKL1994WRNO,2019-09-30-15-00-56,5,13,0.6115730454012852,right,probe,ambiguous-switch,-1,-5,right,right,0.079
SKL1994WRNO,2019-09-30-15-00-56,5,14,0.5762696525756346,right,both,ambiguous-switch,105,-5,right,right,0.167
SKL1994WRNO,2019-09-30-15-00-56,5,15,0.5467623104694243,right,probe,ambiguous-switch,-1,30,right,right,0.075
SKL1994WRNO,2019-09-30-15-00-56,5,16,0.5251661278587675,right,both,ambiguous-switch,108,30,right,right,0.085
SKL1994WRNO,2019-09-30-15-00-56,5,17,0.5457133646408268,left,probe,biased-switch,-1,-30,right,right,0.054
SKL1994WRNO,2019-09-30-15-00-56,5,18,0.5723830449466852,left,both,biased-switch,103,-30,right,right,0.207
SKL1994WRNO,2019-09-30-15-00-56,5,19,0.5442861146350271,left,probe,ambiguous-switch,-1,-20,right,right,0.108
SKL1994WRNO,2019-09-30-15-00-56,5,20,0.5384802394443552,left,both,ambiguous-switch,91,-20,right,right,0.158
SKL1994WRNO,2019-09-30-15-00-56,5,21,0.6104953237471021,right,probe,biased-switch,-1,40,right,right,0.105
SKL1994WRNO,2019-09-30-15-00-56,5,22,0.6373566611018577,right,both,biased-switch,109,40,right,left,0.204
SKL1994WRNO,2019-09-30-15-00-56,5,23,0.6532611161191523,left,probe,biased-switch,-1,30,right,right,0.301
SKL1994WRNO,2019-09-30-15-00-56,5,24,0.5332182634433041,left,both,biased-switch,97,30,right,right,1.09
SKL1994WRNO,2019-09-30-15-00-56,5,25,0.6827562735575717,right,probe,ambiguous-switch,-1,10,left,left,2.165
SKL1994WRNO,2019-09-30-15-00-56,5,26,0.6383005797891491,right,both,ambiguous-switch,91,10,left,left,0.248
SKL1994WRNO,2019-09-30-15-00-56,5,27,0.5547981046945246,left,probe,biased-switch,-1,-5,right,right,0.172
SKL1994WRNO,2019-09-30-15-00-56,5,28,0.6255241501741915,left,both,biased-switch,96,-5,right,right,0.313
SKL1994WRNO,2019-09-30-15-00-56,5,29,0.5742129227582456,left,probe,ambiguous-switch,-1,-10,right,right,0.986
SKL1994WRNO,2019-09-30-15-00-56,5,30,0.6627626696976399,left,both,ambiguous-switch,93,-10,right,right,0.229
SKL1994WRNO,2019-09-30-15-00-56,5,31,0.6069690482306305,left,probe,biased-switch,-1,0,right,right,0.17
SKL1994WRNO,2019-09-30-15-00-56,5,32,0.5346271762271914,left,both,biased-switch,102,0,right,right,0.203
SKL1994WRNO,2019-09-30-15-00-56,5,33,0.5757056125923057,right,probe,ambiguous-switch,-1,20,right,right,0.189
SKL1994WRNO,2019-09-30-15-00-56,5,34,0.679063402904178,right,both,ambiguous-switch,97,20,right,right,0.189
SKL1994WRNO,2019-09-30-15-00-56,5,35,0.5514979745406201,left,probe,ambiguous-switch,-1,40,right,right,0.202
SKL1994WRNO,2019-09-30-15-00-56,5,36,0.5936847093685934,left,both,ambiguous-switch,109,40,right,right,0.175
SKL1994WRNO,2019-09-30-15-00-56,5,37,0.581361545939723,left,probe,biased-switch,-1,20,right,right,0.213
SKL1994WRNO,2019-09-30-15-00-56,5,38,0.574092962432163,left,both,biased-switch,92,20,right,right,0.193
SKL1994WRNO,2019-09-30-15-00-56,5,39,0.5349277888228872,left,probe,biased-switch,-1,5,right,right,0.205
SKL1994WRNO,2019-09-30-15-00-56,5,40,0.6871444371331663,left,both,biased-switch,103,5,right,right,0.421
SKL1994WRNO,2019-09-30-15-00-56,5,41,0.6516053235315116,right,probe,biased-switch,-1,-20,left,left,0.404
SKL1994WRNO,2019-09-30-15-00-56,5,42,0.5284613887988501,right,both,biased-switch,100,-20,left,left,0.268
SKL1994WRNO,2019-09-30-15-00-56,5,43,0.665174729659872,right,probe,biased-switch,-1,10,left,left,0.145
SKL1994WRNO,2019-09-30-15-00-56,5,44,0.5955560666631909,right,both,biased-switch,96,10,left,left,0.276
SKL1994WRNO,2019-09-30-15-00-56,5,45,0.5789101757854379,left,probe,ambiguous-switch,-1,0,right,right,0.185
SKL1994WRNO,2019-09-30-15-00-56,5,46,0.6576599174878518,left,both,ambiguous-switch,106,0,right,right,0.34
SKL1994WRNO,2019-09-30-15-00-56,5,47,0.5931800581232075,left,probe,ambiguous-switch,-1,5,right,right,0.185
SKL1994WRNO,2019-09-30-15-00-56,5,48,0.5360544307422745,left,both,ambiguous-switch,109,5,right,left,0.02
SKL1994WRNO,2019-09-30-15-00-56,5,49,0.6358829839166189,right,probe,biased-switch,-1,-10,left,left,0.225
SKL1994WRNO,2019-09-30-15-00-56,5,50,0.6742894052460707,right,both,biased-switch,93,-10,left,left,0.19
SKL1994WRNO,2019-09-30-15-00-56,5,51,0.5181150872428535,right,probe,ambiguous-switch,-1,-30,left,left,0.274
SKL1994WRNO,2019-09-30-15-00-56,5,52,0.556664117186791,right,both,ambiguous-switch,108,-30,left,left,0.209
SKL1994WRNO,2019-09-30-15-00-56,5,53,0.545896908411117,left,probe,ambiguous-switch,-1,-5,left,left,0.171
SKL1994WRNO,2019-09-30-15-00-56,5,54,0.6600125055729943,left,both,ambiguous-switch,93,-5,left,left,0.184
SKL1994WRNO,2019-09-30-15-00-56,5,55,0.5774492853441598,right,probe,ambiguous-switch,-1,30,left,left,0.174
SKL1994WRNO,2019-09-30-15-00-56,5,56,0.5962336737533521,right,both,ambiguous-switch,101,30,left,left,0.128
SKL1994WRNO,2019-09-30-15-00-56,5,57,0.6392328636474875,left,probe,biased-switch,-1,-30,left,left,0.223
SKL1994WRNO,2019-09-30-15-00-56,5,58,0.5449398264891308,left,both,biased-switch,94,-30,left,left,0.259
SKL1994WRNO,2019-09-30-15-00-56,5,59,0.5854669720389197,left,probe,ambiguous-switch,-1,-20,left,left,0.19
SKL1994WRNO,2019-09-30-15-00-56,5,60,0.5379358112419084,left,both,ambiguous-switch,101,-20,left,left,0.176
SKL1994WRNO,2019-09-30-15-00-56,5,61,0.6436559806803652,right,probe,biased-switch,-1,40,left,left,0.198
SKL1994WRNO,2019-09-30-15-00-56,5,62,0.6667903877554043,right,both,biased-switch,97,40,left,left,0.409
SKL1994WRNO,2019-09-30-15-00-56,5,63,0.6258960560404024,right,probe,biased-switch,-1,30,left,left,0.236
SKL1994WRNO,2019-09-30-15-00-56,5,64,0.545483905635982,right,both,biased-switch,96,30,left,left,0.205
SKL1994WRNO,2019-09-30-15-00-56,5,65,0.6964886793775251,left,probe,ambiguous-switch,-1,10,left,left,0.205
SKL1994WRNO,2019-09-30-15-00-56,5,66,0.5468408907650235,left,both,ambiguous-switch,107,10,left,left,0.198
SKL1994WRNO,2019-09-30-15-00-56,5,67,0.6843830839088384,left,probe,biased-switch,-1,-5,left,left,0.186
SKL1994WRNO,2019-09-30-15-00-56,5,68,0.619057887660251,left,both,biased-switch,100,-5,left,left,0.202
SKL1994WRNO,2019-09-30-15-00-56,5,69,0.672061547669139,left,probe,ambiguous-switch,-1,-10,left,left,0.078
SKL1994WRNO,2019-09-30-15-00-56,5,70,0.661649572039292,left,both,ambiguous-switch,101,-10,left,left,0.211
SKL1994WRNO,2019-09-30-15-00-56,5,71,0.5729372604066983,left,probe,biased-switch,-1,0,left,left,0.193
SKL1994WRNO,2019-09-30-15-00-56,5,72,0.6277002947811875,left,both,biased-switch,98,0,left,left,0.192
SKL1994WRNO,2019-09-30-15-00-56,5,73,0.5910095243858103,right,probe,ambiguous-switch,-1,20,left,left,0.255
SKL1994WRNO,2019-09-30-15-00-56,5,74,0.5025389131348501,right,both,ambiguous-switch,105,20,left,left,0.237
SKL1994WRNO,2019-09-30-15-00-56,5,75,0.5478584317226649,right,probe,ambiguous-switch,-1,40,left,left,0.174
SKL1994WRNO,2019-09-30-15-00-56,5,76,0.5290320776737858,right,both,ambiguous-switch,94,40,left,left,0.156
SKL1994WRNO,2019-09-30-15-00-56,5,77,0.6342387586436633,left,probe,biased-switch,-1,20,left,left,0.177
SKL1994WRNO,2019-09-30-15-00-56,5,78,0.5817745470141034,left,both,biased-switch,91,20,left,left,0.223
SKL1994WRNO,2019-09-30-15-00-56,5,79,0.6297278976851607,right,probe,biased-switch,-1,5,left,left,0.226
SKL1994WRNO,2019-09-30-15-00-56,5,80,0.6006937368032679,right,both,biased-switch,92,5,left,left,0.233
SKL1994WRNO,2019-09-30-15-00-56,6,1,0.5580027611104867,right,probe,ambiguous-switch,-1,-10,right,right,0.319
SKL1994WRNO,2019-09-30-15-00-56,6,2,0.6471757671622619,right,both,ambiguous-switch,99,-10,right,left,0.232
SKL1994WRNO,2019-09-30-15-00-56,6,3,0.6132454639485247,left,probe,ambiguous-switch,-1,-30,right,right,0.202
SKL1994WRNO,2019-09-30-15-00-56,6,4,0.5946825559524349,left,both,ambiguous-switch,97,-30,right,right,0.202
SKL1994WRNO,2019-09-30-15-00-56,6,5,0.6911151030386088,left,probe,ambiguous-switch,-1,40,right,right,0.191
SKL1994WRNO,2019-09-30-15-00-56,6,6,0.5405213292917381,left,both,ambiguous-switch,92,40,right,right,0.066
SKL1994WRNO,2019-09-30-15-00-56,6,7,0.5528867189364849,right,probe,ambiguous-switch,-1,-5,left,left,0.163
SKL1994WRNO,2019-09-30-15-00-56,6,8,0.6599332102530334,right,both,ambiguous-switch,109,-5,left,left,0.305
SKL1994WRNO,2019-09-30-15-00-56,6,9,0.5356523647769089,right,probe,ambiguous-switch,-1,30,left,left,0.174
SKL1994WRNO,2019-09-30-15-00-56,6,10,0.5208473461809121,right,both,ambiguous-switch,109,30,left,left,0.212
SKL1994WRNO,2019-09-30-15-00-56,6,11,0.6526689676612506,right,probe,biased-switch,-1,-20,left,left,0.193
SKL1994WRNO,2019-09-30-15-00-56,6,12,0.6006588642656584,right,both,biased-switch,99,-20,left,left,0.188
SKL1994WRNO,2019-09-30-15-00-56,6,13,0.5574308487915679,right,probe,biased-switch,-1,10,left,left,0.192
SKL1994WRNO,2019-09-30-15-00-56,6,14,0.6975750762396629,right,both,biased-switch,93,10,left,left,0.193
SKL1994WRNO,2019-09-30-15-00-56,6,15,0.6546882282441286,right,probe,biased-switch,-1,30,left,left,0.165
SKL1994WRNO,2019-09-30-15-00-56,6,16,0.5592359852222402,right,both,biased-switch,100,30,left,left,0.193
SKL1994WRNO,2019-09-30-15-00-56,6,17,0.523742457914901,left,probe,biased-switch,-1,20,right,right,0.2
SKL1994WRNO,2019-09-30-15-00-56,6,18,0.5938202575078775,left,both,biased-switch,95,20,right,right,0.208
SKL1994WRNO,2019-09-30-15-00-56,6,19,0.6591725614493138,right,probe,ambiguous-switch,-1,0,left,left,0.217
SKL1994WRNO,2019-09-30-15-00-56,6,20,0.6919651798253732,right,both,ambiguous-switch,106,0,left,left,0.201
SKL1994WRNO,2019-09-30-15-00-56,6,21,0.5854150618182747,left,probe,ambiguous-switch,-1,20,right,right,0.22
SKL1994WRNO,2019-09-30-15-00-56,6,22,0.6160689597870341,left,both,ambiguous-switch,109,20,right,right,0.181
SKL1994WRNO,2019-09-30-15-00-56,6,23,0.5871951790050002,right,probe,ambiguous-switch,-1,10,left,left,0.171
SKL1994WRNO,2019-09-30-15-00-56,6,24,0.6176570366995859,right,both,ambiguous-switch,106,10,left,left,0.189
SKL1994WRNO,2019-09-30-15-00-56,6,25,0.6610590995819579,left,probe,biased-switch,-1,-10,right,right,0.188
SKL1994WRNO,2019-09-30-15-00-56,6,26,0.6944283327344674,left,both,biased-switch,97,-10,right,right,0.192
SKL1994WRNO,2019-09-30-15-00-56,6,27,0.6205132046476506,right,probe,biased-switch,-1,40,left,left,0.19
SKL1994WRNO,2019-09-30-15-00-56,6,28,0.6220260310474356,right,both,biased-switch,106,40,left,left,0.167
SKL1994WRNO,2019-09-30-15-00-56,6,29,0.6899985601078946,right,probe,ambiguous-switch,-1,-20,left,left,0.226
SKL1994WRNO,2019-09-30-15-00-56,6,30,0.6636409213549509,right,both,ambiguous-switch,100,-20,left,left,0.159
SKL1994WRNO,2019-09-30-15-00-56,6,31,0.5594589459351295,right,probe,biased-switch,-1,-5,left,left,0.273
SKL1994WRNO,2019-09-30-15-00-56,6,32,0.6589588088979449,right,both,biased-switch,90,-5,left,left,0.169
SKL1994WRNO,2019-09-30-15-00-56,6,33,0.5527004844925992,right,probe,biased-switch,-1,5,left,left,0.222
SKL1994WRNO,2019-09-30-15-00-56,6,34,0.696657957562936,right,both,biased-switch,97,5,left,left,0.201
SKL1994WRNO,2019-09-30-15-00-56,6,35,0.6426865906495585,right,probe,biased-switch,-1,0,left,left,0.198
SKL1994WRNO,2019-09-30-15-00-56,6,36,0.6307964024124366,right,both,biased-switch,94,0,left,left,0.007
SKL1994WRNO,2019-09-30-15-00-56,6,37,0.629297028455112,left,probe,ambiguous-switch,-1,5,left,left,0.156
SKL1994WRNO,2019-09-30-15-00-56,6,38,0.6624222781030148,left,both,ambiguous-switch,99,5,left,left,0.228
SKL1994WRNO,2019-09-30-15-00-56,6,39,0.6649617094621729,left,probe,biased-switch,-1,-30,left,left,0.182
SKL1994WRNO,2019-09-30-15-00-56,6,40,0.5023645130091035,left,both,biased-switch,96,-30,left,left,0.165
SKL1994WRNO,2019-09-30-15-00-56,6,41,0.668371823598106,right,probe,ambiguous-switch,-1,-10,left,left,0.246
SKL1994WRNO,2019-09-30-15-00-56,6,42,0.5479349859076341,right,both,ambiguous-switch,109,-10,left,left,0.178
SKL1994WRNO,2019-09-30-15-00-56,6,43,0.5908454699022775,left,probe,ambiguous-switch,-1,-30,left,left,0.205
SKL1994WRNO,2019-09-30-15-00-56,6,44,0.5362285931154218,left,both,ambiguous-switch,97,-30,left,left,0.207
SKL1994WRNO,2019-09-30-15-00-56,6,45,0.6024747726497068,right,probe,ambiguous-switch,-1,40,left,left,0.19
SKL1994WRNO,2019-09-30-15-00-56,6,46,0.6830429418886741,right,both,ambiguous-switch,99,40,left,left,0.167
SKL1994WRNO,2019-09-30-15-00-56,6,47,0.5117806214911985,left,probe,ambiguous-switch,-1,-5,left,left,0.18
SKL1994WRNO,2019-09-30-15-00-56,6,48,0.5303115162901502,left,both,ambiguous-switch,101,-5,left,left,0.154
SKL1994WRNO,2019-09-30-15-00-56,6,49,0.6705190447755077,right,probe,ambiguous-switch,-1,30,left,left,0.239
SKL1994WRNO,2019-09-30-15-00-56,6,50,0.5529359867384234,right,both,ambiguous-switch,101,30,left,left,0.206
SKL1994WRNO,2019-09-30-15-00-56,6,51,0.5615483856452275,right,probe,biased-switch,-1,-20,left,left,0.2
SKL1994WRNO,2019-09-30-15-00-56,6,52,0.5044219861138022,right,both,biased-switch,90,-20,left,left,0.22
SKL1994WRNO,2019-09-30-15-00-56,6,53,0.6006910212590776,left,probe,biased-switch,-1,10,left,left,0.182
SKL1994WRNO,2019-09-30-15-00-56,6,54,0.5495547180135775,left,both,biased-switch,93,10,left,right,0.288
SKL1994WRNO,2019-09-30-15-00-56,6,55,0.5908389497793782,right,probe,biased-switch,-1,30,left,left,0.183
SKL1994WRNO,2019-09-30-15-00-56,6,56,0.6689852329664829,right,both,biased-switch,110,30,left,left,0.196
SKL1994WRNO,2019-09-30-15-00-56,6,57,0.6588345848309817,left,probe,biased-switch,-1,20,left,left,0.208
SKL1994WRNO,2019-09-30-15-00-56,6,58,0.5175886786026507,left,both,biased-switch,107,20,left,right,0.209
SKL1994WRNO,2019-09-30-15-00-56,6,59,0.5637520060587666,left,probe,ambiguous-switch,-1,0,right,right,0.166
SKL1994WRNO,2019-09-30-15-00-56,6,60,0.5383155626326631,left,both,ambiguous-switch,99,0,right,right,0.183
SKL1994WRNO,2019-09-30-15-00-56,6,61,0.6303144035390424,left,probe,ambiguous-switch,-1,20,right,right,0.175
SKL1994WRNO,2019-09-30-15-00-56,6,62,0.5106231699567794,left,both,ambiguous-switch,97,20,right,right,0.181
SKL1994WRNO,2019-09-30-15-00-56,6,63,0.519145691826035,right,probe,ambiguous-switch,-1,10,left,left,0.23
SKL1994WRNO,2019-09-30-15-00-56,6,64,0.6442932691076024,right,both,ambiguous-switch,102,10,left,left,0.208
SKL1994WRNO,2019-09-30-15-00-56,6,65,0.6647891730862856,right,probe,biased-switch,-1,-10,left,left,0.142
SKL1994WRNO,2019-09-30-15-00-56,6,66,0.6121816390010743,right,both,biased-switch,105,-10,left,left,0.13
SKL1994WRNO,2019-09-30-15-00-56,6,67,0.5060858217144073,left,probe,biased-switch,-1,40,right,right,0.098
SKL1994WRNO,2019-09-30-15-00-56,6,68,0.6759222979836454,left,both,biased-switch,106,40,right,right,0.261
SKL1994WRNO,2019-09-30-15-00-56,6,69,0.6377684584449679,left,probe,ambiguous-switch,-1,-20,right,right,0.179
SKL1994WRNO,2019-09-30-15-00-56,6,70,0.5859118810396662,left,both,ambiguous-switch,101,-20,right,right,0.194
SKL1994WRNO,2019-09-30-15-00-56,6,71,0.5093659884202717,right,probe,biased-switch,-1,-5,right,right,0.19
SKL1994WRNO,2019-09-30-15-00-56,6,72,0.5670948773353226,right,both,biased-switch,101,-5,right,right,0.202
SKL1994WRNO,2019-09-30-15-00-56,6,73,0.6571248487404906,right,probe,biased-switch,-1,5,right,right,0.309
SKL1994WRNO,2019-09-30-15-00-56,6,74,0.6835594013243336,right,both,biased-switch,100,5,right,left,0.216
SKL1994WRNO,2019-09-30-15-00-56,6,75,0.6406804818743168,left,probe,biased-switch,-1,0,right,right,0.217
SKL1994WRNO,2019-09-30-15-00-56,6,76,0.6895812224968928,left,both,biased-switch,107,0,right,right,0.161
SKL1994WRNO,2019-09-30-15-00-56,6,77,0.696126500829789,left,probe,ambiguous-switch,-1,5,right,right,0.114
SKL1994WRNO,2019-09-30-15-00-56,6,78,0.6988163966893188,left,both,ambiguous-switch,101,5,right,right,0.184
SKL1994WRNO,2019-09-30-15-00-56,6,79,0.6157508285493064,right,probe,biased-switch,-1,-30,right,right,0.231
SKL1994WRNO,2019-09-30-15-00-56,6,80,0.5353544332450441,right,both,biased-switch,96,-30,right,right,1.443
SKL1994WRNO,2019-09-30-15-00-56,7,1,0.6951092444267633,left,probe,ambiguous-switch,-1,0,right,right,0.353
SKL1994WRNO,2019-09-30-15-00-56,7,2,0.6347449726213057,left,both,ambiguous-switch,98,0,right,right,0.197
SKL1994WRNO,2019-09-30-15-00-56,7,3,0.5370344520461422,right,probe,biased-switch,-1,-5,right,right,0.184
SKL1994WRNO,2019-09-30-15-00-56,7,4,0.5742480685416329,right,both,biased-switch,95,-5,right,right,0.198
SKL1994WRNO,2019-09-30-15-00-56,7,5,0.5752493855744356,right,probe,biased-switch,-1,30,right,right,0.013
SKL1994WRNO,2019-09-30-15-00-56,7,6,0.5461602457168799,right,both,biased-switch,90,30,right,right,0.152
SKL1994WRNO,2019-09-30-15-00-56,7,7,0.6090807205305837,left,probe,biased-switch,-1,-20,right,right,0.227
SKL1994WRNO,2019-09-30-15-00-56,7,8,0.5454640197552952,left,both,biased-switch,102,-20,right,right,0.215
SKL1994WRNO,2019-09-30-15-00-56,7,9,0.6475562125421667,left,probe,ambiguous-switch,-1,10,right,right,0.15
SKL1994WRNO,2019-09-30-15-00-56,7,10,0.6021612999197817,left,both,ambiguous-switch,92,10,right,right,1.181
SKL1994WRNO,2019-09-30-15-00-56,7,11,0.6503858615570159,left,probe,biased-switch,-1,5,right,right,0.2
SKL1994WRNO,2019-09-30-15-00-56,7,12,0.5547085601575849,left,both,biased-switch,107,5,right,right,0.197
SKL1994WRNO,2019-09-30-15-00-56,7,13,0.5619448256683929,left,probe,biased-switch,-1,-10,right,right,0.222
SKL1994WRNO,2019-09-30-15-00-56,7,14,0.6017885011539122,left,both,biased-switch,106,-10,right,right,0.234
SKL1994WRNO,2019-09-30-15-00-56,7,15,0.6693128072551724,right,probe,ambiguous-switch,-1,40,right,right,0.193
SKL1994WRNO,2019-09-30-15-00-56,7,16,0.6853388113656972,right,both,ambiguous-switch,101,40,right,right,0.038
SKL1994WRNO,2019-09-30-15-00-56,7,17,0.5390183647934621,left,probe,biased-switch,-1,40,right,right,0.197
SKL1994WRNO,2019-09-30-15-00-56,7,18,0.5982918139271222,left,both,biased-switch,97,40,right,right,0.2
SKL1994WRNO,2019-09-30-15-00-56,7,19,0.6705432933885649,right,probe,biased-switch,-1,20,right,right,0.196
SKL1994WRNO,2019-09-30-15-00-56,7,20,0.628985407679384,right,both,biased-switch,90,20,right,right,0.199
SKL1994WRNO,2019-09-30-15-00-56,7,21,0.6584647072410278,left,probe,ambiguous-switch,-1,-5,right,right,0.126
SKL1994WRNO,2019-09-30-15-00-56,7,22,0.5190475753900103,left,both,ambiguous-switch,96,-5,right,right,0.073
SKL1994WRNO,2019-09-30-15-00-56,7,23,0.5278442790059693,right,probe,ambiguous-switch,-1,20,right,right,0.167
SKL1994WRNO,2019-09-30-15-00-56,7,24,0.5505676935486398,right,both,ambiguous-switch,106,20,right,right,0.199
SKL1994WRNO,2019-09-30-15-00-56,7,25,0.6601649464473949,right,probe,ambiguous-switch,-1,-10,right,right,0.138
SKL1994WRNO,2019-09-30-15-00-56,7,26,0.6416343676860674,right,both,ambiguous-switch,94,-10,right,right,0.181
SKL1994WRNO,2019-09-30-15-00-56,7,27,0.5918896774527929,left,probe,biased-switch,-1,-30,right,right,0.197
SKL1994WRNO,2019-09-30-15-00-56,7,28,0.6472782977805857,left,both,biased-switch,107,-30,right,right,0.191
SKL1994WRNO,2019-09-30-15-00-56,7,29,0.5637017698415783,right,probe,biased-switch,-1,10,right,right,0.057
SKL1994WRNO,2019-09-30-15-00-56,7,30,0.6433957928193651,right,both,biased-switch,104,10,right,left,0.211
SKL1994WRNO,2019-09-30-15-00-56,7,31,0.5502907225613385,right,probe,ambiguous-switch,-1,30,left,left,0.204
SKL1994WRNO,2019-09-30-15-00-56,7,32,0.509838023210484,right,both,ambiguous-switch,91,30,left,right,0.195
SKL1994WRNO,2019-09-30-15-00-56,7,33,0.6010586930094698,right,probe,ambiguous-switch,-1,-20,right,right,0.185
SKL1994WRNO,2019-09-30-15-00-56,7,34,0.5943990484160795,right,both,ambiguous-switch,97,-20,right,right,0.206
SKL1994WRNO,2019-09-30-15-00-56,7,35,0.5979725293713958,right,probe,biased-switch,-1,0,right,right,0.067
SKL1994WRNO,2019-09-30-15-00-56,7,36,0.5919596083101988,right,both,biased-switch,109,0,right,left,0.205
SKL1994WRNO,2019-09-30-15-00-56,7,37,0.5346479959565158,left,probe,ambiguous-switch,-1,5,right,right,0.179
SKL1994WRNO,2019-09-30-15-00-56,7,38,0.6679063564080775,left,both,ambiguous-switch,93,5,right,right,0.231
SKL1994WRNO,2019-09-30-15-00-56,7,39,0.6233549359473554,left,probe,ambiguous-switch,-1,-30,right,right,0.009
SKL1994WRNO,2019-09-30-15-00-56,7,40,0.6686306760600145,left,both,ambiguous-switch,105,-30,right,right,0.191
SKL1994WRNO,2019-09-30-15-00-56,7,41,0.518248619511566,left,probe,ambiguous-switch,-1,0,right,right,0.233
SKL1994WRNO,2019-09-30-15-00-56,7,42,0.5949117158345286,left,both,ambiguous-switch,96,0,right,right,0.11
SKL1994WRNO,2019-09-30-15-00-56,7,43,0.6487563758642577,left,probe,biased-switch,-1,-5,right,right,0.091
SKL1994WRNO,2019-09-30-15-00-56,7,44,0.568022484366333,left,both,biased-switch,101,-5,right,right,0.191
SKL1994WRNO,2019-09-30-15-00-56,7,45,0.6731976139632053,right,probe,biased-switch,-1,30,right,right,0.147
SKL1994WRNO,2019-09-30-15-00-56,7,46,0.538843960608859,right,both,biased-switch,93,30,right,right,0.176
SKL1994WRNO,2019-09-30-15-00-56,7,47,0.5062321254727066,right,probe,biased-switch,-1,-20,right,right,0.145
SKL1994WRNO,2019-09-30-15-00-56,7,48,0.6007581851505657,right,both,biased-switch,97,-20,right,left,0.207
SKL1994WRNO,2019-09-30-15-00-56,7,49,0.5426168379179139,left,probe,ambiguous-switch,-1,10,right,right,0.195
SKL1994WRNO,2019-09-30-15-00-56,7,50,0.5958053604237231,left,both,ambiguous-switch,95,10,right,right,0.194
SKL1994WRNO,2019-09-30-15-00-56,7,51,0.6709175492123467,right,probe,biased-switch,-1,5,left,left,0.189
SKL1994WRNO,2019-09-30-15-00-56,7,52,0.6092759597813407,right,both,biased-switch,97,5,left,right,0.221
SKL1994WRNO,2019-09-30-15-00-56,7,53,0.5194942879766603,left,probe,biased-switch,-1,-10,right,right,0.123
SKL1994WRNO,2019-09-30-15-00-56,7,54,0.5146042821885783,left,both,biased-switch,94,-10,right,right,0.18
SKL1994WRNO,2019-09-30-15-00-56,7,55,0.621755513612571,left,probe,ambiguous-switch,-1,40,right,right,0.158
SKL1994WRNO,2019-09-30-15-00-56,7,56,0.6775472030020753,left,both,ambiguous-switch,91,40,right,right,0.244
SKL1994WRNO,2019-09-30-15-00-56,7,57,0.6815366506059948,right,probe,biased-switch,-1,40,left,left,0.214
SKL1994WRNO,2019-09-30-15-00-56,7,58,0.6082252042857847,right,both,biased-switch,96,40,left,left,0.127
SKL1994WRNO,2019-09-30-15-00-56,7,59,0.5227573739760643,right,probe,biased-switch,-1,20,left,left,0.194
SKL1994WRNO,2019-09-30-15-00-56,7,60,0.5662901618448413,right,both,biased-switch,94,20,left,left,0.174
SKL1994WRNO,2019-09-30-15-00-56,7,61,0.6863451224264723,left,probe,ambiguous-switch,-1,-5,right,right,0.008
SKL1994WRNO,2019-09-30-15-00-56,7,62,0.6615108668772613,left,both,ambiguous-switch,102,-5,right,right,0.161
SKL1994WRNO,2019-09-30-15-00-56,7,63,0.6013315144877824,right,probe,ambiguous-switch,-1,20,left,left,0.173
SKL1994WRNO,2019-09-30-15-00-56,7,64,0.5868477339571302,right,both,ambiguous-switch,100,20,left,left,0.457
SKL1994WRNO,2019-09-30-15-00-56,7,65,0.52028794335682,left,probe,ambiguous-switch,-1,-10,right,right,0.184
SKL1994WRNO,2019-09-30-15-00-56,7,66,0.5506768169409844,left,both,ambiguous-switch,92,-10,right,right,0.142
SKL1994WRNO,2019-09-30-15-00-56,7,67,0.6199150811383187,right,probe,biased-switch,-1,-30,left,left,0.153
SKL1994WRNO,2019-09-30-15-00-56,7,68,0.6368208478347426,right,both,biased-switch,105,-30,left,left,0.145
SKL1994WRNO,2019-09-30-15-00-56,7,69,0.6399857567102079,left,probe,biased-switch,-1,10,right,right,0.208
SKL1994WRNO,2019-09-30-15-00-56,7,70,0.5971403472231634,left,both,biased-switch,91,10,right,right,0.131
SKL1994WRNO,2019-09-30-15-00-56,7,71,0.5761253413341251,left,probe,ambiguous-switch,-1,30,right,right,0.242
SKL1994WRNO,2019-09-30-15-00-56,7,72,0.5847468739326463,left,both,ambiguous-switch,105,30,right,right,0.107
SKL1994WRNO,2019-09-30-15-00-56,7,73,0.5573156508947341,right,probe,ambiguous-switch,-1,-20,left,left,0.168
SKL1994WRNO,2019-09-30-15-00-56,7,74,0.5657037019634962,right,both,ambiguous-switch,96,-20,left,left,0.208
SKL1994WRNO,2019-09-30-15-00-56,7,75,0.6359568317275264,right,probe,biased-switch,-1,0,left,left,0.177
SKL1994WRNO,2019-09-30-15-00-56,7,76,0.6370186051257847,right,both,biased-switch,97,0,left,left,0.176
SKL1994WRNO,2019-09-30-15-00-56,7,77,0.6567572343922967,left,probe,ambiguous-switch,-1,5,right,right,0.154
SKL1994WRNO,2019-09-30-15-00-56,7,78,0.5816774977100256,left,both,ambiguous-switch,97,5,right,left,0.138
SKL1994WRNO,2019-09-30-15-00-56,7,79,0.5699229216537112,left,probe,ambiguous-switch,-1,-30,right,right,0.152
SKL1994WRNO,2019-09-30-15-00-56,7,80,0.5070316752918937,left,both,ambiguous-switch,98,-30,right,right,0.107
SKL1994WRNO,2019-09-30-15-00-56,8,1,0.6515342797800936,right,probe,ambiguous-switch,-1,30,left,left,0.226
SKL1994WRNO,2019-09-30-15-00-56,8,2,0.622714385557451,right,both,ambiguous-switch,93,30,left,left,0.21
SKL1994WRNO,2019-09-30-15-00-56,8,3,0.6135000075594281,right,probe,ambiguous-switch,-1,-10,left,left,0.187
SKL1994WRNO,2019-09-30-15-00-56,8,4,0.5313558120246213,right,both,ambiguous-switch,93,-10,left,left,0.182
SKL1994WRNO,2019-09-30-15-00-56,8,5,0.6054765520753023,left,probe,ambiguous-switch,-1,40,right,right,0.285
SKL1994WRNO,2019-09-30-15-00-56,8,6,0.6696823305072629,left,both,ambiguous-switch,92,40,right,right,0.187
SKL1994WRNO,2019-09-30-15-00-56,8,7,0.5211443581174054,left,probe,biased-switch,-1,5,right,right,0.2
SKL1994WRNO,2019-09-30-15-00-56,8,8,0.5012967344991872,left,both,biased-switch,95,5,right,left,0.176
SKL1994WRNO,2019-09-30-15-00-56,8,9,0.6906241934547273,left,probe,biased-switch,-1,-30,right,right,0.092
SKL1994WRNO,2019-09-30-15-00-56,8,10,0.5807056147922997,left,both,biased-switch,91,-30,right,right,0.105
SKL1994WRNO,2019-09-30-15-00-56,8,11,0.6357081706576891,right,probe,ambiguous-switch,-1,-30,left,left,0.084
SKL1994WRNO,2019-09-30-15-00-56,8,12,0.6841951052377823,right,both,ambiguous-switch,101,-30,left,left,1.104
SKL1994WRNO,2019-09-30-15-00-56,8,13,0.6253159079944458,right,probe,ambiguous-switch,-1,-20,left,left,0.17
SKL1994WRNO,2019-09-30-15-00-56,8,14,0.5355965256942963,right,both,ambiguous-switch,109,-20,left,left,0.177
SKL1994WRNO,2019-09-30-15-00-56,8,15,0.5296238498981302,right,probe,ambiguous-switch,-1,10,left,left,0.153
SKL1994WRNO,2019-09-30-15-00-56,8,16,0.6561156355029262,right,both,ambiguous-switch,110,10,left,left,0.201
SKL1994WRNO,2019-09-30-15-00-56,8,17,0.5391567100395533,left,probe,ambiguous-switch,-1,5,left,left,0.178
SKL1994WRNO,2019-09-30-15-00-56,8,18,0.6791186251872362,left,both,ambiguous-switch,91,5,left,left,0.18
SKL1994WRNO,2019-09-30-15-00-56,8,19,0.5342112231592339,left,probe,ambiguous-switch,-1,-5,left,left,0.146
SKL1994WRNO,2019-09-30-15-00-56,8,20,0.6116540931865855,left,both,ambiguous-switch,106,-5,left,left,0.178
SKL1994WRNO,2019-09-30-15-00-56,8,21,0.6618750084832674,right,probe,biased-switch,-1,30,left,left,0.103
SKL1994WRNO,2019-09-30-15-00-56,8,22,0.6683119853707646,right,both,biased-switch,100,30,left,left,0.152
SKL1994WRNO,2019-09-30-15-00-56,8,23,0.514874762760922,right,probe,ambiguous-switch,-1,20,left,left,0.171
SKL1994WRNO,2019-09-30-15-00-56,8,24,0.6363317316719285,right,both,ambiguous-switch,109,20,left,left,0.161
SKL1994WRNO,2019-09-30-15-00-56,8,25,0.6693270514915982,right,probe,ambiguous-switch,-1,0,left,left,0.175
SKL1994WRNO,2019-09-30-15-00-56,8,26,0.6188423015833189,right,both,ambiguous-switch,102,0,left,left,0.257
SKL1994WRNO,2019-09-30-15-00-56,8,27,0.6180371729246179,left,probe,biased-switch,-1,-10,left,left,0.262
SKL1994WRNO,2019-09-30-15-00-56,8,28,0.5319448607975138,left,both,biased-switch,97,-10,left,left,0.182
SKL1994WRNO,2019-09-30-15-00-56,8,29,0.6730670858848533,right,probe,biased-switch,-1,0,left,left,0.185
SKL1994WRNO,2019-09-30-15-00-56,8,30,0.5035892529914586,right,both,biased-switch,92,0,left,left,0.14
SKL1994WRNO,2019-09-30-15-00-56,8,31,0.6348210453838464,right,probe,biased-switch,-1,20,left,left,0.2
SKL1994WRNO,2019-09-30-15-00-56,8,32,0.6928034765112616,right,both,biased-switch,90,20,left,left,0.258
SKL1994WRNO,2019-09-30-15-00-56,8,33,0.6923626194855876,left,probe,biased-switch,-1,-20,left,left,0.196
SKL1994WRNO,2019-09-30-15-00-56,8,34,0.6280485876478583,left,both,biased-switch,107,-20,left,left,0.163
SKL1994WRNO,2019-09-30-15-00-56,8,35,0.686144953573754,right,probe,biased-switch,-1,40,left,left,0.194
SKL1994WRNO,2019-09-30-15-00-56,8,36,0.5899665795917198,right,both,biased-switch,92,40,left,left,0.205
SKL1994WRNO,2019-09-30-15-00-56,8,37,0.5449064228204592,right,probe,biased-switch,-1,-5,left,left,0.219
SKL1994WRNO,2019-09-30-15-00-56,8,38,0.6065691193398877,right,both,biased-switch,106,-5,left,left,0.133
SKL1994WRNO,2019-09-30-15-00-56,8,39,0.5630735697086576,right,probe,biased-switch,-1,10,left,left,0.161
SKL1994WRNO,2019-09-30-15-00-56,8,40,0.6646491171598753,right,both,biased-switch,91,10,left,left,0.171
SKL1994WRNO,2019-09-30-15-00-56,8,41,0.583018729226603,right,probe,ambiguous-switch,-1,30,left,left,0.188
SKL1994WRNO,2019-09-30-15-00-56,8,42,0.6457766484495763,right,both,ambiguous-switch,96,30,left,left,1.057
SKL1994WRNO,2019-09-30-15-00-56,8,43,0.6698081135561478,right,probe,ambiguous-switch,-1,-10,left,left,0.211
SKL1994WRNO,2019-09-30-15-00-56,8,44,0.6074305592573139,right,both,ambiguous-switch,98,-10,left,left,0.224
SKL1994WRNO,2019-09-30-15-00-56,8,45,0.5734550830517645,right,probe,ambiguous-switch,-1,40,left,left,0.208
SKL1994WRNO,2019-09-30-15-00-56,8,46,0.5852166034639043,right,both,ambiguous-switch,109,40,left,left,0.173
SKL1994WRNO,2019-09-30-15-00-56,8,47,0.5995327010734216,left,probe,biased-switch,-1,5,left,left,0.184
SKL1994WRNO,2019-09-30-15-00-56,8,48,0.5616986560185157,left,both,biased-switch,108,5,left,right,0.17
SKL1994WRNO,2019-09-30-15-00-56,8,49,0.5366027658537185,left,probe,biased-switch,-1,-30,right,right,0.105
SKL1994WRNO,2019-09-30-15-00-56,8,50,0.5118697987471413,left,both,biased-switch,102,-30,right,right,0.233
SKL1994WRNO,2019-09-30-15-00-56,8,51,0.5719180282416008,right,probe,ambiguous-switch,-1,-30,left,left,0.179
SKL1994WRNO,2019-09-30-15-00-56,8,52,0.6151556517486462,right,both,ambiguous-switch,106,-30,left,left,0.205
SKL1994WRNO,2019-09-30-15-00-56,8,53,0.623427376171644,left,probe,ambiguous-switch,-1,-20,right,right,0.184
SKL1994WRNO,2019-09-30-15-00-56,8,54,0.5776696711891567,left,both,ambiguous-switch,103,-20,right,right,0.218
SKL1994WRNO,2019-09-30-15-00-56,8,55,0.6165150870223634,left,probe,ambiguous-switch,-1,10,right,right,0.205
SKL1994WRNO,2019-09-30-15-00-56,8,56,0.6357143272145597,left,both,ambiguous-switch,100,10,right,right,0.183
SKL1994WRNO,2019-09-30-15-00-56,8,57,0.6828435899665992,right,probe,ambiguous-switch,-1,5,left,left,0.165
SKL1994WRNO,2019-09-30-15-00-56,8,58,0.6655756557380013,right,both,ambiguous-switch,102,5,left,right,0.185
SKL1994WRNO,2019-09-30-15-00-56,8,59,0.6062249281337727,right,probe,ambiguous-switch,-1,-5,left,left,0.181
SKL1994WRNO,2019-09-30-15-00-56,8,60,0.5393470577552932,right,both,ambiguous-switch,102,-5,left,left,0.074
SKL1994WRNO,2019-09-30-15-00-56,8,61,0.5674600974970117,left,probe,biased-switch,-1,30,right,right,0.199
SKL1994WRNO,2019-09-30-15-00-56,8,62,0.500898195018511,left,both,biased-switch,107,30,right,right,0.006
SKL1994WRNO,2019-09-30-15-00-56,8,63,0.6825762639716422,right,probe,ambiguous-switch,-1,20,left,left,0.169
SKL1994WRNO,2019-09-30-15-00-56,8,64,0.5598647063899667,right,both,ambiguous-switch,92,20,left,right,0.029
SKL1994WRNO,2019-09-30-15-00-56,8,65,0.5324236018549878,left,probe,ambiguous-switch,-1,0,right,right,0.176
SKL1994WRNO,2019-09-30-15-00-56,8,66,0.6770132394131227,left,both,ambiguous-switch,99,0,right,right,0.191
SKL1994WRNO,2019-09-30-15-00-56,8,67,0.6237113705814252,left,probe,biased-switch,-1,-10,right,right,0.148
SKL1994WRNO,2019-09-30-15-00-56,8,68,0.6226653139909165,left,both,biased-switch,94,-10,right,right,0.133
SKL1994WRNO,2019-09-30-15-00-56,8,69,0.6367375520210361,left,probe,biased-switch,-1,0,right,right,0.11
SKL1994WRNO,2019-09-30-15-00-56,8,70,0.5131957225807753,left,both,biased-switch,104,0,right,right,0.146
SKL1994WRNO,2019-09-30-15-00-56,8,71,0.5181320997192219,right,probe,biased-switch,-1,20,right,right,0.168
SKL1994WRNO,2019-09-30-15-00-56,8,72,0.5691181061807546,right,both,biased-switch,92,20,right,right,0.178
SKL1994WRNO,2019-09-30-15-00-56,8,73,0.6184688379167895,left,probe,biased-switch,-1,-20,right,right,1.115
SKL1994WRNO,2019-09-30-15-00-56,8,74,0.6404252602891565,left,both,biased-switch,93,-20,right,right,0.213
SKL1994WRNO,2019-09-30-15-00-56,8,75,0.6297118757239686,left,probe,biased-switch,-1,40,right,right,0.124
SKL1994WRNO,2019-09-30-15-00-56,8,76,0.5926725519446262,left,both,biased-switch,90,40,right,right,0.242
SKL1994WRNO,2019-09-30-15-00-56,8,77,0.626963386393937,right,probe,biased-switch,-1,-5,right,right,0.222
SKL1994WRNO,2019-09-30-15-00-56,8,78,0.6282269553328095,right,both,biased-switch,94,-5,right,right,0.213
SKL1994WRNO,2019-09-30-15-00-56,8,79,0.5997543477088597,right,probe,biased-switch,-1,10,right,right,0.206
SKL1994WRNO,2019-09-30-15-00-56,8,80,0.5147636007158332,right,both,biased-switch,91,10,right,right,0.1
SKL1994WRNO,2019-09-30-15-00-56,9,1,0.5279542554490446,right,probe,biased-switch,-1,-5,left,left,0.194
SKL1994WRNO,2019-09-30-15-00-56,9,2,0.69442629319052,right,both,biased-switch,109,-5,left,left,0.272
SKL1994WRNO,2019-09-30-15-00-56,9,3,0.5201941191012814,right,probe,ambiguous-switch,-1,-30,left,left,0.214
SKL1994WRNO,2019-09-30-15-00-56,9,4,0.5556991236886157,right,both,ambiguous-switch,94,-30,left,left,0.187
SKL1994WRNO,2019-09-30-15-00-56,9,5,0.5137629232278316,left,probe,biased-switch,-1,10,left,left,0.19
SKL1994WRNO,2019-09-30-15-00-56,9,6,0.6313242123742118,left,both,biased-switch,98,10,left,right,0.189
SKL1994WRNO,2019-09-30-15-00-56,9,7,0.5996766754246318,left,probe,biased-switch,-1,0,right,right,0.164
SKL1994WRNO,2019-09-30-15-00-56,9,8,0.6158907696817225,left,both,biased-switch,107,0,right,left,0.158
SKL1994WRNO,2019-09-30-15-00-56,9,9,0.6814437859930678,left,probe,ambiguous-switch,-1,-10,right,right,0.215
SKL1994WRNO,2019-09-30-15-00-56,9,10,0.6418123306515534,left,both,ambiguous-switch,94,-10,right,right,0.194
SKL1994WRNO,2019-09-30-15-00-56,9,11,0.6052638504939437,left,probe,biased-switch,-1,5,right,right,0.248
SKL1994WRNO,2019-09-30-15-00-56,9,12,0.6142302500128696,left,both,biased-switch,105,5,right,left,0.198
SKL1994WRNO,2019-09-30-15-00-56,9,13,0.6452655701455885,left,probe,biased-switch,-1,-20,right,right,0.188
SKL1994WRNO,2019-09-30-15-00-56,9,14,0.5406239979112026,left,both,biased-switch,106,-20,right,right,0.1
SKL1994WRNO,2019-09-30-15-00-56,9,15,0.5582535898404419,left,probe,biased-switch,-1,30,right,right,0.1
SKL1994WRNO,2019-09-30-15-00-56,9,16,0.6920025360658539,left,both,biased-switch,108,30,right,right,0.176
SKL1994WRNO,2019-09-30-15-00-56,9,17,0.6181542893929644,left,probe,ambiguous-switch,-1,10,right,right,1.316
SKL1994WRNO,2019-09-30-15-00-56,9,18,0.6101129648277998,left,both,ambiguous-switch,102,10,right,right,0.193
SKL1994WRNO,2019-09-30-15-00-56,9,19,0.6584545099718703,right,probe,ambiguous-switch,-1,40,right,right,0.178
SKL1994WRNO,2019-09-30-15-00-56,9,20,0.56080747319005,right,both,ambiguous-switch,90,40,right,right,0.203
SKL1994WRNO,2019-09-30-15-00-56,9,21,0.6909871452160546,right,probe,biased-switch,-1,-30,right,right,0.204
SKL1994WRNO,2019-09-30-15-00-56,9,22,0.5901060720079193,right,both,biased-switch,95,-30,right,right,0.218
SKL1994WRNO,2019-09-30-15-00-56,9,23,0.5441778620444135,left,probe,biased-switch,-1,40,right,right,0.199
SKL1994WRNO,2019-09-30-15-00-56,9,24,0.5443049100205464,left,both,biased-switch,105,40,right,right,0.002
SKL1994WRNO,2019-09-30-15-00-56,9,25,0.6721323349266191,left,probe,ambiguous-switch,-1,30,right,right,0.003
SKL1994WRNO,2019-09-30-15-00-56,9,26,0.5271068502192704,left,both,ambiguous-switch,106,30,right,right,0.007
SKL1994WRNO,2019-09-30-15-00-56,9,27,0.5467460077248509,right,probe,biased-switch,-1,-10,right,right,0.192
SKL1994WRNO,2019-09-30-15-00-56,9,28,0.6045270483995802,right,both,biased-switch,105,-10,right,left,0.177
SKL1994WRNO,2019-09-30-15-00-56,9,29,0.5873433591809686,right,probe,ambiguous-switch,-1,5,left,left,0.193
SKL1994WRNO,2019-09-30-15-00-56,9,30,0.6451314047073413,right,both,ambiguous-switch,95,5,left,left,0.24
SKL1994WRNO,2019-09-30-15-00-56,9,31,0.5261195729757929,left,probe,ambiguous-switch,-1,-5,right,right,0.202
SKL1994WRNO,2019-09-30-15-00-56,9,32,0.5008749706835871,left,both,ambiguous-switch,108,-5,right,right,0.193
SKL1994WRNO,2019-09-30-15-00-56,9,33,0.5591697847702538,left,probe,ambiguous-switch,-1,0,right,right,0.204
SKL1994WRNO,2019-09-30-15-00-56,9,34,0.5469806460432795,left,both,ambiguous-switch,99,0,right,right,0.197
SKL1994WRNO,2019-09-30-15-00-56,9,35,0.5056651134673704,left,probe,ambiguous-switch,-1,-20,right,right,0.197
SKL1994WRNO,2019-09-30-15-00-56,9,36,0.5152403312721859,left,both,ambiguous-switch,110,-20,right,right,0.144
SKL1994WRNO,2019-09-30-15-00-56,9,37,0.5074054059809229,left,probe,biased-switch,-1,20,right,right,0.102
SKL1994WRNO,2019-09-30-15-00-56,9,38,0.6892541273238311,left,both,biased-switch,100,20,right,right,0.13
SKL1994WRNO,2019-09-30-15-00-56,9,39,0.5853317556733652,left,probe,ambiguous-switch,-1,20,right,right,0.065
SKL1994WRNO,2019-09-30-15-00-56,9,40,0.6946870328483907,left,both,ambiguous-switch,95,20,right,right,0.193
SKL1994WRNO,2019-09-30-15-00-56,9,41,0.5644736604396173,right,probe,biased-switch,-1,-5,right,right,0.123
SKL1994WRNO,2019-09-30-15-00-56,9,42,0.527661846845413,right,both,biased-switch,101,-5,right,left,0.165
SKL1994WRNO,2019-09-30-15-00-56,9,43,0.6731870914608794,right,probe,ambiguous-switch,-1,-30,right,right,1.978
SKL1994WRNO,2019-09-30-15-00-56,9,44,0.6732542830787478,right,both,ambiguous-switch,102,-30,right,right,2.537
SKL1994WRNO,2019-09-30-15-00-56,9,45,0.667811546795547,right,probe,biased-switch,-1,10,right,right,0.182
SKL1994WRNO,2019-09-30-15-00-56,9,46,0.5850515703159674,right,both,biased-switch,105,10,right,left,0.215
SKL1994WRNO,2019-09-30-15-00-56,9,47,0.6395686335571816,left,probe,biased-switch,-1,0,right,right,0.256
SKL1994WRNO,2019-09-30-15-00-56,9,48,0.5364046109033456,left,both,biased-switch,90,0,right,right,0.147
SKL1994WRNO,2019-09-30-15-00-56,9,49,0.583572177757436,left,probe,ambiguous-switch,-1,-10,right,right,0.038
SKL1994WRNO,2019-09-30-15-00-56,9,50,0.6353046896752973,left,both,ambiguous-switch,90,-10,right,right,0.165
SKL1994WRNO,2019-09-30-15-00-56,9,51,0.656536306489409,right,probe,biased-switch,-1,5,right,right,0.201
SKL1994WRNO,2019-09-30-15-00-56,9,52,0.5146523735928851,right,both,biased-switch,108,5,right,left,0.161
SKL1994WRNO,2019-09-30-15-00-56,9,53,0.5562312004581885,right,probe,biased-switch,-1,-20,left,left,0.024
SKL1994WRNO,2019-09-30-15-00-56,9,54,0.60716925826859,right,both,biased-switch,103,-20,left,left,0.194
SKL1994WRNO,2019-09-30-15-00-56,9,55,0.6857650194144244,right,probe,biased-switch,-1,30,left,left,0.198
SKL1994WRNO,2019-09-30-15-00-56,9,56,0.6424191079098951,right,both,biased-switch,91,30,left,left,0.169
SKL1994WRNO,2019-09-30-15-00-56,9,57,0.5726695731526598,right,probe,ambiguous-switch,-1,10,left,left,0.186
SKL1994WRNO,2019-09-30-15-00-56,9,58,0.6134600597442192,right,both,ambiguous-switch,92,10,left,left,0.171
SKL1994WRNO,2019-09-30-15-00-56,9,59,0.6315163095660805,left,probe,ambiguous-switch,-1,40,left,left,0.185
SKL1994WRNO,2019-09-30-15-00-56,9,60,0.6896466812754036,left,both,ambiguous-switch,103,40,left,right,0.134
SKL1994WRNO,2019-09-30-15-00-56,9,61,0.6332052675586757,left,probe,biased-switch,-1,-30,right,right,0.201
SKL1994WRNO,2019-09-30-15-00-56,9,62,0.6260360476518496,left,both,biased-switch,97,-30,right,right,0.182
SKL1994WRNO,2019-09-30-15-00-56,9,63,0.509962033404436,right,probe,biased-switch,-1,40,left,left,0.183
SKL1994WRNO,2019-09-30-15-00-56,9,64,0.5757890830208916,right,both,biased-switch,102,40,left,left,0.233
SKL1994WRNO,2019-09-30-15-00-56,9,65,0.5618962176666118,left,probe,ambiguous-switch,-1,30,right,right,0.227
SKL1994WRNO,2019-09-30-15-00-56,9,66,0.6370625004180858,left,both,ambiguous-switch,96,30,right,right,0.127
SKL1994WRNO,2019-09-30-15-00-56,9,67,0.5500025887497052,left,probe,biased-switch,-1,-10,right,right,1.763
SKL1994WRNO,2019-09-30-15-00-56,9,68,0.5897012346591781,left,both,biased-switch,97,-10,right,right,0.073
SKL1994WRNO,2019-09-30-15-00-56,9,69,0.6825084997451552,left,probe,ambiguous-switch,-1,5,right,right,0.166
SKL1994WRNO,2019-09-30-15-00-56,9,70,0.5066387487527162,left,both,ambiguous-switch,109,5,right,right,0.194
SKL1994WRNO,2019-09-30-15-00-56,9,71,0.5879831895093981,left,probe,ambiguous-switch,-1,-5,right,right,0.114
SKL1994WRNO,2019-09-30-15-00-56,9,72,0.503168740690403,left,both,ambiguous-switch,100,-5,right,right,0.043
SKL1994WRNO,2019-09-30-15-00-56,9,73,0.699022409565681,left,probe,ambiguous-switch,-1,0,right,right,1.125
SKL1994WRNO,2019-09-30-15-00-56,9,74,0.6410718485735698,left,both,ambiguous-switch,109,0,right,right,0.222
SKL1994WRNO,2019-09-30-15-00-56,9,75,0.5052654125319308,right,probe,ambiguous-switch,-1,-20,right,right,0.182
SKL1994WRNO,2019-09-30-15-00-56,9,76,0.6942023668693549,right,both,ambiguous-switch,95,-20,right,right,0.126
SKL1994WRNO,2019-09-30-15-00-56,9,77,0.6608799411689333,left,probe,biased-switch,-1,20,right,right,0.219
SKL1994WRNO,2019-09-30-15-00-56,9,78,0.544362587564144,left,both,biased-switch,95,20,right,right,0.078
SKL1994WRNO,2019-09-30-15-00-56,9,79,0.5539753771756517,right,probe,ambiguous-switch,-1,20,right,right,0.236
SKL1994WRNO,2019-09-30-15-00-56,9,80,0.5112875278323737,right,both,ambiguous-switch,106,20,right,left,0.261
SKL1994WRNO,2019-09-30-15-00-56,10,1,0.6917941752943486,left,probe,ambiguous-switch,-1,10,right,right,0.105
SKL1994WRNO,2019-09-30-15-00-56,10,2,0.550808676901053,left,both,ambiguous-switch,103,10,right,left,0.036
SKL1994WRNO,2019-09-30-15-00-56,10,3,0.5750086329163369,left,probe,ambiguous-switch,-1,5,right,right,0.176
SKL1994WRNO,2019-09-30-15-00-56,10,4,0.5423710369542097,left,both,ambiguous-switch,94,5,right,left,0.233
SKL1994WRNO,2019-09-30-15-00-56,10,5,0.5625660510484601,left,probe,biased-switch,-1,10,right,right,0.145
SKL1994WRNO,2019-09-30-15-00-56,10,6,0.6501053709311935,left,both,biased-switch,93,10,right,left,0.196
SKL1994WRNO,2019-09-30-15-00-56,10,7,0.5356692466456141,left,probe,biased-switch,-1,-20,right,right,0.167
SKL1994WRNO,2019-09-30-15-00-56,10,8,0.6157929772402764,left,both,biased-switch,109,-20,right,right,0.184
SKL1994WRNO,2019-09-30-15-00-56,10,9,0.5751975987023725,right,probe,biased-switch,-1,-30,right,right,0.175
SKL1994WRNO,2019-09-30-15-00-56,10,10,0.6997599230524632,right,both,biased-switch,108,-30,right,right,0.205
SKL1994WRNO,2019-09-30-15-00-56,10,11,0.5652970026240012,left,probe,biased-switch,-1,40,right,right,0.157
SKL1994WRNO,2019-09-30-15-00-56,10,12,0.5369306587536705,left,both,biased-switch,100,40,right,right,0.18
SKL1994WRNO,2019-09-30-15-00-56,10,13,0.5208334223574971,left,probe,biased-switch,-1,20,right,right,0.174
SKL1994WRNO,2019-09-30-15-00-56,10,14,0.6763927674581697,left,both,biased-switch,96,20,right,right,0.103
SKL1994WRNO,2019-09-30-15-00-56,10,15,0.5568689164970971,left,probe,biased-switch,-1,0,right,right,1.801
SKL1994WRNO,2019-09-30-15-00-56,10,16,0.691897142599669,left,both,biased-switch,109,0,right,left,0.195
SKL1994WRNO,2019-09-30-15-00-56,10,17,0.5954196133096843,right,probe,ambiguous-switch,-1,-10,right,right,0.199
SKL1994WRNO,2019-09-30-15-00-56,10,18,0.5136529558716945,right,both,ambiguous-switch,95,-10,right,right,0.123
SKL1994WRNO,2019-09-30-15-00-56,10,19,0.577295161124023,right,probe,ambiguous-switch,-1,40,right,right,0.209
SKL1994WRNO,2019-09-30-15-00-56,10,20,0.6814434162207292,right,both,ambiguous-switch,107,40,right,right,0.218
SKL1994WRNO,2019-09-30-15-00-56,10,21,0.5327491837869102,right,probe,ambiguous-switch,-1,0,right,right,0.104
SKL1994WRNO,2019-09-30-15-00-56,10,22,0.5452250877105203,right,both,ambiguous-switch,109,0,right,right,0.259
SKL1994WRNO,2019-09-30-15-00-56,10,23,0.6714247697973925,left,probe,biased-switch,-1,5,right,right,0.193
SKL1994WRNO,2019-09-30-15-00-56,10,24,0.5816589698442454,left,both,biased-switch,107,5,right,left,0.197
SKL1994WRNO,2019-09-30-15-00-56,10,25,0.6304314749875086,right,probe,ambiguous-switch,-1,20,right,right,0.18
SKL1994WRNO,2019-09-30-15-00-56,10,26,0.580691805025016,right,both,ambiguous-switch,93,20,right,right,0.154
SKL1994WRNO,2019-09-30-15-00-56,10,27,0.6764193763103397,left,probe,ambiguous-switch,-1,-5,right,right,0.193
SKL1994WRNO,2019-09-30-15-00-56,10,28,0.5097312597489698,left,both,ambiguous-switch,96,-5,right,right,0.167
SKL1994WRNO,2019-09-30-15-00-56,10,29,0.6491509032852139,right,probe,ambiguous-switch,-1,-20,right,right,0.213
SKL1994WRNO,2019-09-30-15-00-56,10,30,0.507447353645347,right,both,ambiguous-switch,102,-20,right,right,0.216
SKL1994WRNO,2019-09-30-15-00-56,10,31,0.5694122047601714,right,probe,biased-switch,-1,-10,right,right,0.591
SKL1994WRNO,2019-09-30-15-00-56,10,32,0.5574157691312714,right,both,biased-switch,95,-10,right,right,0.431
SKL1994WRNO,2019-09-30-15-00-56,10,33,0.6277863166159523,right,probe,biased-switch,-1,30,right,right,0.189
SKL1994WRNO,2019-09-30-15-00-56,10,34,0.5146607208640684,right,both,biased-switch,104,30,right,right,0.223
SKL1994WRNO,2019-09-30-15-00-56,10,35,0.6013322709067483,left,probe,ambiguous-switch,-1,-30,right,right,0.212
SKL1994WRNO,2019-09-30-15-00-56,10,36,0.6556984382595972,left,both,ambiguous-switch,100,-30,right,right,0.228
SKL1994WRNO,2019-09-30-15-00-56,10,37,0.6409868439927194,right,probe,biased-switch,-1,-5,right,right,0.216
SKL1994WRNO,2019-09-30-15-00-56,10,38,0.6414490922869205,right,both,biased-switch,93,-5,right,right,0.16
SKL1994WRNO,2019-09-30-15-00-56,10,39,0.6575790997137925,right,probe,ambiguous-switch,-1,30,right,right,0.526
SKL1994WRNO,2019-09-30-15-00-56,10,40,0.5327495989558233,right,both,ambiguous-switch,91,30,right,right,0.359
SKL1994WRNO,2019-09-30-15-00-56,10,41,0.5382132512502217,right,probe,ambiguous-switch,-1,10,right,right,0.206
SKL1994WRNO,2019-09-30-15-00-56,10,42,0.5208015686942817,right,both,ambiguous-switch,97,10,right,right,0.279
SKL1994WRNO,2019-09-30-15-00-56,10,43,0.6115631170874187,left,probe,ambiguous-switch,-1,5,right,right,0.272
SKL1994WRNO,2019-09-30-15-00-56,10,44,0.5291418703670414,left,both,ambiguous-switch,96,5,right,right,1.106
SKL1994WRNO,2019-09-30-15-00-56,10,45,0.6989551523129358,left,probe,biased-switch,-1,10,right,right,0.217
SKL1994WRNO,2019-09-30-15-00-56,10,46,0.6882384141299174,left,both,biased-switch,99,10,right,right,0.038
SKL1994WRNO,2019-09-30-15-00-56,10,47,0.6800898544244898,right,probe,biased-switch,-1,-20,right,right,0.159
SKL1994WRNO,2019-09-30-15-00-56,10,48,0.6520040110859265,right,both,biased-switch,96,-20,right,right,0.181
SKL1994WRNO,2019-09-30-15-00-56,10,49,0.5902153630611214,right,probe,biased-switch,-1,-30,right,right,0.199
SKL1994WRNO,2019-09-30-15-00-56,10,50,0.5511982607509612,right,both,biased-switch,106,-30,right,right,0.178
SKL1994WRNO,2019-09-30-15-00-56,10,51,0.5645999131769613,left,probe,biased-switch,-1,40,right,right,0.268
SKL1994WRNO,2019-09-30-15-00-56,10,52,0.6357924900145548,left,both,biased-switch,106,40,right,right,0.254
SKL1994WRNO,2019-09-30-15-00-56,10,53,0.6617188712049582,right,probe,biased-switch,-1,20,right,right,0.21
SKL1994WRNO,2019-09-30-15-00-56,10,54,0.6579381258419257,right,both,biased-switch,95,20,right,right,0.23
SKL1994WRNO,2019-09-30-15-00-56,10,55,0.5275375068999535,right,probe,biased-switch,-1,0,right,right,0.133
SKL1994WRNO,2019-09-30-15-00-56,10,56,0.643928229394981,right,both,biased-switch,104,0,right,left,0.126
SKL1994WRNO,2019-09-30-15-00-56,10,57,0.5761029286886945,right,probe,ambiguous-switch,-1,-10,left,left,0.145
SKL1994WRNO,2019-09-30-15-00-56,10,58,0.6661596131425133,right,both,ambiguous-switch,94,-10,left,left,0.23
SKL1994WRNO,2019-09-30-15-00-56,10,59,0.6317254064113325,right,probe,ambiguous-switch,-1,40,left,left,0.073
SKL1994WRNO,2019-09-30-15-00-56,10,60,0.6513979635955366,right,both,ambiguous-switch,103,40,left,left,0.187
SKL1994WRNO,2019-09-30-15-00-56,10,61,0.5674901807477403,left,probe,ambiguous-switch,-1,0,left,left,0.194
SKL1994WRNO,2019-09-30-15-00-56,10,62,0.6324587284249245,left,both,ambiguous-switch,96,0,left,left,0.198
SKL1994WRNO,2019-09-30-15-00-56,10,63,0.5116861182089184,left,probe,biased-switch,-1,5,left,left,0.198
SKL1994WRNO,2019-09-30-15-00-56,10,64,0.6927011384107931,left,both,biased-switch,96,5,left,left,0.143
SKL1994WRNO,2019-09-30-15-00-56,10,65,0.5615867388611405,right,probe,ambiguous-switch,-1,20,left,left,0.207
SKL1994WRNO,2019-09-30-15-00-56,10,66,0.5981022585900647,right,both,ambiguous-switch,106,20,left,left,0.172
SKL1994WRNO,2019-09-30-15-00-56,10,67,0.5256547508334856,left,probe,ambiguous-switch,-1,-5,left,left,0.184
SKL1994WRNO,2019-09-30-15-00-56,10,68,0.6124570156419921,left,both,ambiguous-switch,100,-5,left,left,0.254
SKL1994WRNO,2019-09-30-15-00-56,10,69,0.6516695004409346,left,probe,ambiguous-switch,-1,-20,left,left,0.171
SKL1994WRNO,2019-09-30-15-00-56,10,70,0.5137892503749584,left,both,ambiguous-switch,105,-20,left,left,0.173
SKL1994WRNO,2019-09-30-15-00-56,10,71,0.6361438327038231,right,probe,biased-switch,-1,-10,left,left,0.19
SKL1994WRNO,2019-09-30-15-00-56,10,72,0.6021662999851236,right,both,biased-switch,104,-10,left,left,0.117
SKL1994WRNO,2019-09-30-15-00-56,10,73,0.652265825763195,left,probe,biased-switch,-1,30,left,left,0.175
SKL1994WRNO,2019-09-30-15-00-56,10,74,0.5947327265003985,left,both,biased-switch,107,30,left,left,0.154
SKL1994WRNO,2019-09-30-15-00-56,10,75,0.547924890854569,left,probe,ambiguous-switch,-1,-30,left,left,0.188
SKL1994WRNO,2019-09-30-15-00-56,10,76,0.5725469913506106,left,both,ambiguous-switch,95,-30,left,left,0.201
SKL1994WRNO,2019-09-30-15-00-56,10,77,0.6090232929306097,left,probe,biased-switch,-1,-5,left,left,0.181
SKL1994WRNO,2019-09-30-15-00-56,10,78,0.5441452135461731,left,both,biased-switch,98,-5,left,left,0.18
SKL1994WRNO,2019-09-30-15-00-56,10,79,0.641390756237171,right,probe,ambiguous-switch,-1,30,left,left,0.167
SKL1994WRNO,2019-09-30-15-00-56,10,80,0.625297267061285,right,both,ambiguous-switch,104,30,left,left,0.051
