Participant,Session,Block,Trial,OnsetDelay,ProbeLocation,WhatIsReported,Condition,TriggerTime,ProbeSOA,PrimeDirection,Response,RT
MME2000MRNO,2019-10-04-09-00-51,1,1,0.6325498248973691,left,probe,biased-switch,-1,30,right,right,0.205
MME2000MRNO,2019-10-04-09-00-51,1,2,0.5263722603439689,left,both,biased-switch,91,30,right,right,0.164
MME2000MRNO,2019-10-04-09-00-51,1,3,0.6977242754945481,left,probe,ambiguous-switch,-1,-20,right,right,0.18
MME2000MRNO,2019-10-04-09-00-51,1,4,0.5060208018884603,left,both,ambiguous-switch,110,-20,right,right,0.106
MME2000MRNO,2019-10-04-09-00-51,1,5,0.5579432177700918,right,probe,biased-switch,-1,-10,right,right,0.141
MME2000MRNO,2019-10-04-09-00-51,1,6,0.6360602584224082,right,both,biased-switch,104,-10,right,right,0.207
MME2000MRNO,2019-10-04-09-00-51,1,7,0.509283385723289,right,probe,biased-switch,-1,40,right,right,0.135
MME2000MRNO,2019-10-04-09-00-51,1,8,0.6001982827595518,right,both,biased-switch,102,40,right,right,0.087
MME2000MRNO,2019-10-04-09-00-51,1,9,0.5058531981520342,left,probe,biased-switch,-1,0,right,right,0.063
MME2000MRNO,2019-10-04-09-00-51,1,10,0.5008388672719651,left,both,biased-switch,95,0,right,right,0.268
MME2000MRNO,2019-10-04-09-00-51,1,11,0.5929364379922415,right,probe,biased-switch,-1,20,right,right,0.163
MME2000MRNO,2019-10-04-09-00-51,1,12,0.6492915802397512,right,both,biased-switch,107,20,right,right,0.177
MME2000MRNO,2019-10-04-09-00-51,1,13,0.6721641679705594,right,probe,ambiguous-switch,-1,5,right,right,0.177
MME2000MRNO,2019-10-04-09-00-51,1,14,0.6815324445336892,right,both,ambiguous-switch,101,5,right,left,0.167
MME2000MRNO,2019-10-04-09-00-51,1,15,0.5655183703765587,left,probe,biased-switch,-1,10,right,right,0.176
MME2000MRNO,2019-10-04-09-00-51,1,16,0.6385905862484456,left,both,biased-switch,98,10,right,right,0.175
MME2000MRNO,2019-10-04-09-00-51,1,17,0.592022226793843,right,probe,ambiguous-switch,-1,40,right,right,0.188
MME2000MRNO,2019-10-04-09-00-51,1,18,0.6128777168405365,right,both,ambiguous-switch,102,40,right,right,3.33
MME2000MRNO,2019-10-04-09-00-51,1,19,0.6387809451130149,right,probe,biased-switch,-1,-30,right,right,0.163
MME2000MRNO,2019-10-04-09-00-51,1,20,0.5850785602400355,right,both,biased-switch,96,-30,right,right,0.229
MME2000MRNO,2019-10-04-09-00-51,1,21,0.6904178559703946,right,probe,ambiguous-switch,-1,20,right,right,0.161
MME2000MRNO,2019-10-04-09-00-51,1,22,0.5673804586364483,right,both,ambiguous-switch,109,20,right,right,0.076
MME2000MRNO,2019-10-04-09-00-51,1,23,0.6534979408350661,right,probe,ambiguous-switch,-1,-5,right,right,0.156
MME2000MRNO,2019-10-04-09-00-51,1,24,0.603151029674018,right,both,ambiguous-switch,92,-5,right,right,0.183
MME2000MRNO,2019-10-04-09-00-51,1,25,0.5922848804103772,right,probe,ambiguous-switch,-1,-10,right,right,0.153
MME2000MRNO,2019-10-04-09-00-51,1,26,0.6812603222895869,right,both,ambiguous-switch,96,-10,right,right,0.168
MME2000MRNO,2019-10-04-09-00-51,1,27,0.5673701193981942,left,probe,biased-switch,-1,5,right,right,0.017
MME2000MRNO,2019-10-04-09-00-51,1,28,0.6002225959351339,left,both,biased-switch,93,5,right,right,0.112
MME2000MRNO,2019-10-04-09-00-51,1,29,0.6108851321913593,left,probe,ambiguous-switch,-1,-30,right,right,0.112
MME2000MRNO,2019-10-04-09-00-51,1,30,0.6936705856542291,left,both,ambiguous-switch,94,-30,right,right,0.119
MME2000MRNO,2019-10-04-09-00-51,1,31,0.6041953378082904,left,probe,biased-switch,-1,-5,right,right,0.098
MME2000MRNO,2019-10-04-09-00-51,1,32,0.6073707248282733,left,both,biased-switch,106,-5,right,right,0.158
MME2000MRNO,2019-10-04-09-00-51,1,33,0.6731143248129168,right,probe,ambiguous-switch,-1,0,right,right,0.162
MME2000MRNO,2019-10-04-09-00-51,1,34,0.6529613976011337,right,both,ambiguous-switch,108,0,right,right,0.223
MME2000MRNO,2019-10-04-09-00-51,1,35,0.574603590970251,right,probe,biased-switch,-1,-20,right,right,0.154
MME2000MRNO,2019-10-04-09-00-51,1,36,0.5694958969918085,right,both,biased-switch,104,-20,right,right,0.204
MME2000MRNO,2019-10-04-09-00-51,1,37,0.646876134490622,right,probe,ambiguous-switch,-1,30,right,right,0.145
MME2000MRNO,2019-10-04-09-00-51,1,38,0.6650240189396865,right,both,ambiguous-switch,96,30,right,right,0.201
MME2000MRNO,2019-10-04-09-00-51,1,39,0.5726582833995468,right,probe,ambiguous-switch,-1,10,right,right,0.218
MME2000MRNO,2019-10-04-09-00-51,1,40,0.5492775052073124,right,both,ambiguous-switch,108,10,right,left,0.225
MME2000MRNO,2019-10-04-09-00-51,1,41,0.5860256222499052,right,probe,biased-switch,-1,30,left,left,0.158
MME2000MRNO,2019-10-04-09-00-51,1,42,0.5843996456596525,right,both,biased-switch,106,30,left,right,0.165
MME2000MRNO,2019-10-04-09-00-51,1,43,0.6042250227915028,right,probe,ambiguous-switch,-1,-20,right,right,0.109
MME2000MRNO,2019-10-04-09-00-51,1,44,0.6051405678608482,right,both,ambiguous-switch,110,-20,right,right,0.151
MME2000MRNO,2019-10-04-09-00-51,1,45,0.6602766341600247,left,probe,biased-switch,-1,-10,right,right,0.15
MME2000MRNO,2019-10-04-09-00-51,1,46,0.6203576192212824,left,both,biased-switch,106,-10,right,right,0.177
MME2000MRNO,2019-10-04-09-00-51,1,47,0.5134207694723705,right,probe,biased-switch,-1,40,right,right,0.107
MME2000MRNO,2019-10-04-09-00-51,1,48,0.5127832003788704,right,both,biased-switch,102,40,right,right,0.162
MME2000MRNO,2019-10-04-09-00-51,1,49,0.6019216638596001,right,probe,biased-switch,-1,0,right,right,0.182
MME2000MRNO,2019-10-04-09-00-51,1,50,0.6914405642831756,right,both,biased-switch,104,0,right,right,0.157
MME2000MRNO,2019-10-04-09-00-51,1,51,0.5119443683643279,right,probe,biased-switch,-1,20,right,right,0.122
MME2000MRNO,2019-10-04-09-00-51,1,52,0.6608594353873507,right,both,biased-switch,91,20,right,left,0.264
MME2000MRNO,2019-10-04-09-00-51,1,53,0.6262787398711257,right,probe,ambiguous-switch,-1,5,right,right,0.168
MME2000MRNO,2019-10-04-09-00-51,1,54,0.5731256992950131,right,both,ambiguous-switch,102,5,right,left,0.166
MME2000MRNO,2019-10-04-09-00-51,1,55,0.515257460609976,left,probe,biased-switch,-1,10,right,right,0.184
MME2000MRNO,2019-10-04-09-00-51,1,56,0.5635307050640497,left,both,biased-switch,97,10,right,left,0.169
MME2000MRNO,2019-10-04-09-00-51,1,57,0.5479387666894404,left,probe,ambiguous-switch,-1,40,right,right,0.177
MME2000MRNO,2019-10-04-09-00-51,1,58,0.5315044525877426,left,both,ambiguous-switch,109,40,right,right,0.073
MME2000MRNO,2019-10-04-09-00-51,1,59,0.6130512642875079,right,probe,biased-switch,-1,-30,right,right,0.211
MME2000MRNO,2019-10-04-09-00-51,1,60,0.6893037100272303,right,both,biased-switch,93,-30,right,right,0.18
MME2000MRNO,2019-10-04-09-00-51,1,61,0.5986942581626878,right,probe,ambiguous-switch,-1,20,right,right,0.796
MME2000MRNO,2019-10-04-09-00-51,1,62,0.5781233870388882,right,both,ambiguous-switch,93,20,right,right,0.171
MME2000MRNO,2019-10-04-09-00-51,1,63,0.6659378834538072,right,probe,ambiguous-switch,-1,-5,right,right,0.15
MME2000MRNO,2019-10-04-09-00-51,1,64,0.6032889172669381,right,both,ambiguous-switch,91,-5,right,right,0.154
MME2000MRNO,2019-10-04-09-00-51,1,65,0.607912290932519,left,probe,ambiguous-switch,-1,-10,right,right,0.147
MME2000MRNO,2019-10-04-09-00-51,1,66,0.5508231991328194,left,both,ambiguous-switch,101,-10,right,right,0.194
MME2000MRNO,2019-10-04-09-00-51,1,67,0.6279704493456477,right,probe,biased-switch,-1,5,right,right,0.135
MME2000MRNO,2019-10-04-09-00-51,1,68,0.5895689324412614,right,both,biased-switch,98,5,right,left,0.162
MME2000MRNO,2019-10-04-09-00-51,1,69,0.6135468255440233,right,probe,ambiguous-switch,-1,-30,right,right,0.167
MME2000MRNO,2019-10-04-09-00-51,1,70,0.5670282906131332,right,both,ambiguous-switch,94,-30,right,right,0.199
MME2000MRNO,2019-10-04-09-00-51,1,71,0.6503291460686627,right,probe,biased-switch,-1,-5,right,right,0.138
MME2000MRNO,2019-10-04-09-00-51,1,72,0.6206541302678553,right,both,biased-switch,99,-5,right,right,0.18
MME2000MRNO,2019-10-04-09-00-51,1,73,0.5737728726625111,left,probe,ambiguous-switch,-1,0,right,right,0.148
MME2000MRNO,2019-10-04-09-00-51,1,74,0.5776806850189755,left,both,ambiguous-switch,101,0,right,right,0.179
MME2000MRNO,2019-10-04-09-00-51,1,75,0.5948575006465766,left,probe,biased-switch,-1,-20,right,right,0.156
MME2000MRNO,2019-10-04-09-00-51,1,76,0.5584271964664094,left,both,biased-switch,95,-20,right,right,0.048
MME2000MRNO,2019-10-04-09-00-51,1,77,0.5015859253366706,left,probe,ambiguous-switch,-1,30,right,right,0.188
MME2000MRNO,2019-10-04-09-00-51,1,78,0.6216246328173285,left,both,ambiguous-switch,105,30,right,right,0.211
MME2000MRNO,2019-10-04-09-00-51,1,79,0.6563876244592959,left,probe,ambiguous-switch,-1,10,right,right,0.164
MME2000MRNO,2019-10-04-09-00-51,1,80,0.508445745012492,left,both,ambiguous-switch,109,10,right,left,0.192
MME2000MRNO,2019-10-04-09-00-51,2,1,0.5156273135076404,right,probe,ambiguous-switch,-1,-30,right,right,0.16
MME2000MRNO,2019-10-04-09-00-51,2,2,0.609069195751332,right,both,ambiguous-switch,105,-30,right,right,0.179
MME2000MRNO,2019-10-04-09-00-51,2,3,0.5510504774166227,right,probe,biased-switch,-1,10,right,right,0.238
MME2000MRNO,2019-10-04-09-00-51,2,4,0.5156118908182463,right,both,biased-switch,107,10,right,left,0.175
MME2000MRNO,2019-10-04-09-00-51,2,5,0.697313833579807,left,probe,ambiguous-switch,-1,30,right,right,0.172
MME2000MRNO,2019-10-04-09-00-51,2,6,0.562131995636454,left,both,ambiguous-switch,95,30,right,right,0.148
MME2000MRNO,2019-10-04-09-00-51,2,7,0.5517810183284516,left,probe,ambiguous-switch,-1,0,right,right,0.213
MME2000MRNO,2019-10-04-09-00-51,2,8,0.5833704505670867,left,both,ambiguous-switch,103,0,right,right,0.187
MME2000MRNO,2019-10-04-09-00-51,2,9,0.5819881904190226,right,probe,ambiguous-switch,-1,10,right,right,0.124
MME2000MRNO,2019-10-04-09-00-51,2,10,0.5636462622216146,right,both,ambiguous-switch,101,10,right,right,0.176
MME2000MRNO,2019-10-04-09-00-51,2,11,0.6270949261624132,left,probe,biased-switch,-1,30,right,right,0.092
MME2000MRNO,2019-10-04-09-00-51,2,12,0.6621300605211071,left,both,biased-switch,93,30,right,right,0.218
MME2000MRNO,2019-10-04-09-00-51,2,13,0.5774183598885718,right,probe,biased-switch,-1,-5,right,right,0.203
MME2000MRNO,2019-10-04-09-00-51,2,14,0.6876722324065545,right,both,biased-switch,107,-5,right,right,0.178
MME2000MRNO,2019-10-04-09-00-51,2,15,0.5927059686051168,right,probe,biased-switch,-1,20,right,right,0.27
MME2000MRNO,2019-10-04-09-00-51,2,16,0.5370067562307217,right,both,biased-switch,107,20,right,left,0.087
MME2000MRNO,2019-10-04-09-00-51,2,17,0.5199238193858686,right,probe,ambiguous-switch,-1,20,right,right,0.17
MME2000MRNO,2019-10-04-09-00-51,2,18,0.5131626114979179,right,both,ambiguous-switch,101,20,right,left,0.159
MME2000MRNO,2019-10-04-09-00-51,2,19,0.6501030837441729,right,probe,biased-switch,-1,0,left,left,0.186
MME2000MRNO,2019-10-04-09-00-51,2,20,0.6976864503105267,right,both,biased-switch,100,0,left,right,0.161
MME2000MRNO,2019-10-04-09-00-51,2,21,0.554425862370799,left,probe,biased-switch,-1,40,right,right,0.187
MME2000MRNO,2019-10-04-09-00-51,2,22,0.6988830256467207,left,both,biased-switch,100,40,right,right,0.111
MME2000MRNO,2019-10-04-09-00-51,2,23,0.5775275566996114,left,probe,ambiguous-switch,-1,-10,right,right,0.171
MME2000MRNO,2019-10-04-09-00-51,2,24,0.534044965003405,left,both,ambiguous-switch,107,-10,right,right,0.153
MME2000MRNO,2019-10-04-09-00-51,2,25,0.5274619877822905,right,probe,biased-switch,-1,-10,right,right,0.161
MME2000MRNO,2019-10-04-09-00-51,2,26,0.6442262727140237,right,both,biased-switch,99,-10,right,right,0.148
MME2000MRNO,2019-10-04-09-00-51,2,27,0.6162754145323783,left,probe,ambiguous-switch,-1,5,right,right,0.17
MME2000MRNO,2019-10-04-09-00-51,2,28,0.6339175189464107,left,both,ambiguous-switch,103,5,right,right,0.192
MME2000MRNO,2019-10-04-09-00-51,2,29,0.6583663001133246,left,probe,biased-switch,-1,-20,right,right,0.023
MME2000MRNO,2019-10-04-09-00-51,2,30,0.6922949588109478,left,both,biased-switch,103,-20,right,right,0.124
MME2000MRNO,2019-10-04-09-00-51,2,31,0.6568792019003719,right,probe,biased-switch,-1,5,right,right,0.154
MME2000MRNO,2019-10-04-09-00-51,2,32,0.5660292804515173,right,both,biased-switch,92,5,right,left,0.17
MME2000MRNO,2019-10-04-09-00-51,2,33,0.6903101500464619,right,probe,biased-switch,-1,-30,left,left,0.165
MME2000MRNO,2019-10-04-09-00-51,2,34,0.6264219885087897,right,both,biased-switch,109,-30,left,left,0.176
MME2000MRNO,2019-10-04-09-00-51,2,35,0.6493284912657158,left,probe,ambiguous-switch,-1,40,right,right,0.037
MME2000MRNO,2019-10-04-09-00-51,2,36,0.6433403616265978,left,both,ambiguous-switch,96,40,right,right,0.188
MME2000MRNO,2019-10-04-09-00-51,2,37,0.6736425000220493,left,probe,ambiguous-switch,-1,-5,right,right,0.086
MME2000MRNO,2019-10-04-09-00-51,2,38,0.5390485382968163,left,both,ambiguous-switch,93,-5,right,right,0.158
MME2000MRNO,2019-10-04-09-00-51,2,39,0.6898824547730963,left,probe,ambiguous-switch,-1,-20,right,right,0.14
MME2000MRNO,2019-10-04-09-00-51,2,40,0.6623574298664643,left,both,ambiguous-switch,92,-20,right,right,0.153
MME2000MRNO,2019-10-04-09-00-51,2,41,0.5750809403732701,left,probe,ambiguous-switch,-1,-30,right,right,0.164
MME2000MRNO,2019-10-04-09-00-51,2,42,0.605481725631545,left,both,ambiguous-switch,108,-30,right,right,0.214
MME2000MRNO,2019-10-04-09-00-51,2,43,0.6035610245883534,left,probe,biased-switch,-1,10,right,right,0.169
MME2000MRNO,2019-10-04-09-00-51,2,44,0.6896917986177357,left,both,biased-switch,101,10,right,left,0.199
MME2000MRNO,2019-10-04-09-00-51,2,45,0.5690546070250357,right,probe,ambiguous-switch,-1,30,left,left,0.187
MME2000MRNO,2019-10-04-09-00-51,2,46,0.6107046460326864,right,both,ambiguous-switch,91,30,left,left,0.158
MME2000MRNO,2019-10-04-09-00-51,2,47,0.684428056929788,right,probe,ambiguous-switch,-1,0,left,left,0.108
MME2000MRNO,2019-10-04-09-00-51,2,48,0.579791552601653,right,both,ambiguous-switch,104,0,left,left,0.152
MME2000MRNO,2019-10-04-09-00-51,2,49,0.5023949396824918,left,probe,ambiguous-switch,-1,10,left,left,0.205
MME2000MRNO,2019-10-04-09-00-51,2,50,0.5128175196037481,left,both,ambiguous-switch,109,10,left,right,0.164
MME2000MRNO,2019-10-04-09-00-51,2,51,0.6941355413979375,right,probe,biased-switch,-1,30,left,left,0.172
MME2000MRNO,2019-10-04-09-00-51,2,52,0.5247511760892907,right,both,biased-switch,95,30,left,left,0.133
MME2000MRNO,2019-10-04-09-00-51,2,53,0.6013644407484309,left,probe,biased-switch,-1,-5,right,right,0.096
MME2000MRNO,2019-10-04-09-00-51,2,54,0.5879048756756519,left,both,biased-switch,92,-5,right,left,0.199
MME2000MRNO,2019-10-04-09-00-51,2,55,0.5688621297929848,left,probe,biased-switch,-1,20,right,right,0.119
MME2000MRNO,2019-10-04-09-00-51,2,56,0.5291917046132388,left,both,biased-switch,108,20,right,left,0.147
MME2000MRNO,2019-10-04-09-00-51,2,57,0.5930475274166975,right,probe,ambiguous-switch,-1,20,left,left,0.107
MME2000MRNO,2019-10-04-09-00-51,2,58,0.5048650798765978,right,both,ambiguous-switch,110,20,left,left,0.089
MME2000MRNO,2019-10-04-09-00-51,2,59,0.5965484344893888,left,probe,biased-switch,-1,0,left,left,0.186
MME2000MRNO,2019-10-04-09-00-51,2,60,0.5755037357391191,left,both,biased-switch,92,0,left,right,0.161
MME2000MRNO,2019-10-04-09-00-51,2,61,0.66740514510309,left,probe,biased-switch,-1,40,right,right,0.268
MME2000MRNO,2019-10-04-09-00-51,2,62,0.568435486697316,left,both,biased-switch,107,40,right,right,0.237
MME2000MRNO,2019-10-04-09-00-51,2,63,0.53162763019036,left,probe,ambiguous-switch,-1,-10,right,right,0.194
MME2000MRNO,2019-10-04-09-00-51,2,64,0.6517157895246268,left,both,ambiguous-switch,97,-10,right,right,0.181
MME2000MRNO,2019-10-04-09-00-51,2,65,0.69970174033294,right,probe,biased-switch,-1,-10,right,right,0.222
MME2000MRNO,2019-10-04-09-00-51,2,66,0.6667784889969096,right,both,biased-switch,106,-10,right,left,0.254
MME2000MRNO,2019-10-04-09-00-51,2,67,0.5155855019645522,right,probe,ambiguous-switch,-1,5,left,left,0.228
MME2000MRNO,2019-10-04-09-00-51,2,68,0.5018446915746833,right,both,ambiguous-switch,107,5,left,left,0.187
MME2000MRNO,2019-10-04-09-00-51,2,69,0.6674406585671848,right,probe,biased-switch,-1,-20,left,left,0.211
MME2000MRNO,2019-10-04-09-00-51,2,70,0.5569433585168625,right,both,biased-switch,103,-20,left,left,0.044
MME2000MRNO,2019-10-04-09-00-51,2,71,0.6007440867059958,right,probe,biased-switch,-1,5,left,left,0.156
MME2000MRNO,2019-10-04-09-00-51,2,72,0.5129268807429889,right,both,biased-switch,104,5,left,right,0.0
MME2000MRNO,2019-10-04-09-00-51,2,73,0.6921798891277815,right,probe,biased-switch,-1,-30,left,left,0.156
MME2000MRNO,2019-10-04-09-00-51,2,74,0.5961283145718131,right,both,biased-switch,93,-30,left,left,0.169
MME2000MRNO,2019-10-04-09-00-51,2,75,0.5589803008283848,right,probe,ambiguous-switch,-1,40,left,left,0.178
MME2000MRNO,2019-10-04-09-00-51,2,76,0.6626118302340765,right,both,ambiguous-switch,97,40,left,left,0.038
MME2000MRNO,2019-10-04-09-00-51,2,77,0.6948475813047336,right,probe,ambiguous-switch,-1,-5,left,left,0.131
MME2000MRNO,2019-10-04-09-00-51,2,78,0.6509831636353703,right,both,ambiguous-switch,106,-5,left,left,0.14
MME2000MRNO,2019-10-04-09-00-51,2,79,0.5018198589728028,right,probe,ambiguous-switch,-1,-20,left,left,0.18
MME2000MRNO,2019-10-04-09-00-51,2,80,0.6323324728005779,right,both,ambiguous-switch,103,-20,left,left,0.165
MME2000MRNO,2019-10-04-09-00-51,3,1,0.5999854485002812,right,probe,biased-switch,-1,40,left,left,0.19
MME2000MRNO,2019-10-04-09-00-51,3,2,0.6443943928435731,right,both,biased-switch,98,40,left,left,0.149
MME2000MRNO,2019-10-04-09-00-51,3,3,0.6440003479508117,right,probe,ambiguous-switch,-1,-20,left,left,0.147
MME2000MRNO,2019-10-04-09-00-51,3,4,0.6823263244056865,right,both,ambiguous-switch,95,-20,left,left,0.168
MME2000MRNO,2019-10-04-09-00-51,3,5,0.5103063888378511,left,probe,ambiguous-switch,-1,30,left,left,0.143
MME2000MRNO,2019-10-04-09-00-51,3,6,0.6602088492731152,left,both,ambiguous-switch,100,30,left,left,0.188
MME2000MRNO,2019-10-04-09-00-51,3,7,0.5814688173936333,right,probe,biased-switch,-1,-20,left,left,0.106
MME2000MRNO,2019-10-04-09-00-51,3,8,0.5407484781590828,right,both,biased-switch,107,-20,left,left,0.19
MME2000MRNO,2019-10-04-09-00-51,3,9,0.5129996345975171,left,probe,biased-switch,-1,-10,left,left,0.081
MME2000MRNO,2019-10-04-09-00-51,3,10,0.5534326207185164,left,both,biased-switch,99,-10,left,left,0.194
MME2000MRNO,2019-10-04-09-00-51,3,11,0.5498570849475704,left,probe,ambiguous-switch,-1,-10,left,left,0.047
MME2000MRNO,2019-10-04-09-00-51,3,12,0.5121416470018902,left,both,ambiguous-switch,107,-10,left,left,0.012
MME2000MRNO,2019-10-04-09-00-51,3,13,0.6094438752382385,left,probe,ambiguous-switch,-1,10,left,left,0.14
MME2000MRNO,2019-10-04-09-00-51,3,14,0.5130376429800679,left,both,ambiguous-switch,100,10,left,left,0.157
MME2000MRNO,2019-10-04-09-00-51,3,15,0.6310061062761072,left,probe,ambiguous-switch,-1,40,left,left,0.092
MME2000MRNO,2019-10-04-09-00-51,3,16,0.5583284534679704,left,both,ambiguous-switch,104,40,left,left,0.146
MME2000MRNO,2019-10-04-09-00-51,3,17,0.6256276820838027,right,probe,biased-switch,-1,0,left,left,0.174
MME2000MRNO,2019-10-04-09-00-51,3,18,0.6064685965765053,right,both,biased-switch,96,0,left,right,0.203
MME2000MRNO,2019-10-04-09-00-51,3,19,0.5990000009862176,left,probe,biased-switch,-1,-30,left,left,0.199
MME2000MRNO,2019-10-04-09-00-51,3,20,0.6280752057261492,left,both,biased-switch,95,-30,left,left,0.142
MME2000MRNO,2019-10-04-09-00-51,3,21,0.5007771774631239,left,probe,biased-switch,-1,5,left,left,0.134
MME2000MRNO,2019-10-04-09-00-51,3,22,0.6549432131453852,left,both,biased-switch,109,5,left,right,0.275
MME2000MRNO,2019-10-04-09-00-51,3,23,0.5688741327272595,right,probe,ambiguous-switch,-1,20,left,left,0.177
MME2000MRNO,2019-10-04-09-00-51,3,24,0.5386506757034235,right,both,ambiguous-switch,98,20,left,right,0.136
MME2000MRNO,2019-10-04-09-00-51,3,25,0.6480434666046619,left,probe,biased-switch,-1,-5,left,left,0.151
MME2000MRNO,2019-10-04-09-00-51,3,26,0.6713316924032919,left,both,biased-switch,97,-5,left,left,0.153
MME2000MRNO,2019-10-04-09-00-51,3,27,0.6639236291118742,left,probe,ambiguous-switch,-1,-5,left,left,0.12
MME2000MRNO,2019-10-04-09-00-51,3,28,0.6887296315111098,left,both,ambiguous-switch,93,-5,left,left,0.107
MME2000MRNO,2019-10-04-09-00-51,3,29,0.6285898134742649,right,probe,biased-switch,-1,10,left,left,0.035
MME2000MRNO,2019-10-04-09-00-51,3,30,0.6068563826431308,right,both,biased-switch,93,10,left,right,0.122
MME2000MRNO,2019-10-04-09-00-51,3,31,0.5581494713009104,left,probe,ambiguous-switch,-1,-30,left,left,0.08
MME2000MRNO,2019-10-04-09-00-51,3,32,0.5861090916939247,left,both,ambiguous-switch,93,-30,left,left,0.174
MME2000MRNO,2019-10-04-09-00-51,3,33,0.5277754865217614,left,probe,ambiguous-switch,-1,0,left,left,0.146
MME2000MRNO,2019-10-04-09-00-51,3,34,0.6734904699016793,left,both,ambiguous-switch,105,0,left,left,0.154
MME2000MRNO,2019-10-04-09-00-51,3,35,0.5153241784345922,right,probe,biased-switch,-1,20,left,left,0.045
MME2000MRNO,2019-10-04-09-00-51,3,36,0.6787326169404512,right,both,biased-switch,99,20,left,right,0.103
MME2000MRNO,2019-10-04-09-00-51,3,37,0.550480243032015,left,probe,ambiguous-switch,-1,5,left,left,0.146
MME2000MRNO,2019-10-04-09-00-51,3,38,0.6199886000492504,left,both,ambiguous-switch,107,5,left,left,0.027
MME2000MRNO,2019-10-04-09-00-51,3,39,0.6841237876767585,right,probe,biased-switch,-1,30,left,left,0.082
MME2000MRNO,2019-10-04-09-00-51,3,40,0.6744187891691605,right,both,biased-switch,101,30,left,left,0.053
MME2000MRNO,2019-10-04-09-00-51,3,41,0.6483695476670692,right,probe,biased-switch,-1,40,left,left,0.087
MME2000MRNO,2019-10-04-09-00-51,3,42,0.5322053479466581,right,both,biased-switch,105,40,left,left,0.117
MME2000MRNO,2019-10-04-09-00-51,3,43,0.5033109928006068,right,probe,ambiguous-switch,-1,-20,left,left,0.072
MME2000MRNO,2019-10-04-09-00-51,3,44,0.6030184304473484,right,both,ambiguous-switch,100,-20,left,left,0.092
MME2000MRNO,2019-10-04-09-00-51,3,45,0.6274206347154327,left,probe,ambiguous-switch,-1,30,left,left,0.467
MME2000MRNO,2019-10-04-09-00-51,3,46,0.5684499152566213,left,both,ambiguous-switch,105,30,left,left,0.182
MME2000MRNO,2019-10-04-09-00-51,3,47,0.6330891411263098,left,probe,biased-switch,-1,-20,left,left,0.029
MME2000MRNO,2019-10-04-09-00-51,3,48,0.6773197875088003,left,both,biased-switch,94,-20,left,left,0.195
MME2000MRNO,2019-10-04-09-00-51,3,49,0.5320937578942491,right,probe,biased-switch,-1,-10,left,left,0.032
MME2000MRNO,2019-10-04-09-00-51,3,50,0.6193484310598367,right,both,biased-switch,92,-10,left,left,0.13
MME2000MRNO,2019-10-04-09-00-51,3,51,0.610756793058187,left,probe,ambiguous-switch,-1,-10,left,left,0.098
MME2000MRNO,2019-10-04-09-00-51,3,52,0.6639798983042866,left,both,ambiguous-switch,92,-10,left,left,0.148
MME2000MRNO,2019-10-04-09-00-51,3,53,0.6208345545096592,right,probe,ambiguous-switch,-1,10,left,left,0.156
MME2000MRNO,2019-10-04-09-00-51,3,54,0.6591684244422309,right,both,ambiguous-switch,92,10,left,right,0.18
MME2000MRNO,2019-10-04-09-00-51,3,55,0.695467529897082,right,probe,ambiguous-switch,-1,40,right,right,0.162
MME2000MRNO,2019-10-04-09-00-51,3,56,0.6532410181847418,right,both,ambiguous-switch,96,40,right,left,0.061
MME2000MRNO,2019-10-04-09-00-51,3,57,0.6933549694319169,right,probe,biased-switch,-1,0,left,left,0.162
MME2000MRNO,2019-10-04-09-00-51,3,58,0.5586897479687362,right,both,biased-switch,105,0,left,left,0.18
MME2000MRNO,2019-10-04-09-00-51,3,59,0.5800260349354228,right,probe,biased-switch,-1,-30,left,left,0.011
MME2000MRNO,2019-10-04-09-00-51,3,60,0.6068182049684312,right,both,biased-switch,101,-30,left,left,0.156
MME2000MRNO,2019-10-04-09-00-51,3,61,0.5074510343466048,right,probe,biased-switch,-1,5,left,left,0.155
MME2000MRNO,2019-10-04-09-00-51,3,62,0.5047041695613306,right,both,biased-switch,96,5,left,right,0.108
MME2000MRNO,2019-10-04-09-00-51,3,63,0.6027831168128984,left,probe,ambiguous-switch,-1,20,right,right,0.046
MME2000MRNO,2019-10-04-09-00-51,3,64,0.6693254796476871,left,both,ambiguous-switch,90,20,right,left,0.024
MME2000MRNO,2019-10-04-09-00-51,3,65,0.6123439460342488,left,probe,biased-switch,-1,-5,left,left,0.088
MME2000MRNO,2019-10-04-09-00-51,3,66,0.6682066818733291,left,both,biased-switch,95,-5,left,left,0.186
MME2000MRNO,2019-10-04-09-00-51,3,67,0.6458643774081639,right,probe,ambiguous-switch,-1,-5,left,left,0.171
MME2000MRNO,2019-10-04-09-00-51,3,68,0.663717868470713,right,both,ambiguous-switch,99,-5,left,left,0.192
MME2000MRNO,2019-10-04-09-00-51,3,69,0.5512567499836222,left,probe,biased-switch,-1,10,left,left,0.177
MME2000MRNO,2019-10-04-09-00-51,3,70,0.5042488985782745,left,both,biased-switch,92,10,left,right,0.072
MME2000MRNO,2019-10-04-09-00-51,3,71,0.5880280237354552,right,probe,ambiguous-switch,-1,-30,left,left,0.13
MME2000MRNO,2019-10-04-09-00-51,3,72,0.6897960697366663,right,both,ambiguous-switch,97,-30,left,left,0.171
MME2000MRNO,2019-10-04-09-00-51,3,73,0.5244611434366513,right,probe,ambiguous-switch,-1,0,left,left,0.142
MME2000MRNO,2019-10-04-09-00-51,3,74,0.5159122217893388,right,both,ambiguous-switch,106,0,left,left,0.18
MME2000MRNO,2019-10-04-09-00-51,3,75,0.6363205683286308,left,probe,biased-switch,-1,20,left,left,0.138
MME2000MRNO,2019-10-04-09-00-51,3,76,0.6743774462793476,left,both,biased-switch,109,20,left,right,0.148
MME2000MRNO,2019-10-04-09-00-51,3,77,0.545940108012142,left,probe,ambiguous-switch,-1,5,left,left,0.151
MME2000MRNO,2019-10-04-09-00-51,3,78,0.5373210119786467,left,both,ambiguous-switch,107,5,left,left,0.22
MME2000MRNO,2019-10-04-09-00-51,3,79,0.6112793963097471,left,probe,biased-switch,-1,30,right,right,0.178
MME2000MRNO,2019-10-04-09-00-51,3,80,0.6674788689626445,left,both,biased-switch,96,30,right,left,0.219
MME2000MRNO,2019-10-04-09-00-51,4,1,0.6936063285318457,right,probe,biased-switch,-1,-20,left,left,0.502
MME2000MRNO,2019-10-04-09-00-51,4,2,0.6040340157548709,right,both,biased-switch,108,-20,left,left,0.237
MME2000MRNO,2019-10-04-09-00-51,4,3,0.6661898319051333,right,probe,biased-switch,-1,-10,left,left,1.137
MME2000MRNO,2019-10-04-09-00-51,4,4,0.5821260487489581,right,both,biased-switch,90,-10,left,left,0.155
MME2000MRNO,2019-10-04-09-00-51,4,5,0.5424035368816169,left,probe,ambiguous-switch,-1,5,left,left,0.154
MME2000MRNO,2019-10-04-09-00-51,4,6,0.6457001112045311,left,both,ambiguous-switch,105,5,left,right,0.073
MME2000MRNO,2019-10-04-09-00-51,4,7,0.6138640039904228,right,probe,ambiguous-switch,-1,-20,left,left,0.077
MME2000MRNO,2019-10-04-09-00-51,4,8,0.5799393130230152,right,both,ambiguous-switch,99,-20,left,left,0.118
MME2000MRNO,2019-10-04-09-00-51,4,9,0.5177237822336483,right,probe,ambiguous-switch,-1,40,left,left,0.145
MME2000MRNO,2019-10-04-09-00-51,4,10,0.5322797868031091,right,both,ambiguous-switch,95,40,left,left,0.04
MME2000MRNO,2019-10-04-09-00-51,4,11,0.5903755043275704,right,probe,ambiguous-switch,-1,0,left,left,0.044
MME2000MRNO,2019-10-04-09-00-51,4,12,0.6490878842324995,right,both,ambiguous-switch,94,0,left,left,0.151
MME2000MRNO,2019-10-04-09-00-51,4,13,0.5859845280469409,right,probe,biased-switch,-1,20,left,left,0.152
MME2000MRNO,2019-10-04-09-00-51,4,14,0.6870871770833168,right,both,biased-switch,92,20,left,right,0.208
MME2000MRNO,2019-10-04-09-00-51,4,15,0.6547245593778455,left,probe,ambiguous-switch,-1,20,right,right,0.131
MME2000MRNO,2019-10-04-09-00-51,4,16,0.6125051160218922,left,both,ambiguous-switch,108,20,right,left,0.367
MME2000MRNO,2019-10-04-09-00-51,4,17,0.6668049480712732,right,probe,ambiguous-switch,-1,-30,right,right,0.11
MME2000MRNO,2019-10-04-09-00-51,4,18,0.6819159396282035,right,both,ambiguous-switch,103,-30,right,right,0.194
MME2000MRNO,2019-10-04-09-00-51,4,19,0.5178380915668166,right,probe,biased-switch,-1,0,right,right,0.124
MME2000MRNO,2019-10-04-09-00-51,4,20,0.5284692073631557,right,both,biased-switch,100,0,right,left,0.116
MME2000MRNO,2019-10-04-09-00-51,4,21,0.6135847084343619,right,probe,biased-switch,-1,5,left,left,0.103
MME2000MRNO,2019-10-04-09-00-51,4,22,0.5430784974672489,right,both,biased-switch,109,5,left,right,0.178
MME2000MRNO,2019-10-04-09-00-51,4,23,0.6157113261791078,right,probe,biased-switch,-1,40,right,right,0.205
MME2000MRNO,2019-10-04-09-00-51,4,24,0.5601057274622553,right,both,biased-switch,109,40,right,right,0.124
MME2000MRNO,2019-10-04-09-00-51,4,25,0.6860254196100335,right,probe,ambiguous-switch,-1,-5,right,right,0.079
MME2000MRNO,2019-10-04-09-00-51,4,26,0.5631356608226208,right,both,ambiguous-switch,94,-5,right,right,0.128
MME2000MRNO,2019-10-04-09-00-51,4,27,0.5320412278659835,right,probe,ambiguous-switch,-1,10,right,right,0.206
MME2000MRNO,2019-10-04-09-00-51,4,28,0.5225000067198587,right,both,ambiguous-switch,104,10,right,right,0.182
MME2000MRNO,2019-10-04-09-00-51,4,29,0.5750257904539888,right,probe,ambiguous-switch,-1,30,right,right,0.208
MME2000MRNO,2019-10-04-09-00-51,4,30,0.5758028831218609,right,both,ambiguous-switch,99,30,right,right,0.059
MME2000MRNO,2019-10-04-09-00-51,4,31,0.544631673912818,right,probe,biased-switch,-1,-30,right,right,0.082
MME2000MRNO,2019-10-04-09-00-51,4,32,0.512641257104687,right,both,biased-switch,108,-30,right,right,0.191
MME2000MRNO,2019-10-04-09-00-51,4,33,0.6536295281903605,left,probe,ambiguous-switch,-1,-10,right,right,0.106
MME2000MRNO,2019-10-04-09-00-51,4,34,0.5843030240413619,left,both,ambiguous-switch,105,-10,right,left,0.199
MME2000MRNO,2019-10-04-09-00-51,4,35,0.6854968810925185,right,probe,biased-switch,-1,-5,right,right,0.113
MME2000MRNO,2019-10-04-09-00-51,4,36,0.6197231906646187,right,both,biased-switch,99,-5,right,right,0.13
MME2000MRNO,2019-10-04-09-00-51,4,37,0.5882669567330704,left,probe,biased-switch,-1,30,right,right,0.065
MME2000MRNO,2019-10-04-09-00-51,4,38,0.6612905319015505,left,both,biased-switch,103,30,right,right,0.055
MME2000MRNO,2019-10-04-09-00-51,4,39,0.5039907288932807,right,probe,biased-switch,-1,10,right,right,0.193
MME2000MRNO,2019-10-04-09-00-51,4,40,0.670176494883198,right,both,biased-switch,102,10,right,right,0.15
MME2000MRNO,2019-10-04-09-00-51,4,41,0.5475198867002383,right,probe,biased-switch,-1,-20,right,right,0.116
MME2000MRNO,2019-10-04-09-00-51,4,42,0.6645068615009045,right,both,biased-switch,105,-20,right,right,0.156
MME2000MRNO,2019-10-04-09-00-51,4,43,0.655085335611872,left,probe,biased-switch,-1,-10,right,right,0.039
MME2000MRNO,2019-10-04-09-00-51,4,44,0.51722587822856,left,both,biased-switch,91,-10,right,right,0.157
MME2000MRNO,2019-10-04-09-00-51,4,45,0.5495639474396388,left,probe,ambiguous-switch,-1,5,right,right,0.074
MME2000MRNO,2019-10-04-09-00-51,4,46,0.6836017814251902,left,both,ambiguous-switch,104,5,right,left,0.162
MME2000MRNO,2019-10-04-09-00-51,4,47,0.6592705968965549,left,probe,ambiguous-switch,-1,-20,right,right,0.163
MME2000MRNO,2019-10-04-09-00-51,4,48,0.6818129449939618,left,both,ambiguous-switch,109,-20,right,right,0.126
MME2000MRNO,2019-10-04-09-00-51,4,49,0.5476173790984062,left,probe,ambiguous-switch,-1,40,right,right,0.098
MME2000MRNO,2019-10-04-09-00-51,4,50,0.5290346859401891,left,both,ambiguous-switch,102,40,right,right,0.053
MME2000MRNO,2019-10-04-09-00-51,4,51,0.6211056666766378,right,probe,ambiguous-switch,-1,0,right,right,0.024
MME2000MRNO,2019-10-04-09-00-51,4,52,0.5040969332986804,right,both,ambiguous-switch,96,0,right,right,0.076
MME2000MRNO,2019-10-04-09-00-51,4,53,0.6463548702876446,left,probe,biased-switch,-1,20,right,right,0.007
MME2000MRNO,2019-10-04-09-00-51,4,54,0.501391526623993,left,both,biased-switch,104,20,right,right,0.158
MME2000MRNO,2019-10-04-09-00-51,4,55,0.6048190491061908,right,probe,ambiguous-switch,-1,20,right,right,0.119
MME2000MRNO,2019-10-04-09-00-51,4,56,0.6702224832259378,right,both,ambiguous-switch,109,20,right,right,0.086
MME2000MRNO,2019-10-04-09-00-51,4,57,0.6933515600271843,right,probe,ambiguous-switch,-1,-30,right,right,0.069
MME2000MRNO,2019-10-04-09-00-51,4,58,0.6626454740382459,right,both,ambiguous-switch,102,-30,right,right,2.577
MME2000MRNO,2019-10-04-09-00-51,4,59,0.5763592412577563,left,probe,biased-switch,-1,0,right,right,1.742
MME2000MRNO,2019-10-04-09-00-51,4,60,0.538895463593166,left,both,biased-switch,93,0,right,right,0.097
MME2000MRNO,2019-10-04-09-00-51,4,61,0.5612760151926002,left,probe,biased-switch,-1,5,right,right,0.031
MME2000MRNO,2019-10-04-09-00-51,4,62,0.6667923687208458,left,both,biased-switch,98,5,right,left,0.158
MME2000MRNO,2019-10-04-09-00-51,4,63,0.6943279976866694,right,probe,biased-switch,-1,40,right,right,0.134
MME2000MRNO,2019-10-04-09-00-51,4,64,0.5869699414494041,right,both,biased-switch,108,40,right,left,2.587
MME2000MRNO,2019-10-04-09-00-51,4,65,0.551070905079055,right,probe,ambiguous-switch,-1,-5,right,right,0.212
MME2000MRNO,2019-10-04-09-00-51,4,66,0.6787102725203114,right,both,ambiguous-switch,106,-5,right,right,0.176
MME2000MRNO,2019-10-04-09-00-51,4,67,0.6834149705134744,right,probe,ambiguous-switch,-1,10,right,right,0.143
MME2000MRNO,2019-10-04-09-00-51,4,68,0.5312599367125237,right,both,ambiguous-switch,95,10,right,left,0.171
MME2000MRNO,2019-10-04-09-00-51,4,69,0.6198540614436596,left,probe,ambiguous-switch,-1,30,right,right,0.151
MME2000MRNO,2019-10-04-09-00-51,4,70,0.6158167789188641,left,both,ambiguous-switch,108,30,right,right,0.151
MME2000MRNO,2019-10-04-09-00-51,4,71,0.567190131191396,left,probe,biased-switch,-1,-30,right,right,0.114
MME2000MRNO,2019-10-04-09-00-51,4,72,0.5805615561061583,left,both,biased-switch,103,-30,right,right,0.136
MME2000MRNO,2019-10-04-09-00-51,4,73,0.6593172208230055,left,probe,ambiguous-switch,-1,-10,right,right,0.171
MME2000MRNO,2019-10-04-09-00-51,4,74,0.6449990583124205,left,both,ambiguous-switch,90,-10,right,left,0.223
MME2000MRNO,2019-10-04-09-00-51,4,75,0.5413931346167987,left,probe,biased-switch,-1,-5,right,right,0.08
MME2000MRNO,2019-10-04-09-00-51,4,76,0.628900508687934,left,both,biased-switch,91,-5,right,left,0.201
MME2000MRNO,2019-10-04-09-00-51,4,77,0.50525192935585,right,probe,biased-switch,-1,30,right,right,0.106
MME2000MRNO,2019-10-04-09-00-51,4,78,0.516134843336341,right,both,biased-switch,91,30,right,right,0.179
MME2000MRNO,2019-10-04-09-00-51,4,79,0.6530441449737532,right,probe,biased-switch,-1,10,right,right,0.263
MME2000MRNO,2019-10-04-09-00-51,4,80,0.6616407409187391,right,both,biased-switch,92,10,right,left,0.138
MME2000MRNO,2019-10-04-09-00-51,5,1,0.6603900738228685,right,probe,ambiguous-switch,-1,0,right,right,0.184
MME2000MRNO,2019-10-04-09-00-51,5,2,0.5107133140758078,right,both,ambiguous-switch,103,0,right,right,0.088
MME2000MRNO,2019-10-04-09-00-51,5,3,0.6435574056902602,right,probe,biased-switch,-1,-5,right,right,0.045
MME2000MRNO,2019-10-04-09-00-51,5,4,0.5647016905190633,right,both,biased-switch,106,-5,right,right,0.156
MME2000MRNO,2019-10-04-09-00-51,5,5,0.5081468237446018,right,probe,ambiguous-switch,-1,-5,right,right,0.207
MME2000MRNO,2019-10-04-09-00-51,5,6,0.5531506233322633,right,both,ambiguous-switch,96,-5,right,right,0.213
MME2000MRNO,2019-10-04-09-00-51,5,7,0.5740352473681061,left,probe,biased-switch,-1,5,right,right,0.062
MME2000MRNO,2019-10-04-09-00-51,5,8,0.6661391052126109,left,both,biased-switch,97,5,right,left,0.209
MME2000MRNO,2019-10-04-09-00-51,5,9,0.5434346592260599,right,probe,biased-switch,-1,10,right,right,0.154
MME2000MRNO,2019-10-04-09-00-51,5,10,0.6250125175788684,right,both,biased-switch,96,10,right,left,0.138
MME2000MRNO,2019-10-04-09-00-51,5,11,0.5798507313503982,left,probe,ambiguous-switch,-1,40,right,right,0.267
MME2000MRNO,2019-10-04-09-00-51,5,12,0.6411827804831358,left,both,ambiguous-switch,91,40,right,right,0.305
MME2000MRNO,2019-10-04-09-00-51,5,13,0.5989917595709808,left,probe,ambiguous-switch,-1,5,right,right,0.136
MME2000MRNO,2019-10-04-09-00-51,5,14,0.520151139689208,left,both,ambiguous-switch,101,5,right,right,0.147
MME2000MRNO,2019-10-04-09-00-51,5,15,0.6569511397451604,left,probe,ambiguous-switch,-1,-20,right,right,0.121
MME2000MRNO,2019-10-04-09-00-51,5,16,0.6658542025278638,left,both,ambiguous-switch,92,-20,right,right,0.269
MME2000MRNO,2019-10-04-09-00-51,5,17,0.6771666164267822,right,probe,ambiguous-switch,-1,-30,right,right,0.248
MME2000MRNO,2019-10-04-09-00-51,5,18,0.568523323078622,right,both,ambiguous-switch,97,-30,right,right,0.178
MME2000MRNO,2019-10-04-09-00-51,5,19,0.5120045143835894,left,probe,biased-switch,-1,-20,right,right,0.194
MME2000MRNO,2019-10-04-09-00-51,5,20,0.6528843438277091,left,both,biased-switch,94,-20,right,right,0.307
MME2000MRNO,2019-10-04-09-00-51,5,21,0.6346822562471452,right,probe,ambiguous-switch,-1,-10,right,right,0.177
MME2000MRNO,2019-10-04-09-00-51,5,22,0.5163344652473206,right,both,ambiguous-switch,109,-10,right,right,0.093
MME2000MRNO,2019-10-04-09-00-51,5,23,0.521793156296611,right,probe,biased-switch,-1,0,right,right,0.151
MME2000MRNO,2019-10-04-09-00-51,5,24,0.6817952501868632,right,both,biased-switch,103,0,right,right,0.216
MME2000MRNO,2019-10-04-09-00-51,5,25,0.5580834776162721,right,probe,biased-switch,-1,-30,right,right,0.042
MME2000MRNO,2019-10-04-09-00-51,5,26,0.6663891625940932,right,both,biased-switch,109,-30,right,right,0.236
MME2000MRNO,2019-10-04-09-00-51,5,27,0.6046891399307409,right,probe,biased-switch,-1,20,right,right,0.346
MME2000MRNO,2019-10-04-09-00-51,5,28,0.6862239144267583,right,both,biased-switch,99,20,right,left,0.39
MME2000MRNO,2019-10-04-09-00-51,5,29,0.6015398465053275,left,probe,biased-switch,-1,40,right,right,0.174
MME2000MRNO,2019-10-04-09-00-51,5,30,0.5915442605944158,left,both,biased-switch,102,40,right,right,0.178
MME2000MRNO,2019-10-04-09-00-51,5,31,0.5950591198299044,left,probe,ambiguous-switch,-1,10,right,right,0.374
MME2000MRNO,2019-10-04-09-00-51,5,32,0.5863752057906604,left,both,ambiguous-switch,108,10,right,right,0.008
MME2000MRNO,2019-10-04-09-00-51,5,33,0.6725832414013719,left,probe,ambiguous-switch,-1,30,right,right,0.363
MME2000MRNO,2019-10-04-09-00-51,5,34,0.5838937978320567,left,both,ambiguous-switch,91,30,right,right,0.287
MME2000MRNO,2019-10-04-09-00-51,5,35,0.529972922828589,left,probe,biased-switch,-1,30,right,right,0.27
MME2000MRNO,2019-10-04-09-00-51,5,36,0.6621292599439612,left,both,biased-switch,105,30,right,right,0.233
MME2000MRNO,2019-10-04-09-00-51,5,37,0.6935887097534844,right,probe,ambiguous-switch,-1,20,right,right,0.173
MME2000MRNO,2019-10-04-09-00-51,5,38,0.5402553761987959,right,both,ambiguous-switch,97,20,right,right,0.36
MME2000MRNO,2019-10-04-09-00-51,5,39,0.5040410921879184,left,probe,biased-switch,-1,-10,right,right,0.111
MME2000MRNO,2019-10-04-09-00-51,5,40,0.6284738529013514,left,both,biased-switch,104,-10,right,right,0.14
MME2000MRNO,2019-10-04-09-00-51,5,41,0.5069134528167795,left,probe,ambiguous-switch,-1,0,right,right,0.11
MME2000MRNO,2019-10-04-09-00-51,5,42,0.5331625678012811,left,both,ambiguous-switch,104,0,right,right,0.021
MME2000MRNO,2019-10-04-09-00-51,5,43,0.5074742650142217,left,probe,biased-switch,-1,-5,right,right,0.135
MME2000MRNO,2019-10-04-09-00-51,5,44,0.5030750525683422,left,both,biased-switch,99,-5,right,left,0.197
MME2000MRNO,2019-10-04-09-00-51,5,45,0.5894644887279387,right,probe,ambiguous-switch,-1,-5,right,right,0.078
MME2000MRNO,2019-10-04-09-00-51,5,46,0.5181660992872543,right,both,ambiguous-switch,100,-5,right,right,0.203
MME2000MRNO,2019-10-04-09-00-51,5,47,0.6707521847922016,right,probe,biased-switch,-1,5,right,right,0.204
MME2000MRNO,2019-10-04-09-00-51,5,48,0.6773622948325463,right,both,biased-switch,109,5,right,left,0.201
MME2000MRNO,2019-10-04-09-00-51,5,49,0.5428585273243655,left,probe,biased-switch,-1,10,left,left,0.19
MME2000MRNO,2019-10-04-09-00-51,5,50,0.6594700026004522,left,both,biased-switch,101,10,left,right,0.216
MME2000MRNO,2019-10-04-09-00-51,5,51,0.6174269176174879,right,probe,ambiguous-switch,-1,40,left,left,0.06
MME2000MRNO,2019-10-04-09-00-51,5,52,0.6550324574627588,right,both,ambiguous-switch,91,40,left,left,0.167
MME2000MRNO,2019-10-04-09-00-51,5,53,0.6666153983659454,right,probe,ambiguous-switch,-1,5,left,left,0.222
MME2000MRNO,2019-10-04-09-00-51,5,54,0.5976817282256254,right,both,ambiguous-switch,98,5,left,left,0.182
MME2000MRNO,2019-10-04-09-00-51,5,55,0.640085344530569,left,probe,ambiguous-switch,-1,-20,left,left,0.201
MME2000MRNO,2019-10-04-09-00-51,5,56,0.5176064131532293,left,both,ambiguous-switch,107,-20,left,left,0.218
MME2000MRNO,2019-10-04-09-00-51,5,57,0.6520833145972075,left,probe,ambiguous-switch,-1,-30,left,left,0.609
MME2000MRNO,2019-10-04-09-00-51,5,58,0.6660368139707334,left,both,ambiguous-switch,94,-30,left,left,0.172
MME2000MRNO,2019-10-04-09-00-51,5,59,0.5222908632458396,left,probe,biased-switch,-1,-20,left,left,0.179
MME2000MRNO,2019-10-04-09-00-51,5,60,0.5321636801172949,left,both,biased-switch,93,-20,left,left,0.258
MME2000MRNO,2019-10-04-09-00-51,5,61,0.5748192299823516,left,probe,ambiguous-switch,-1,-10,left,left,0.202
MME2000MRNO,2019-10-04-09-00-51,5,62,0.6306084395177202,left,both,ambiguous-switch,109,-10,left,left,0.188
MME2000MRNO,2019-10-04-09-00-51,5,63,0.5291207504652605,left,probe,biased-switch,-1,0,left,left,0.217
MME2000MRNO,2019-10-04-09-00-51,5,64,0.589516891407738,left,both,biased-switch,92,0,left,right,0.246
MME2000MRNO,2019-10-04-09-00-51,5,65,0.5442741865791767,left,probe,biased-switch,-1,-30,right,right,0.192
MME2000MRNO,2019-10-04-09-00-51,5,66,0.5270503477975284,left,both,biased-switch,95,-30,right,right,0.15
MME2000MRNO,2019-10-04-09-00-51,5,67,0.662850306048471,left,probe,biased-switch,-1,20,right,right,0.168
MME2000MRNO,2019-10-04-09-00-51,5,68,0.5066135308197676,left,both,biased-switch,104,20,right,right,0.169
MME2000MRNO,2019-10-04-09-00-51,5,69,0.5921651371075662,left,probe,biased-switch,-1,40,right,right,0.144
MME2000MRNO,2019-10-04-09-00-51,5,70,0.5499091662775328,left,both,biased-switch,101,40,right,right,0.088
MME2000MRNO,2019-10-04-09-00-51,5,71,0.6971445529308395,left,probe,ambiguous-switch,-1,10,right,right,0.148
MME2000MRNO,2019-10-04-09-00-51,5,72,0.6819571212186635,left,both,ambiguous-switch,94,10,right,left,0.292
MME2000MRNO,2019-10-04-09-00-51,5,73,0.5819206749331579,left,probe,ambiguous-switch,-1,30,right,right,0.122
MME2000MRNO,2019-10-04-09-00-51,5,74,0.6467560217957438,left,both,ambiguous-switch,108,30,right,right,0.097
MME2000MRNO,2019-10-04-09-00-51,5,75,0.6701705123922608,right,probe,biased-switch,-1,30,right,right,0.23
MME2000MRNO,2019-10-04-09-00-51,5,76,0.6409855446204088,right,both,biased-switch,95,30,right,right,0.108
MME2000MRNO,2019-10-04-09-00-51,5,77,0.6712287795708575,right,probe,ambiguous-switch,-1,20,right,right,0.163
MME2000MRNO,2019-10-04-09-00-51,5,78,0.5766679971267256,right,both,ambiguous-switch,101,20,right,right,0.049
MME2000MRNO,2019-10-04-09-00-51,5,79,0.6514384243798593,left,probe,biased-switch,-1,-10,left,left,0.177
MME2000MRNO,2019-10-04-09-00-51,5,80,0.6035834308502993,left,both,biased-switch,101,-10,left,right,0.14
MME2000MRNO,2019-10-04-09-00-51,6,1,0.508879863732689,right,probe,ambiguous-switch,-1,-20,right,right,0.144
MME2000MRNO,2019-10-04-09-00-51,6,2,0.607067000622623,right,both,ambiguous-switch,91,-20,right,right,0.139
MME2000MRNO,2019-10-04-09-00-51,6,3,0.5422678423358362,right,probe,ambiguous-switch,-1,0,right,right,0.106
MME2000MRNO,2019-10-04-09-00-51,6,4,0.6365570268070302,right,both,ambiguous-switch,105,0,right,right,0.184
MME2000MRNO,2019-10-04-09-00-51,6,5,0.6173887968691419,right,probe,biased-switch,-1,-10,right,right,0.133
MME2000MRNO,2019-10-04-09-00-51,6,6,0.6623483487295585,right,both,biased-switch,110,-10,right,right,0.09
MME2000MRNO,2019-10-04-09-00-51,6,7,0.6958552108886502,right,probe,biased-switch,-1,-30,right,right,0.046
MME2000MRNO,2019-10-04-09-00-51,6,8,0.671014052155617,right,both,biased-switch,108,-30,right,right,0.095
MME2000MRNO,2019-10-04-09-00-51,6,9,0.5192485872483219,right,probe,biased-switch,-1,-20,right,right,0.002
MME2000MRNO,2019-10-04-09-00-51,6,10,0.5893718627829483,right,both,biased-switch,92,-20,right,right,0.15
MME2000MRNO,2019-10-04-09-00-51,6,11,0.5800002850437649,left,probe,ambiguous-switch,-1,-10,right,right,0.094
MME2000MRNO,2019-10-04-09-00-51,6,12,0.5255773248326189,left,both,ambiguous-switch,107,-10,right,right,0.144
MME2000MRNO,2019-10-04-09-00-51,6,13,0.6745290326128884,left,probe,biased-switch,-1,20,right,right,0.145
MME2000MRNO,2019-10-04-09-00-51,6,14,0.5317686705035256,left,both,biased-switch,101,20,right,right,3.028
MME2000MRNO,2019-10-04-09-00-51,6,15,0.5303046927402305,right,probe,ambiguous-switch,-1,40,right,right,0.172
MME2000MRNO,2019-10-04-09-00-51,6,16,0.5036708417257594,right,both,ambiguous-switch,91,40,right,right,0.077
MME2000MRNO,2019-10-04-09-00-51,6,17,0.5169743750152632,left,probe,biased-switch,-1,30,right,right,0.068
MME2000MRNO,2019-10-04-09-00-51,6,18,0.5865610461020608,left,both,biased-switch,91,30,right,right,0.177
MME2000MRNO,2019-10-04-09-00-51,6,19,0.5309321460285832,right,probe,ambiguous-switch,-1,10,right,right,0.142
MME2000MRNO,2019-10-04-09-00-51,6,20,0.6840989232230892,right,both,ambiguous-switch,92,10,right,right,0.315
MME2000MRNO,2019-10-04-09-00-51,6,21,0.5733845818468192,right,probe,ambiguous-switch,-1,20,right,right,0.204
MME2000MRNO,2019-10-04-09-00-51,6,22,0.5586221614933523,right,both,ambiguous-switch,103,20,right,left,0.14
MME2000MRNO,2019-10-04-09-00-51,6,23,0.5458894647200514,left,probe,biased-switch,-1,40,right,right,0.224
MME2000MRNO,2019-10-04-09-00-51,6,24,0.5568038811522846,left,both,biased-switch,98,40,right,right,0.172
MME2000MRNO,2019-10-04-09-00-51,6,25,0.6079055757448887,left,probe,ambiguous-switch,-1,-5,right,right,0.173
MME2000MRNO,2019-10-04-09-00-51,6,26,0.6938734958928799,left,both,ambiguous-switch,92,-5,right,right,0.158
MME2000MRNO,2019-10-04-09-00-51,6,27,0.5600457836786887,left,probe,ambiguous-switch,-1,5,right,right,0.243
MME2000MRNO,2019-10-04-09-00-51,6,28,0.69920553282619,left,both,ambiguous-switch,104,5,right,left,0.138
MME2000MRNO,2019-10-04-09-00-51,6,29,0.6681619283234662,right,probe,ambiguous-switch,-1,-30,right,right,0.126
MME2000MRNO,2019-10-04-09-00-51,6,30,0.6093383933502307,right,both,ambiguous-switch,90,-30,right,right,0.238
MME2000MRNO,2019-10-04-09-00-51,6,31,0.6452549291232192,left,probe,biased-switch,-1,10,right,right,0.189
MME2000MRNO,2019-10-04-09-00-51,6,32,0.5752207431285148,left,both,biased-switch,110,10,right,left,0.552
MME2000MRNO,2019-10-04-09-00-51,6,33,0.6681082330618386,right,probe,biased-switch,-1,-5,right,right,0.195
MME2000MRNO,2019-10-04-09-00-51,6,34,0.6534661003487918,right,both,biased-switch,93,-5,right,right,0.168
MME2000MRNO,2019-10-04-09-00-51,6,35,0.5898182015211277,left,probe,biased-switch,-1,0,right,right,0.189
MME2000MRNO,2019-10-04-09-00-51,6,36,0.5318386653491499,left,both,biased-switch,98,0,right,left,0.224
MME2000MRNO,2019-10-04-09-00-51,6,37,0.5427063109800028,right,probe,biased-switch,-1,5,right,right,0.189
MME2000MRNO,2019-10-04-09-00-51,6,38,0.6552557504813081,right,both,biased-switch,102,5,right,left,0.181
MME2000MRNO,2019-10-04-09-00-51,6,39,0.5987497650473466,left,probe,ambiguous-switch,-1,30,right,right,0.342
MME2000MRNO,2019-10-04-09-00-51,6,40,0.502391169771223,left,both,ambiguous-switch,95,30,right,right,0.191
MME2000MRNO,2019-10-04-09-00-51,6,41,0.6603549587985187,left,probe,ambiguous-switch,-1,-20,right,right,0.235
MME2000MRNO,2019-10-04-09-00-51,6,42,0.59067217767414,left,both,ambiguous-switch,91,-20,right,right,0.153
MME2000MRNO,2019-10-04-09-00-51,6,43,0.5189064735621831,right,probe,ambiguous-switch,-1,0,left,left,1.135
MME2000MRNO,2019-10-04-09-00-51,6,44,0.5256663949602584,right,both,ambiguous-switch,106,0,left,right,0.216
MME2000MRNO,2019-10-04-09-00-51,6,45,0.5215134360573483,right,probe,biased-switch,-1,-10,right,right,0.514
MME2000MRNO,2019-10-04-09-00-51,6,46,0.5141529438228915,right,both,biased-switch,94,-10,right,right,0.175
MME2000MRNO,2019-10-04-09-00-51,6,47,0.6435023532781434,right,probe,biased-switch,-1,-30,right,right,0.322
MME2000MRNO,2019-10-04-09-00-51,6,48,0.6523467964200053,right,both,biased-switch,109,-30,right,right,0.347
MME2000MRNO,2019-10-04-09-00-51,6,49,0.5529581214665931,right,probe,biased-switch,-1,-20,right,right,0.43
MME2000MRNO,2019-10-04-09-00-51,6,50,0.6950588135515208,right,both,biased-switch,96,-20,right,right,0.232
MME2000MRNO,2019-10-04-09-00-51,6,51,0.6674651789108529,right,probe,ambiguous-switch,-1,-10,right,right,0.169
MME2000MRNO,2019-10-04-09-00-51,6,52,0.6381140938572399,right,both,ambiguous-switch,93,-10,right,right,0.293
MME2000MRNO,2019-10-04-09-00-51,6,53,0.6096240465188715,left,probe,biased-switch,-1,20,right,right,0.115
MME2000MRNO,2019-10-04-09-00-51,6,54,0.6593889583629075,left,both,biased-switch,94,20,right,right,0.293
MME2000MRNO,2019-10-04-09-00-51,6,55,0.6230137878099808,right,probe,ambiguous-switch,-1,40,right,right,0.122
MME2000MRNO,2019-10-04-09-00-51,6,56,0.5529765356787566,right,both,ambiguous-switch,93,40,right,right,0.235
MME2000MRNO,2019-10-04-09-00-51,6,57,0.6505425565252682,left,probe,biased-switch,-1,30,right,right,0.193
MME2000MRNO,2019-10-04-09-00-51,6,58,0.6855107997628394,left,both,biased-switch,106,30,right,right,0.183
MME2000MRNO,2019-10-04-09-00-51,6,59,0.6836751129680654,right,probe,ambiguous-switch,-1,10,right,right,0.209
MME2000MRNO,2019-10-04-09-00-51,6,60,0.6477026205919062,right,both,ambiguous-switch,105,10,right,right,0.384
MME2000MRNO,2019-10-04-09-00-51,6,61,0.6435099304182732,left,probe,ambiguous-switch,-1,20,right,right,0.222
MME2000MRNO,2019-10-04-09-00-51,6,62,0.5628474435335991,left,both,ambiguous-switch,108,20,right,right,0.116
MME2000MRNO,2019-10-04-09-00-51,6,63,0.6319598555141666,left,probe,biased-switch,-1,40,right,right,0.183
MME2000MRNO,2019-10-04-09-00-51,6,64,0.574280935192291,left,both,biased-switch,110,40,right,right,0.163
MME2000MRNO,2019-10-04-09-00-51,6,65,0.5862589744758121,left,probe,ambiguous-switch,-1,-5,right,right,0.051
MME2000MRNO,2019-10-04-09-00-51,6,66,0.5656965147615675,left,both,ambiguous-switch,105,-5,right,right,0.136
MME2000MRNO,2019-10-04-09-00-51,6,67,0.6106924489932976,right,probe,ambiguous-switch,-1,5,right,right,0.184
MME2000MRNO,2019-10-04-09-00-51,6,68,0.5148393919162401,right,both,ambiguous-switch,95,5,right,right,0.132
MME2000MRNO,2019-10-04-09-00-51,6,69,0.6441548181380299,left,probe,ambiguous-switch,-1,-30,right,right,0.14
MME2000MRNO,2019-10-04-09-00-51,6,70,0.59773768675741,left,both,ambiguous-switch,95,-30,right,right,0.148
MME2000MRNO,2019-10-04-09-00-51,6,71,0.5408143013707469,right,probe,biased-switch,-1,10,right,right,0.033
MME2000MRNO,2019-10-04-09-00-51,6,72,0.5419499075058707,right,both,biased-switch,109,10,right,left,0.165
MME2000MRNO,2019-10-04-09-00-51,6,73,0.6450358328007635,left,probe,biased-switch,-1,-5,right,right,0.215
MME2000MRNO,2019-10-04-09-00-51,6,74,0.6488202746774957,left,both,biased-switch,95,-5,right,right,0.237
MME2000MRNO,2019-10-04-09-00-51,6,75,0.6446337528496455,left,probe,biased-switch,-1,0,right,right,0.19
MME2000MRNO,2019-10-04-09-00-51,6,76,0.6961825421529424,left,both,biased-switch,109,0,right,left,0.196
MME2000MRNO,2019-10-04-09-00-51,6,77,0.6682361448418883,left,probe,biased-switch,-1,5,left,left,0.266
MME2000MRNO,2019-10-04-09-00-51,6,78,0.6514541633383749,left,both,biased-switch,101,5,left,right,0.202
MME2000MRNO,2019-10-04-09-00-51,6,79,0.684887213445111,left,probe,ambiguous-switch,-1,30,right,right,0.338
MME2000MRNO,2019-10-04-09-00-51,6,80,0.6892239948495957,left,both,ambiguous-switch,109,30,right,right,0.239
MME2000MRNO,2019-10-04-09-00-51,7,1,0.5678681488533724,right,probe,ambiguous-switch,-1,-10,right,right,0.153
MME2000MRNO,2019-10-04-09-00-51,7,2,0.5827785513012358,right,both,ambiguous-switch,103,-10,right,right,0.19
MME2000MRNO,2019-10-04-09-00-51,7,3,0.6556583431452858,right,probe,biased-switch,-1,-5,right,right,0.104
MME2000MRNO,2019-10-04-09-00-51,7,4,0.6907474329571776,right,both,biased-switch,96,-5,right,right,0.196
MME2000MRNO,2019-10-04-09-00-51,7,5,0.5313873519331284,left,probe,ambiguous-switch,-1,20,right,right,0.158
MME2000MRNO,2019-10-04-09-00-51,7,6,0.6116683775558421,left,both,ambiguous-switch,105,20,right,left,0.151
MME2000MRNO,2019-10-04-09-00-51,7,7,0.5457727853618427,left,probe,biased-switch,-1,30,right,right,0.082
MME2000MRNO,2019-10-04-09-00-51,7,8,0.6524706513305042,left,both,biased-switch,99,30,right,right,0.135
MME2000MRNO,2019-10-04-09-00-51,7,9,0.5010181800993747,left,probe,biased-switch,-1,0,right,right,0.145
MME2000MRNO,2019-10-04-09-00-51,7,10,0.5935435157474898,left,both,biased-switch,106,0,right,left,0.163
MME2000MRNO,2019-10-04-09-00-51,7,11,0.5941198542349069,right,probe,ambiguous-switch,-1,-5,right,right,0.117
MME2000MRNO,2019-10-04-09-00-51,7,12,0.5595944825821452,right,both,ambiguous-switch,92,-5,right,right,0.189
MME2000MRNO,2019-10-04-09-00-51,7,13,0.6035904306249313,right,probe,biased-switch,-1,-10,right,right,0.157
MME2000MRNO,2019-10-04-09-00-51,7,14,0.5295732778278179,right,both,biased-switch,110,-10,right,right,0.11
MME2000MRNO,2019-10-04-09-00-51,7,15,0.6712199829195967,left,probe,biased-switch,-1,40,right,right,0.153
MME2000MRNO,2019-10-04-09-00-51,7,16,0.5845514253607064,left,both,biased-switch,104,40,right,right,0.093
MME2000MRNO,2019-10-04-09-00-51,7,17,0.6370078056403455,right,probe,biased-switch,-1,10,right,right,0.19
MME2000MRNO,2019-10-04-09-00-51,7,18,0.5795622748333934,right,both,biased-switch,97,10,right,left,0.194
MME2000MRNO,2019-10-04-09-00-51,7,19,0.6343518872199658,right,probe,ambiguous-switch,-1,5,left,left,0.254
MME2000MRNO,2019-10-04-09-00-51,7,20,0.6998238043183286,right,both,ambiguous-switch,103,5,left,left,0.159
MME2000MRNO,2019-10-04-09-00-51,7,21,0.6396549446773011,right,probe,biased-switch,-1,-30,left,left,0.331
MME2000MRNO,2019-10-04-09-00-51,7,22,0.5152862299221568,right,both,biased-switch,107,-30,left,left,0.202
MME2000MRNO,2019-10-04-09-00-51,7,23,0.6865223864472081,left,probe,ambiguous-switch,-1,10,left,left,0.184
MME2000MRNO,2019-10-04-09-00-51,7,24,0.6961865760035484,left,both,ambiguous-switch,96,10,left,left,0.153
MME2000MRNO,2019-10-04-09-00-51,7,25,0.5010320404235511,right,probe,ambiguous-switch,-1,-30,left,left,0.271
MME2000MRNO,2019-10-04-09-00-51,7,26,0.5490655113465275,right,both,ambiguous-switch,93,-30,left,left,0.286
MME2000MRNO,2019-10-04-09-00-51,7,27,0.6187280125765665,right,probe,biased-switch,-1,-20,left,left,0.192
MME2000MRNO,2019-10-04-09-00-51,7,28,0.674037449390188,right,both,biased-switch,109,-20,left,left,0.162
MME2000MRNO,2019-10-04-09-00-51,7,29,0.5842885184500468,left,probe,ambiguous-switch,-1,40,left,left,0.276
MME2000MRNO,2019-10-04-09-00-51,7,30,0.5678958649881053,left,both,ambiguous-switch,92,40,left,left,0.12
MME2000MRNO,2019-10-04-09-00-51,7,31,0.6356356882081167,left,probe,ambiguous-switch,-1,-20,left,left,0.212
MME2000MRNO,2019-10-04-09-00-51,7,32,0.690113514829895,left,both,ambiguous-switch,110,-20,left,left,0.045
MME2000MRNO,2019-10-04-09-00-51,7,33,0.631141589538164,left,probe,ambiguous-switch,-1,30,left,left,0.24
MME2000MRNO,2019-10-04-09-00-51,7,34,0.698813081337643,left,both,ambiguous-switch,97,30,left,left,0.205
MME2000MRNO,2019-10-04-09-00-51,7,35,0.5159277214212605,left,probe,biased-switch,-1,20,left,left,0.261
MME2000MRNO,2019-10-04-09-00-51,7,36,0.5443851663867736,left,both,biased-switch,107,20,left,right,0.19
MME2000MRNO,2019-10-04-09-00-51,7,37,0.5195760062222052,left,probe,biased-switch,-1,5,right,right,0.242
MME2000MRNO,2019-10-04-09-00-51,7,38,0.5720631021360891,left,both,biased-switch,100,5,right,left,0.144
MME2000MRNO,2019-10-04-09-00-51,7,39,0.667910409051659,right,probe,ambiguous-switch,-1,0,right,right,0.181
MME2000MRNO,2019-10-04-09-00-51,7,40,0.641065883481388,right,both,ambiguous-switch,96,0,right,right,0.145
MME2000MRNO,2019-10-04-09-00-51,7,41,0.5466259603364743,right,probe,ambiguous-switch,-1,-10,right,right,1.826
MME2000MRNO,2019-10-04-09-00-51,7,42,0.6966079897435541,right,both,ambiguous-switch,103,-10,right,right,0.132
MME2000MRNO,2019-10-04-09-00-51,7,43,0.6020098505654388,right,probe,biased-switch,-1,-5,right,right,0.055
MME2000MRNO,2019-10-04-09-00-51,7,44,0.5236922711147101,right,both,biased-switch,96,-5,right,right,0.165
MME2000MRNO,2019-10-04-09-00-51,7,45,0.5159912720644984,right,probe,ambiguous-switch,-1,20,right,right,0.133
MME2000MRNO,2019-10-04-09-00-51,7,46,0.567100737485689,right,both,ambiguous-switch,95,20,right,right,0.174
MME2000MRNO,2019-10-04-09-00-51,7,47,0.6130726444702228,right,probe,biased-switch,-1,30,right,right,0.165
MME2000MRNO,2019-10-04-09-00-51,7,48,0.6156153645064563,right,both,biased-switch,98,30,right,right,0.076
MME2000MRNO,2019-10-04-09-00-51,7,49,0.5926835494667184,left,probe,biased-switch,-1,0,right,right,0.173
MME2000MRNO,2019-10-04-09-00-51,7,50,0.6384249367337838,left,both,biased-switch,92,0,right,left,0.175
MME2000MRNO,2019-10-04-09-00-51,7,51,0.6006190189529179,left,probe,ambiguous-switch,-1,-5,left,left,0.128
MME2000MRNO,2019-10-04-09-00-51,7,52,0.6725505343965025,left,both,ambiguous-switch,99,-5,left,left,0.188
MME2000MRNO,2019-10-04-09-00-51,7,53,0.6182593536584398,left,probe,biased-switch,-1,-10,left,left,0.217
MME2000MRNO,2019-10-04-09-00-51,7,54,0.6049192047099715,left,both,biased-switch,105,-10,left,left,0.271
MME2000MRNO,2019-10-04-09-00-51,7,55,0.5959001544916062,right,probe,biased-switch,-1,40,right,right,0.171
MME2000MRNO,2019-10-04-09-00-51,7,56,0.5789023324048572,right,both,biased-switch,100,40,right,right,0.139
MME2000MRNO,2019-10-04-09-00-51,7,57,0.6260939857156718,left,probe,biased-switch,-1,10,right,right,0.223
MME2000MRNO,2019-10-04-09-00-51,7,58,0.5780442664318611,left,both,biased-switch,93,10,right,left,0.271
MME2000MRNO,2019-10-04-09-00-51,7,59,0.6120145830163424,left,probe,ambiguous-switch,-1,5,left,left,0.193
MME2000MRNO,2019-10-04-09-00-51,7,60,0.5328655561856043,left,both,ambiguous-switch,110,5,left,right,0.122
MME2000MRNO,2019-10-04-09-00-51,7,61,0.5049893250389286,right,probe,biased-switch,-1,-30,left,left,0.207
MME2000MRNO,2019-10-04-09-00-51,7,62,0.5187076886419946,right,both,biased-switch,97,-30,left,left,0.172
MME2000MRNO,2019-10-04-09-00-51,7,63,0.6843363050020023,left,probe,ambiguous-switch,-1,10,left,left,0.182
MME2000MRNO,2019-10-04-09-00-51,7,64,0.6754566165410492,left,both,ambiguous-switch,110,10,left,left,0.232
MME2000MRNO,2019-10-04-09-00-51,7,65,0.6520684232922637,left,probe,ambiguous-switch,-1,-30,left,left,0.171
MME2000MRNO,2019-10-04-09-00-51,7,66,0.6164187072518257,left,both,ambiguous-switch,99,-30,left,left,0.23
MME2000MRNO,2019-10-04-09-00-51,7,67,0.64470010073522,right,probe,biased-switch,-1,-20,left,left,0.23
MME2000MRNO,2019-10-04-09-00-51,7,68,0.5995373543738202,right,both,biased-switch,95,-20,left,left,0.175
MME2000MRNO,2019-10-04-09-00-51,7,69,0.6811331767340483,right,probe,ambiguous-switch,-1,40,left,left,0.161
MME2000MRNO,2019-10-04-09-00-51,7,70,0.6008003015296295,right,both,ambiguous-switch,105,40,left,left,0.007
MME2000MRNO,2019-10-04-09-00-51,7,71,0.6662005877242747,left,probe,ambiguous-switch,-1,-20,left,left,0.225
MME2000MRNO,2019-10-04-09-00-51,7,72,0.6858884288862013,left,both,ambiguous-switch,96,-20,left,left,0.154
MME2000MRNO,2019-10-04-09-00-51,7,73,0.5253943125674227,left,probe,ambiguous-switch,-1,30,left,left,0.261
MME2000MRNO,2019-10-04-09-00-51,7,74,0.6570282955494594,left,both,ambiguous-switch,100,30,left,left,0.249
MME2000MRNO,2019-10-04-09-00-51,7,75,0.5969144588308543,right,probe,biased-switch,-1,20,left,left,0.193
MME2000MRNO,2019-10-04-09-00-51,7,76,0.5640887685631143,right,both,biased-switch,92,20,left,left,0.193
MME2000MRNO,2019-10-04-09-00-51,7,77,0.5311899468080407,right,probe,biased-switch,-1,5,left,left,0.282
MME2000MRNO,2019-10-04-09-00-51,7,78,0.5024934889564598,right,both,biased-switch,106,5,left,right,0.19
MME2000MRNO,2019-10-04-09-00-51,7,79,0.538938041867839,right,probe,ambiguous-switch,-1,0,left,left,0.201
MME2000MRNO,2019-10-04-09-00-51,7,80,0.6558898409471092,right,both,ambiguous-switch,104,0,left,left,0.09
MME2000MRNO,2019-10-04-09-00-51,8,1,0.5170108530716725,left,probe,ambiguous-switch,-1,-10,left,left,0.135
MME2000MRNO,2019-10-04-09-00-51,8,2,0.5735144678894677,left,both,ambiguous-switch,103,-10,left,left,0.163
MME2000MRNO,2019-10-04-09-00-51,8,3,0.6709940817066874,left,probe,biased-switch,-1,-20,left,left,0.108
MME2000MRNO,2019-10-04-09-00-51,8,4,0.6953958683821485,left,both,biased-switch,103,-20,left,left,0.173
MME2000MRNO,2019-10-04-09-00-51,8,5,0.6316791742656835,left,probe,biased-switch,-1,10,left,left,0.144
MME2000MRNO,2019-10-04-09-00-51,8,6,0.5468158043636347,left,both,biased-switch,105,10,left,right,0.208
MME2000MRNO,2019-10-04-09-00-51,8,7,0.5020197389452339,left,probe,biased-switch,-1,30,right,right,0.043
MME2000MRNO,2019-10-04-09-00-51,8,8,0.688579015203378,left,both,biased-switch,92,30,right,right,0.088
MME2000MRNO,2019-10-04-09-00-51,8,9,0.5667474000919633,right,probe,ambiguous-switch,-1,20,right,right,0.225
MME2000MRNO,2019-10-04-09-00-51,8,10,0.6293373709903608,right,both,ambiguous-switch,97,20,right,left,0.109
MME2000MRNO,2019-10-04-09-00-51,8,11,0.5068241473506288,left,probe,ambiguous-switch,-1,30,right,right,0.085
MME2000MRNO,2019-10-04-09-00-51,8,12,0.6045684711143244,left,both,ambiguous-switch,99,30,right,right,0.149
MME2000MRNO,2019-10-04-09-00-51,8,13,0.5337852240613778,right,probe,biased-switch,-1,-5,right,right,0.188
MME2000MRNO,2019-10-04-09-00-51,8,14,0.5220750261821987,right,both,biased-switch,109,-5,right,left,0.112
MME2000MRNO,2019-10-04-09-00-51,8,15,0.5442864553493032,left,probe,biased-switch,-1,40,right,right,0.31
MME2000MRNO,2019-10-04-09-00-51,8,16,0.5347107424024156,left,both,biased-switch,92,40,right,right,0.141
MME2000MRNO,2019-10-04-09-00-51,8,17,0.627381489488082,right,probe,biased-switch,-1,20,right,right,0.385
MME2000MRNO,2019-10-04-09-00-51,8,18,0.6632239967871387,right,both,biased-switch,106,20,right,right,0.272
MME2000MRNO,2019-10-04-09-00-51,8,19,0.6242612415073222,left,probe,biased-switch,-1,-10,right,right,0.316
MME2000MRNO,2019-10-04-09-00-51,8,20,0.6185816471553728,left,both,biased-switch,91,-10,right,right,0.186
MME2000MRNO,2019-10-04-09-00-51,8,21,0.5686810942856824,left,probe,ambiguous-switch,-1,5,right,right,0.169
MME2000MRNO,2019-10-04-09-00-51,8,22,0.5500785462257476,left,both,ambiguous-switch,106,5,right,right,0.187
MME2000MRNO,2019-10-04-09-00-51,8,23,0.5389074933689041,right,probe,ambiguous-switch,-1,-30,right,right,0.234
MME2000MRNO,2019-10-04-09-00-51,8,24,0.6896248854975595,right,both,ambiguous-switch,91,-30,right,right,0.209
MME2000MRNO,2019-10-04-09-00-51,8,25,0.6053090517492596,left,probe,biased-switch,-1,0,right,right,0.214
MME2000MRNO,2019-10-04-09-00-51,8,26,0.5468506562916149,left,both,biased-switch,95,0,right,left,0.275
MME2000MRNO,2019-10-04-09-00-51,8,27,0.5163810880128507,right,probe,biased-switch,-1,5,right,right,0.173
MME2000MRNO,2019-10-04-09-00-51,8,28,0.6485386464003341,right,both,biased-switch,104,5,right,left,0.167
MME2000MRNO,2019-10-04-09-00-51,8,29,0.6426195222907028,left,probe,ambiguous-switch,-1,0,right,right,0.085
MME2000MRNO,2019-10-04-09-00-51,8,30,0.5982420255034928,left,both,ambiguous-switch,102,0,right,right,0.203
MME2000MRNO,2019-10-04-09-00-51,8,31,0.5503375628839173,right,probe,ambiguous-switch,-1,40,right,right,0.203
MME2000MRNO,2019-10-04-09-00-51,8,32,0.631969287674934,right,both,ambiguous-switch,90,40,right,left,0.169
MME2000MRNO,2019-10-04-09-00-51,8,33,0.6815543753925302,left,probe,ambiguous-switch,-1,10,right,right,0.22
MME2000MRNO,2019-10-04-09-00-51,8,34,0.630573724872769,left,both,ambiguous-switch,105,10,right,left,0.144
MME2000MRNO,2019-10-04-09-00-51,8,35,0.5478559133273512,left,probe,ambiguous-switch,-1,-5,right,right,0.279
MME2000MRNO,2019-10-04-09-00-51,8,36,0.6610410053206519,left,both,ambiguous-switch,93,-5,right,right,0.464
MME2000MRNO,2019-10-04-09-00-51,8,37,0.5013957138409035,right,probe,ambiguous-switch,-1,-20,right,right,0.147
MME2000MRNO,2019-10-04-09-00-51,8,38,0.5692559542962288,right,both,ambiguous-switch,107,-20,right,right,0.161
MME2000MRNO,2019-10-04-09-00-51,8,39,0.6196926474029363,left,probe,biased-switch,-1,-30,right,right,0.075
MME2000MRNO,2019-10-04-09-00-51,8,40,0.6230343937769288,left,both,biased-switch,105,-30,right,right,0.186
MME2000MRNO,2019-10-04-09-00-51,8,41,0.531155310607659,right,probe,ambiguous-switch,-1,-10,right,right,0.081
MME2000MRNO,2019-10-04-09-00-51,8,42,0.631664276745971,right,both,ambiguous-switch,102,-10,right,right,0.167
MME2000MRNO,2019-10-04-09-00-51,8,43,0.5496541883889599,left,probe,biased-switch,-1,-20,right,right,0.142
MME2000MRNO,2019-10-04-09-00-51,8,44,0.687232747118189,left,both,biased-switch,98,-20,right,right,0.142
MME2000MRNO,2019-10-04-09-00-51,8,45,0.5164858927692803,left,probe,biased-switch,-1,10,right,right,0.12
MME2000MRNO,2019-10-04-09-00-51,8,46,0.6255752589890549,left,both,biased-switch,100,10,right,left,0.18
MME2000MRNO,2019-10-04-09-00-51,8,47,0.6689781221255384,right,probe,biased-switch,-1,30,left,left,0.164
MME2000MRNO,2019-10-04-09-00-51,8,48,0.5881345771499934,right,both,biased-switch,104,30,left,right,0.041
MME2000MRNO,2019-10-04-09-00-51,8,49,0.5101527554786538,left,probe,ambiguous-switch,-1,20,right,right,0.141
MME2000MRNO,2019-10-04-09-00-51,8,50,0.6730522241480986,left,both,ambiguous-switch,95,20,right,left,0.254
MME2000MRNO,2019-10-04-09-00-51,8,51,0.5695730370782746,left,probe,ambiguous-switch,-1,30,left,left,0.301
MME2000MRNO,2019-10-04-09-00-51,8,52,0.5666988252648523,left,both,ambiguous-switch,98,30,left,left,0.277
MME2000MRNO,2019-10-04-09-00-51,8,53,0.6958990782744735,left,probe,biased-switch,-1,-5,left,left,0.454
MME2000MRNO,2019-10-04-09-00-51,8,54,0.5833292523696311,left,both,biased-switch,91,-5,left,left,0.2
MME2000MRNO,2019-10-04-09-00-51,8,55,0.5594459009436648,right,probe,biased-switch,-1,40,left,left,0.341
MME2000MRNO,2019-10-04-09-00-51,8,56,0.5393623381061137,right,both,biased-switch,91,40,left,left,0.294
MME2000MRNO,2019-10-04-09-00-51,8,57,0.5703626266053657,right,probe,biased-switch,-1,20,left,left,0.242
MME2000MRNO,2019-10-04-09-00-51,8,58,0.5427468676163532,right,both,biased-switch,105,20,left,right,0.167
MME2000MRNO,2019-10-04-09-00-51,8,59,0.5844364572036176,left,probe,biased-switch,-1,-10,left,left,0.448
MME2000MRNO,2019-10-04-09-00-51,8,60,0.6880477842417787,left,both,biased-switch,108,-10,left,left,0.556
MME2000MRNO,2019-10-04-09-00-51,8,61,0.5739677116359907,left,probe,ambiguous-switch,-1,5,left,left,0.442
MME2000MRNO,2019-10-04-09-00-51,8,62,0.6872933566542796,left,both,ambiguous-switch,101,5,left,left,0.367
MME2000MRNO,2019-10-04-09-00-51,8,63,0.6419047315262024,right,probe,ambiguous-switch,-1,-30,left,left,0.325
MME2000MRNO,2019-10-04-09-00-51,8,64,0.6488291938211116,right,both,ambiguous-switch,97,-30,left,left,0.061
MME2000MRNO,2019-10-04-09-00-51,8,65,0.6951371822435541,left,probe,biased-switch,-1,0,left,left,0.188
MME2000MRNO,2019-10-04-09-00-51,8,66,0.6986309308256999,left,both,biased-switch,104,0,left,left,0.177
MME2000MRNO,2019-10-04-09-00-51,8,67,0.5404539892776787,left,probe,biased-switch,-1,5,left,left,0.197
MME2000MRNO,2019-10-04-09-00-51,8,68,0.640698589395641,left,both,biased-switch,109,5,left,right,0.171
MME2000MRNO,2019-10-04-09-00-51,8,69,0.5006791096391983,right,probe,ambiguous-switch,-1,0,left,left,0.152
MME2000MRNO,2019-10-04-09-00-51,8,70,0.5048719179533587,right,both,ambiguous-switch,101,0,left,left,0.16
MME2000MRNO,2019-10-04-09-00-51,8,71,0.6792935803408997,right,probe,ambiguous-switch,-1,40,left,left,0.198
MME2000MRNO,2019-10-04-09-00-51,8,72,0.663413636528675,right,both,ambiguous-switch,97,40,left,left,0.108
MME2000MRNO,2019-10-04-09-00-51,8,73,0.6108832073904267,right,probe,ambiguous-switch,-1,10,left,left,0.137
MME2000MRNO,2019-10-04-09-00-51,8,74,0.6784002982305581,right,both,ambiguous-switch,90,10,left,left,0.155
MME2000MRNO,2019-10-04-09-00-51,8,75,0.5946380093369033,right,probe,ambiguous-switch,-1,-5,left,left,0.19
MME2000MRNO,2019-10-04-09-00-51,8,76,0.6903359694420749,right,both,ambiguous-switch,91,-5,left,left,0.376
MME2000MRNO,2019-10-04-09-00-51,8,77,0.6692925835723906,right,probe,ambiguous-switch,-1,-20,left,left,0.293
MME2000MRNO,2019-10-04-09-00-51,8,78,0.6208037971513225,right,both,ambiguous-switch,91,-20,left,left,0.146
MME2000MRNO,2019-10-04-09-00-51,8,79,0.6499562888066639,right,probe,biased-switch,-1,-30,left,left,0.251
MME2000MRNO,2019-10-04-09-00-51,8,80,0.6997941215994993,right,both,biased-switch,110,-30,left,left,0.179
MME2000MRNO,2019-10-04-09-00-51,9,1,0.6126737697069805,left,probe,biased-switch,-1,-20,left,left,0.164
MME2000MRNO,2019-10-04-09-00-51,9,2,0.6960734261093181,left,both,biased-switch,91,-20,left,left,0.191
MME2000MRNO,2019-10-04-09-00-51,9,3,0.6113900710570462,right,probe,biased-switch,-1,10,left,left,0.183
MME2000MRNO,2019-10-04-09-00-51,9,4,0.553846028691857,right,both,biased-switch,108,10,left,right,0.233
MME2000MRNO,2019-10-04-09-00-51,9,5,0.6351776561279415,left,probe,ambiguous-switch,-1,30,left,left,0.4
MME2000MRNO,2019-10-04-09-00-51,9,6,0.642708782614264,left,both,ambiguous-switch,102,30,left,left,0.15
MME2000MRNO,2019-10-04-09-00-51,9,7,0.5466606109924177,right,probe,ambiguous-switch,-1,20,left,left,0.19
MME2000MRNO,2019-10-04-09-00-51,9,8,0.5847673469515831,right,both,ambiguous-switch,110,20,left,left,0.207
MME2000MRNO,2019-10-04-09-00-51,9,9,0.6389958547036836,left,probe,ambiguous-switch,-1,10,left,left,0.134
MME2000MRNO,2019-10-04-09-00-51,9,10,0.5263477244065932,left,both,ambiguous-switch,95,10,left,left,0.199
MME2000MRNO,2019-10-04-09-00-51,9,11,0.5757161926882206,right,probe,ambiguous-switch,-1,-5,left,left,0.197
MME2000MRNO,2019-10-04-09-00-51,9,12,0.6577930046651134,right,both,ambiguous-switch,102,-5,left,left,0.198
MME2000MRNO,2019-10-04-09-00-51,9,13,0.6325869414293914,left,probe,ambiguous-switch,-1,5,left,left,0.13
MME2000MRNO,2019-10-04-09-00-51,9,14,0.6894264986345666,left,both,ambiguous-switch,107,5,left,right,0.109
MME2000MRNO,2019-10-04-09-00-51,9,15,0.5167557379229473,left,probe,biased-switch,-1,30,right,right,0.238
MME2000MRNO,2019-10-04-09-00-51,9,16,0.5990492508174851,left,both,biased-switch,105,30,right,right,0.039
MME2000MRNO,2019-10-04-09-00-51,9,17,0.5526643231016314,right,probe,ambiguous-switch,-1,-10,left,left,0.156
MME2000MRNO,2019-10-04-09-00-51,9,18,0.6412854306076692,right,both,ambiguous-switch,92,-10,left,left,0.186
MME2000MRNO,2019-10-04-09-00-51,9,19,0.6071462317280254,left,probe,ambiguous-switch,-1,-20,right,right,0.035
MME2000MRNO,2019-10-04-09-00-51,9,20,0.6496431327798792,left,both,ambiguous-switch,104,-20,right,right,0.155
MME2000MRNO,2019-10-04-09-00-51,9,21,0.5046195625642752,right,probe,biased-switch,-1,-5,right,right,0.11
MME2000MRNO,2019-10-04-09-00-51,9,22,0.553598088531894,right,both,biased-switch,92,-5,right,left,0.162
MME2000MRNO,2019-10-04-09-00-51,9,23,0.5273013886698608,left,probe,biased-switch,-1,-10,right,right,0.186
MME2000MRNO,2019-10-04-09-00-51,9,24,0.6487642081943856,left,both,biased-switch,94,-10,right,right,0.191
MME2000MRNO,2019-10-04-09-00-51,9,25,0.6028650002698349,right,probe,ambiguous-switch,-1,-30,right,right,0.151
MME2000MRNO,2019-10-04-09-00-51,9,26,0.553423736538336,right,both,ambiguous-switch,93,-30,right,right,0.185
MME2000MRNO,2019-10-04-09-00-51,9,27,0.587499452412523,right,probe,biased-switch,-1,5,right,right,0.091
MME2000MRNO,2019-10-04-09-00-51,9,28,0.5193049935650318,right,both,biased-switch,97,5,right,left,0.023
MME2000MRNO,2019-10-04-09-00-51,9,29,0.6665132927558022,left,probe,ambiguous-switch,-1,40,right,right,0.12
MME2000MRNO,2019-10-04-09-00-51,9,30,0.6516999936727159,left,both,ambiguous-switch,91,40,right,right,0.188
MME2000MRNO,2019-10-04-09-00-51,9,31,0.6856255573899331,left,probe,biased-switch,-1,0,right,right,0.024
MME2000MRNO,2019-10-04-09-00-51,9,32,0.6974449777079131,left,both,biased-switch,108,0,right,right,0.128
MME2000MRNO,2019-10-04-09-00-51,9,33,0.5129524666988519,left,probe,biased-switch,-1,20,right,right,0.124
MME2000MRNO,2019-10-04-09-00-51,9,34,0.6922694469603163,left,both,biased-switch,97,20,right,right,0.215
MME2000MRNO,2019-10-04-09-00-51,9,35,0.657376909519235,right,probe,ambiguous-switch,-1,0,right,right,0.405
MME2000MRNO,2019-10-04-09-00-51,9,36,0.5835030031926726,right,both,ambiguous-switch,97,0,right,right,0.2
MME2000MRNO,2019-10-04-09-00-51,9,37,0.6279129527685168,right,probe,biased-switch,-1,-30,right,right,1.957
MME2000MRNO,2019-10-04-09-00-51,9,38,0.5475863636590471,right,both,biased-switch,106,-30,right,right,0.205
MME2000MRNO,2019-10-04-09-00-51,9,39,0.6888927131769014,right,probe,biased-switch,-1,40,right,right,0.087
MME2000MRNO,2019-10-04-09-00-51,9,40,0.5779970423022807,right,both,biased-switch,95,40,right,right,0.125
MME2000MRNO,2019-10-04-09-00-51,9,41,0.6333138608921783,left,probe,biased-switch,-1,-20,right,right,0.101
MME2000MRNO,2019-10-04-09-00-51,9,42,0.5878669650841973,left,both,biased-switch,96,-20,right,right,0.096
MME2000MRNO,2019-10-04-09-00-51,9,43,0.533173779260524,left,probe,biased-switch,-1,10,right,right,0.138
MME2000MRNO,2019-10-04-09-00-51,9,44,0.6934676961399542,left,both,biased-switch,107,10,right,left,0.147
MME2000MRNO,2019-10-04-09-00-51,9,45,0.5247751143730867,left,probe,ambiguous-switch,-1,30,right,right,0.127
MME2000MRNO,2019-10-04-09-00-51,9,46,0.6818868048653441,left,both,ambiguous-switch,91,30,right,right,0.003
MME2000MRNO,2019-10-04-09-00-51,9,47,0.509197892531692,left,probe,ambiguous-switch,-1,20,right,right,0.106
MME2000MRNO,2019-10-04-09-00-51,9,48,0.6588687159055745,left,both,ambiguous-switch,104,20,right,left,0.191
MME2000MRNO,2019-10-04-09-00-51,9,49,0.6811177661799568,left,probe,ambiguous-switch,-1,10,right,right,0.201
MME2000MRNO,2019-10-04-09-00-51,9,50,0.51463966553969,left,both,ambiguous-switch,101,10,right,left,0.056
MME2000MRNO,2019-10-04-09-00-51,9,51,0.5913896982347352,right,probe,ambiguous-switch,-1,-5,right,right,0.229
MME2000MRNO,2019-10-04-09-00-51,9,52,0.5197064638344082,right,both,ambiguous-switch,96,-5,right,left,0.18
MME2000MRNO,2019-10-04-09-00-51,9,53,0.641850665327,right,probe,ambiguous-switch,-1,5,right,right,0.091
MME2000MRNO,2019-10-04-09-00-51,9,54,0.5612083004153262,right,both,ambiguous-switch,103,5,right,left,0.258
MME2000MRNO,2019-10-04-09-00-51,9,55,0.5337358967479154,right,probe,biased-switch,-1,30,right,right,0.145
MME2000MRNO,2019-10-04-09-00-51,9,56,0.5456083853749978,right,both,biased-switch,107,30,right,right,0.071
MME2000MRNO,2019-10-04-09-00-51,9,57,0.5399014817115034,right,probe,ambiguous-switch,-1,-10,right,right,0.048
MME2000MRNO,2019-10-04-09-00-51,9,58,0.6575214266292029,right,both,ambiguous-switch,96,-10,right,right,0.142
MME2000MRNO,2019-10-04-09-00-51,9,59,0.529507162362583,right,probe,ambiguous-switch,-1,-20,right,right,1.108
MME2000MRNO,2019-10-04-09-00-51,9,60,0.5332150706498573,right,both,ambiguous-switch,101,-20,right,right,0.133
MME2000MRNO,2019-10-04-09-00-51,9,61,0.5007528132277257,right,probe,biased-switch,-1,-5,left,left,0.059
MME2000MRNO,2019-10-04-09-00-51,9,62,0.6541583015841089,right,both,biased-switch,100,-5,left,right,0.128
MME2000MRNO,2019-10-04-09-00-51,9,63,0.6080255966239837,left,probe,biased-switch,-1,-10,right,right,0.096
MME2000MRNO,2019-10-04-09-00-51,9,64,0.5897984014721886,left,both,biased-switch,106,-10,right,left,0.17
MME2000MRNO,2019-10-04-09-00-51,9,65,0.6354510609628841,right,probe,ambiguous-switch,-1,-30,right,right,0.18
MME2000MRNO,2019-10-04-09-00-51,9,66,0.6134843087679858,right,both,ambiguous-switch,109,-30,right,right,0.195
MME2000MRNO,2019-10-04-09-00-51,9,67,0.6174423519884877,right,probe,biased-switch,-1,5,right,right,0.199
MME2000MRNO,2019-10-04-09-00-51,9,68,0.6692489595027536,right,both,biased-switch,103,5,right,left,0.212
MME2000MRNO,2019-10-04-09-00-51,9,69,0.6989409084757585,right,probe,ambiguous-switch,-1,40,left,left,0.199
MME2000MRNO,2019-10-04-09-00-51,9,70,0.6287964168438569,right,both,ambiguous-switch,108,40,left,left,0.142
MME2000MRNO,2019-10-04-09-00-51,9,71,0.5138754011433401,right,probe,biased-switch,-1,0,left,left,0.176
MME2000MRNO,2019-10-04-09-00-51,9,72,0.585649101909281,right,both,biased-switch,98,0,left,right,0.255
MME2000MRNO,2019-10-04-09-00-51,9,73,0.6177887960784315,right,probe,biased-switch,-1,20,right,right,0.12
MME2000MRNO,2019-10-04-09-00-51,9,74,0.5923812796598111,right,both,biased-switch,99,20,right,right,0.196
MME2000MRNO,2019-10-04-09-00-51,9,75,0.6347505169764556,left,probe,ambiguous-switch,-1,0,left,left,0.165
MME2000MRNO,2019-10-04-09-00-51,9,76,0.6964738707880451,left,both,ambiguous-switch,103,0,left,right,0.063
MME2000MRNO,2019-10-04-09-00-51,9,77,0.6495076349949518,left,probe,biased-switch,-1,-30,right,right,0.096
MME2000MRNO,2019-10-04-09-00-51,9,78,0.6161921883583431,left,both,biased-switch,100,-30,right,right,0.161
MME2000MRNO,2019-10-04-09-00-51,9,79,0.6864006941841758,right,probe,biased-switch,-1,40,right,right,0.016
MME2000MRNO,2019-10-04-09-00-51,9,80,0.582882221293335,right,both,biased-switch,92,40,right,right,0.084
MME2000MRNO,2019-10-04-09-00-51,10,1,0.577389241752664,right,probe,ambiguous-switch,-1,-5,right,right,0.174
MME2000MRNO,2019-10-04-09-00-51,10,2,0.5413202298662588,right,both,ambiguous-switch,108,-5,right,right,0.303
MME2000MRNO,2019-10-04-09-00-51,10,3,0.535245744329612,left,probe,biased-switch,-1,0,right,right,0.228
MME2000MRNO,2019-10-04-09-00-51,10,4,0.5483501316391113,left,both,biased-switch,96,0,right,left,0.353
MME2000MRNO,2019-10-04-09-00-51,10,5,0.6662255871983639,right,probe,biased-switch,-1,20,right,right,0.349
MME2000MRNO,2019-10-04-09-00-51,10,6,0.6887786089649772,right,both,biased-switch,103,20,right,left,0.249
MME2000MRNO,2019-10-04-09-00-51,10,7,0.649609158481795,left,probe,ambiguous-switch,-1,-10,right,right,0.114
MME2000MRNO,2019-10-04-09-00-51,10,8,0.6371338963139676,left,both,ambiguous-switch,93,-10,right,right,0.134
MME2000MRNO,2019-10-04-09-00-51,10,9,0.630720573557623,left,probe,ambiguous-switch,-1,-20,right,right,0.082
MME2000MRNO,2019-10-04-09-00-51,10,10,0.653085806082778,left,both,ambiguous-switch,108,-20,right,right,2.747
MME2000MRNO,2019-10-04-09-00-51,10,11,0.6603666517286751,right,probe,biased-switch,-1,10,right,right,0.047
MME2000MRNO,2019-10-04-09-00-51,10,12,0.6991998986927154,right,both,biased-switch,91,10,right,left,0.14
MME2000MRNO,2019-10-04-09-00-51,10,13,0.6687036453892606,right,probe,ambiguous-switch,-1,40,right,right,0.09
MME2000MRNO,2019-10-04-09-00-51,10,14,0.6765651074880775,right,both,ambiguous-switch,103,40,right,right,0.191
MME2000MRNO,2019-10-04-09-00-51,10,15,0.6723018308689127,left,probe,ambiguous-switch,-1,10,right,right,0.394
MME2000MRNO,2019-10-04-09-00-51,10,16,0.6159341676393267,left,both,ambiguous-switch,105,10,right,right,0.15
MME2000MRNO,2019-10-04-09-00-51,10,17,0.6444928580965681,right,probe,ambiguous-switch,-1,30,right,right,0.224
MME2000MRNO,2019-10-04-09-00-51,10,18,0.6437618154160925,right,both,ambiguous-switch,105,30,right,left,0.244
MME2000MRNO,2019-10-04-09-00-51,10,19,0.5241569992101401,left,probe,ambiguous-switch,-1,-30,right,right,0.441
MME2000MRNO,2019-10-04-09-00-51,10,20,0.5960767805808561,left,both,ambiguous-switch,104,-30,right,right,0.188
MME2000MRNO,2019-10-04-09-00-51,10,21,0.6708529351023008,right,probe,ambiguous-switch,-1,5,right,right,0.278
MME2000MRNO,2019-10-04-09-00-51,10,22,0.5856582144830959,right,both,ambiguous-switch,97,5,right,left,0.243
MME2000MRNO,2019-10-04-09-00-51,10,23,0.6880849227703929,left,probe,biased-switch,-1,40,right,right,0.236
MME2000MRNO,2019-10-04-09-00-51,10,24,0.5818889162168818,left,both,biased-switch,93,40,right,right,0.412
MME2000MRNO,2019-10-04-09-00-51,10,25,0.5726552934528145,left,probe,ambiguous-switch,-1,0,right,right,0.754
MME2000MRNO,2019-10-04-09-00-51,10,26,0.6708059152852576,left,both,ambiguous-switch,110,0,right,left,1.027
MME2000MRNO,2019-10-04-09-00-51,10,27,0.5139361535791539,right,probe,biased-switch,-1,5,left,left,1.375
MME2000MRNO,2019-10-04-09-00-51,10,28,0.6932467405916758,right,both,biased-switch,99,5,left,right,0.152
MME2000MRNO,2019-10-04-09-00-51,10,29,0.6049881144189259,left,probe,biased-switch,-1,-10,left,left,0.261
MME2000MRNO,2019-10-04-09-00-51,10,30,0.60839897407316,left,both,biased-switch,104,-10,left,right,0.742
MME2000MRNO,2019-10-04-09-00-51,10,31,0.6953839605907325,left,probe,biased-switch,-1,30,right,right,0.179
MME2000MRNO,2019-10-04-09-00-51,10,32,0.6485593370753449,left,both,biased-switch,94,30,right,right,0.229
MME2000MRNO,2019-10-04-09-00-51,10,33,0.6284263727943956,right,probe,biased-switch,-1,-20,right,right,0.263
MME2000MRNO,2019-10-04-09-00-51,10,34,0.5340600596570051,right,both,biased-switch,90,-20,right,right,0.423
MME2000MRNO,2019-10-04-09-00-51,10,35,0.5757091969361102,right,probe,biased-switch,-1,-30,right,right,0.291
MME2000MRNO,2019-10-04-09-00-51,10,36,0.5721369097914312,right,both,biased-switch,91,-30,right,right,0.093
MME2000MRNO,2019-10-04-09-00-51,10,37,0.5349048205047955,right,probe,ambiguous-switch,-1,20,right,right,0.195
MME2000MRNO,2019-10-04-09-00-51,10,38,0.6017011855314485,right,both,ambiguous-switch,106,20,right,right,0.261
MME2000MRNO,2019-10-04-09-00-51,10,39,0.5188574587224013,left,probe,biased-switch,-1,-5,right,right,0.183
MME2000MRNO,2019-10-04-09-00-51,10,40,0.6680406846160905,left,both,biased-switch,94,-5,right,right,0.124
MME2000MRNO,2019-10-04-09-00-51,10,41,0.6286650084887874,left,probe,ambiguous-switch,-1,-5,left,left,0.447
MME2000MRNO,2019-10-04-09-00-51,10,42,0.6237468677913444,left,both,ambiguous-switch,104,-5,left,right,0.134
MME2000MRNO,2019-10-04-09-00-51,10,43,0.5964721669186472,left,probe,biased-switch,-1,0,right,right,0.266
MME2000MRNO,2019-10-04-09-00-51,10,44,0.5959833234435971,left,both,biased-switch,105,0,right,right,0.102
MME2000MRNO,2019-10-04-09-00-51,10,45,0.6010166993212595,left,probe,biased-switch,-1,20,right,right,0.158
MME2000MRNO,2019-10-04-09-00-51,10,46,0.5746956173964076,left,both,biased-switch,93,20,right,right,0.209
MME2000MRNO,2019-10-04-09-00-51,10,47,0.6952875353641621,right,probe,ambiguous-switch,-1,-10,right,right,0.264
MME2000MRNO,2019-10-04-09-00-51,10,48,0.6310169882934517,right,both,ambiguous-switch,99,-10,right,right,0.282
MME2000MRNO,2019-10-04-09-00-51,10,49,0.6384316588012948,right,probe,ambiguous-switch,-1,-20,right,right,0.402
MME2000MRNO,2019-10-04-09-00-51,10,50,0.5926514655373367,right,both,ambiguous-switch,94,-20,right,right,0.176
MME2000MRNO,2019-10-04-09-00-51,10,51,0.5320748384391827,right,probe,biased-switch,-1,10,right,right,0.15
MME2000MRNO,2019-10-04-09-00-51,10,52,0.5441255381667162,right,both,biased-switch,92,10,right,left,0.21
MME2000MRNO,2019-10-04-09-00-51,10,53,0.5795450633448949,right,probe,ambiguous-switch,-1,40,left,left,0.385
MME2000MRNO,2019-10-04-09-00-51,10,54,0.5625711160615876,right,both,ambiguous-switch,104,40,left,right,0.321
MME2000MRNO,2019-10-04-09-00-51,10,55,0.6752189856814649,left,probe,ambiguous-switch,-1,10,right,right,0.499
MME2000MRNO,2019-10-04-09-00-51,10,56,0.5908146749892348,left,both,ambiguous-switch,99,10,right,left,0.361
MME2000MRNO,2019-10-04-09-00-51,10,57,0.6475635762366869,right,probe,ambiguous-switch,-1,30,right,right,0.265
MME2000MRNO,2019-10-04-09-00-51,10,58,0.5117800030393602,right,both,ambiguous-switch,99,30,right,right,0.232
MME2000MRNO,2019-10-04-09-00-51,10,59,0.685862075041242,right,probe,ambiguous-switch,-1,-30,right,right,0.406
MME2000MRNO,2019-10-04-09-00-51,10,60,0.6635145802619257,right,both,ambiguous-switch,91,-30,right,right,0.26
MME2000MRNO,2019-10-04-09-00-51,10,61,0.6712510637746457,right,probe,ambiguous-switch,-1,5,right,right,0.407
MME2000MRNO,2019-10-04-09-00-51,10,62,0.5581163596092763,right,both,ambiguous-switch,104,5,right,left,0.287
MME2000MRNO,2019-10-04-09-00-51,10,63,0.5085151736718536,left,probe,biased-switch,-1,40,right,right,0.2
MME2000MRNO,2019-10-04-09-00-51,10,64,0.5708894614185122,left,both,biased-switch,105,40,right,right,0.212
MME2000MRNO,2019-10-04-09-00-51,10,65,0.6162242970934406,right,probe,ambiguous-switch,-1,0,right,right,0.226
MME2000MRNO,2019-10-04-09-00-51,10,66,0.6993385021409821,right,both,ambiguous-switch,96,0,right,right,0.232
MME2000MRNO,2019-10-04-09-00-51,10,67,0.5884771609004851,right,probe,biased-switch,-1,5,right,right,0.234
MME2000MRNO,2019-10-04-09-00-51,10,68,0.5439196434565272,right,both,biased-switch,103,5,right,left,0.682
MME2000MRNO,2019-10-04-09-00-51,10,69,0.5502113696847357,left,probe,biased-switch,-1,-10,right,right,0.223
MME2000MRNO,2019-10-04-09-00-51,10,70,0.6564941646754492,left,both,biased-switch,107,-10,right,left,0.235
MME2000MRNO,2019-10-04-09-00-51,10,71,0.6966843790805324,right,probe,biased-switch,-1,30,right,right,0.156
MME2000MRNO,2019-10-04-09-00-51,10,72,0.5240038146885952,right,both,biased-switch,108,30,right,right,0.295
MME2000MRNO,2019-10-04-09-00-51,10,73,0.6899572544327294,right,probe,biased-switch,-1,-20,right,right,0.035
MME2000MRNO,2019-10-04-09-00-51,10,74,0.6920209626651446,right,both,biased-switch,104,-20,right,right,0.167
MME2000MRNO,2019-10-04-09-00-51,10,75,0.6633372180367393,left,probe,biased-switch,-1,-30,right,right,0.175
MME2000MRNO,2019-10-04-09-00-51,10,76,0.5376810694260685,left,both,biased-switch,100,-30,right,right,0.222
MME2000MRNO,2019-10-04-09-00-51,10,77,0.5756504066305301,left,probe,ambiguous-switch,-1,20,right,right,0.149
MME2000MRNO,2019-10-04-09-00-51,10,78,0.6050881001274101,left,both,ambiguous-switch,108,20,right,right,0.167
MME2000MRNO,2019-10-04-09-00-51,10,79,0.6721704515769105,right,probe,biased-switch,-1,-5,right,right,0.239
MME2000MRNO,2019-10-04-09-00-51,10,80,0.6143428629105623,right,both,biased-switch,110,-5,right,right,0.172
