Participant,Session,Block,Trial,OnsetDelay,ProbeLocation,WhatIsReported,Condition,TriggerTime,ProbeSOA,PrimeDirection,Response,RT
DEK2001WRNO,2020-01-27-11-07-06,1,1,0.6042066594725052,right,probe,ambiguous-stable,-1,3,right,right,1.57
DEK2001WRNO,2020-01-27-11-07-06,1,2,0.510029850215521,right,both,ambiguous-stable,64,3,left,left,4.597
DEK2001WRNO,2020-01-27-11-07-06,1,3,0.5474174733077394,left,probe,ambiguous-switch,-1,6,left,left,0.566
DEK2001WRNO,2020-01-27-11-07-06,1,4,0.5442528099858993,left,both,ambiguous-switch,66,6,left,left,1.461
DEK2001WRNO,2020-01-27-11-07-06,1,5,0.520406513033689,right,probe,biased-switch,-1,-18,left,left,0.62
DEK2001WRNO,2020-01-27-11-07-06,1,6,0.6408668776342692,right,both,biased-switch,59,-18,left,left,0.359
DEK2001WRNO,2020-01-27-11-07-06,1,7,0.5393627514221369,right,probe,ambiguous-switch,-1,-3,left,left,0.687
DEK2001WRNO,2020-01-27-11-07-06,1,8,0.512499518274443,right,both,ambiguous-switch,59,-3,left,left,0.354
DEK2001WRNO,2020-01-27-11-07-06,1,9,0.5505768869983396,right,probe,ambiguous-stable,-1,12,left,left,0.627
DEK2001WRNO,2020-01-27-11-07-06,1,10,0.5980464024891368,right,both,ambiguous-stable,57,12,right,left,0.553
DEK2001WRNO,2020-01-27-11-07-06,1,11,0.6998445302391192,left,probe,biased-switch,-1,-12,left,left,0.328
DEK2001WRNO,2020-01-27-11-07-06,1,12,0.5724865354058131,left,both,biased-switch,57,-12,left,left,0.188
DEK2001WRNO,2020-01-27-11-07-06,1,13,0.6140067187599985,left,probe,ambiguous-switch,-1,0,left,left,0.704
DEK2001WRNO,2020-01-27-11-07-06,1,14,0.6563014976601571,left,both,ambiguous-switch,56,0,left,left,0.283
DEK2001WRNO,2020-01-27-11-07-06,1,15,0.6150540901447208,left,probe,biased-switch,-1,6,left,left,0.794
DEK2001WRNO,2020-01-27-11-07-06,1,16,0.6764850864357621,left,both,biased-switch,56,6,left,left,0.206
DEK2001WRNO,2020-01-27-11-07-06,1,17,0.5930794586751261,right,probe,ambiguous-stable,-1,18,left,left,0.284
DEK2001WRNO,2020-01-27-11-07-06,1,18,0.551290703637277,right,both,ambiguous-stable,58,18,right,left,0.255
DEK2001WRNO,2020-01-27-11-07-06,1,19,0.5935605172971811,right,probe,ambiguous-stable,-1,6,left,left,0.434
DEK2001WRNO,2020-01-27-11-07-06,1,20,0.5882388700495775,right,both,ambiguous-stable,55,6,right,left,0.19
DEK2001WRNO,2020-01-27-11-07-06,1,21,0.6817033202003314,left,probe,ambiguous-switch,-1,-18,left,left,0.649
DEK2001WRNO,2020-01-27-11-07-06,1,22,0.5118492099579257,left,both,ambiguous-switch,56,-18,left,left,1.055
DEK2001WRNO,2020-01-27-11-07-06,1,23,0.5126926907911742,left,probe,ambiguous-switch,-1,3,left,left,0.775
DEK2001WRNO,2020-01-27-11-07-06,1,24,0.6685573306423003,left,both,ambiguous-switch,65,3,left,left,0.716
DEK2001WRNO,2020-01-27-11-07-06,1,25,0.5155621931124068,right,probe,biased-switch,-1,24,left,left,2.657
DEK2001WRNO,2020-01-27-11-07-06,1,26,0.6391026533701826,right,both,biased-switch,65,24,left,left,0.321
DEK2001WRNO,2020-01-27-11-07-06,1,27,0.6678643718402333,left,probe,ambiguous-switch,-1,-12,left,left,0.864
DEK2001WRNO,2020-01-27-11-07-06,1,28,0.5374362785396242,left,both,ambiguous-switch,54,-12,left,left,0.337
DEK2001WRNO,2020-01-27-11-07-06,1,29,0.5481918670784789,right,probe,biased-switch,-1,18,left,left,0.258
DEK2001WRNO,2020-01-27-11-07-06,1,30,0.5412329188241021,right,both,biased-switch,58,18,left,right,0.165
DEK2001WRNO,2020-01-27-11-07-06,1,31,0.6859154213114321,left,probe,ambiguous-switch,-1,18,left,left,0.203
DEK2001WRNO,2020-01-27-11-07-06,1,32,0.6512038677378241,left,both,ambiguous-switch,58,18,left,left,4.051
DEK2001WRNO,2020-01-27-11-07-06,1,33,0.5020382548912216,right,probe,ambiguous-switch,-1,24,left,left,0.324
DEK2001WRNO,2020-01-27-11-07-06,1,34,0.6684036543887705,right,both,ambiguous-switch,64,24,left,left,0.294
DEK2001WRNO,2020-01-27-11-07-06,1,35,0.5044457663904464,left,probe,ambiguous-stable,-1,24,left,left,0.426
DEK2001WRNO,2020-01-27-11-07-06,1,36,0.5671586730067476,left,both,ambiguous-stable,61,24,right,left,2.925
DEK2001WRNO,2020-01-27-11-07-06,1,37,0.5632090084776713,left,probe,biased-switch,-1,0,left,left,0.415
DEK2001WRNO,2020-01-27-11-07-06,1,38,0.6874745887850101,left,both,biased-switch,64,0,left,right,0.207
DEK2001WRNO,2020-01-27-11-07-06,1,39,0.5953334781359891,right,probe,ambiguous-stable,-1,-3,left,left,0.479
DEK2001WRNO,2020-01-27-11-07-06,1,40,0.6222984339714884,right,both,ambiguous-stable,58,-3,right,left,0.142
DEK2001WRNO,2020-01-27-11-07-06,1,41,0.6277151238501752,right,probe,biased-switch,-1,12,left,left,0.297
DEK2001WRNO,2020-01-27-11-07-06,1,42,0.6016955884276516,right,both,biased-switch,64,12,left,right,2.257
DEK2001WRNO,2020-01-27-11-07-06,1,43,0.5418949075596614,right,probe,ambiguous-stable,-1,-18,right,right,0.911
DEK2001WRNO,2020-01-27-11-07-06,1,44,0.637041644330793,right,both,ambiguous-stable,64,-18,left,right,0.029
DEK2001WRNO,2020-01-27-11-07-06,1,45,0.5554597471243835,right,probe,biased-switch,-1,-6,right,right,0.539
DEK2001WRNO,2020-01-27-11-07-06,1,46,0.6922264022122875,right,both,biased-switch,64,-6,right,right,0.466
DEK2001WRNO,2020-01-27-11-07-06,1,47,0.6911548596765301,left,probe,ambiguous-stable,-1,0,right,right,0.545
DEK2001WRNO,2020-01-27-11-07-06,1,48,0.6672112468796552,left,both,ambiguous-stable,62,0,left,right,0.247
DEK2001WRNO,2020-01-27-11-07-06,1,49,0.5040991451040531,left,probe,biased-switch,-1,-3,right,right,0.568
DEK2001WRNO,2020-01-27-11-07-06,1,50,0.6791649808241059,left,both,biased-switch,57,-3,right,right,0.26
DEK2001WRNO,2020-01-27-11-07-06,1,51,0.6249122825432487,left,probe,ambiguous-switch,-1,12,right,right,0.415
DEK2001WRNO,2020-01-27-11-07-06,1,52,0.6864403623017121,left,both,ambiguous-switch,60,12,right,left,0.257
DEK2001WRNO,2020-01-27-11-07-06,1,53,0.5003151131774007,left,probe,ambiguous-stable,-1,-12,right,right,0.359
DEK2001WRNO,2020-01-27-11-07-06,1,54,0.5089036687398939,left,both,ambiguous-stable,61,-12,left,right,0.372
DEK2001WRNO,2020-01-27-11-07-06,1,55,0.632911405057947,left,probe,ambiguous-stable,-1,-6,right,right,0.49
DEK2001WRNO,2020-01-27-11-07-06,1,56,0.5421503300871882,left,both,ambiguous-stable,58,-6,left,right,0.595
DEK2001WRNO,2020-01-27-11-07-06,1,57,0.5507019189372209,left,probe,ambiguous-switch,-1,-6,right,right,0.721
DEK2001WRNO,2020-01-27-11-07-06,1,58,0.5999130586284327,left,both,ambiguous-switch,65,-6,right,right,0.501
DEK2001WRNO,2020-01-27-11-07-06,1,59,0.5855266114359714,left,probe,biased-switch,-1,3,right,right,0.591
DEK2001WRNO,2020-01-27-11-07-06,1,60,0.6377992833867141,left,both,biased-switch,63,3,right,left,0.237
DEK2001WRNO,2020-01-27-11-07-06,2,1,0.5347189617698546,left,probe,ambiguous-switch,-1,12,left,left,0.83
DEK2001WRNO,2020-01-27-11-07-06,2,2,0.5664689451338822,left,both,ambiguous-switch,57,12,left,left,5.169
DEK2001WRNO,2020-01-27-11-07-06,2,3,0.6372802829850469,right,probe,biased-switch,-1,-12,right,right,2.407
DEK2001WRNO,2020-01-27-11-07-06,2,4,0.5222265332866284,right,both,biased-switch,55,-12,right,right,0.262
DEK2001WRNO,2020-01-27-11-07-06,2,5,0.547669751437974,left,probe,biased-switch,-1,18,right,right,0.287
DEK2001WRNO,2020-01-27-11-07-06,2,6,0.5230032132938921,left,both,biased-switch,59,18,right,right,0.275
DEK2001WRNO,2020-01-27-11-07-06,2,7,0.6322291301390699,left,probe,ambiguous-switch,-1,-6,right,right,0.501
DEK2001WRNO,2020-01-27-11-07-06,2,8,0.6131896091384219,left,both,ambiguous-switch,66,-6,right,right,0.357
DEK2001WRNO,2020-01-27-11-07-06,2,9,0.5940269303595255,left,probe,ambiguous-stable,-1,-3,right,right,0.525
DEK2001WRNO,2020-01-27-11-07-06,2,10,0.5783267422513214,left,both,ambiguous-stable,54,-3,left,right,0.45
DEK2001WRNO,2020-01-27-11-07-06,2,11,0.5163845289824369,right,probe,biased-switch,-1,-6,right,right,0.403
DEK2001WRNO,2020-01-27-11-07-06,2,12,0.6759038630895194,right,both,biased-switch,59,-6,right,right,0.26
DEK2001WRNO,2020-01-27-11-07-06,2,13,0.6113811331753818,left,probe,biased-switch,-1,6,right,right,0.408
DEK2001WRNO,2020-01-27-11-07-06,2,14,0.6682341756598404,left,both,biased-switch,65,6,right,left,0.277
DEK2001WRNO,2020-01-27-11-07-06,2,15,0.5022400860822746,left,probe,ambiguous-switch,-1,0,right,right,0.307
DEK2001WRNO,2020-01-27-11-07-06,2,16,0.6112526224649905,left,both,ambiguous-switch,62,0,right,right,2.596
DEK2001WRNO,2020-01-27-11-07-06,2,17,0.605657932459468,left,probe,ambiguous-stable,-1,6,right,right,0.36
DEK2001WRNO,2020-01-27-11-07-06,2,18,0.5137865459004993,left,both,ambiguous-stable,56,6,left,right,0.216
DEK2001WRNO,2020-01-27-11-07-06,2,19,0.5022791829434212,right,probe,ambiguous-stable,-1,0,right,right,0.43
DEK2001WRNO,2020-01-27-11-07-06,2,20,0.6204884454339286,right,both,ambiguous-stable,61,0,left,right,0.239
DEK2001WRNO,2020-01-27-11-07-06,2,21,0.599540770842064,right,probe,ambiguous-switch,-1,-18,left,left,0.698
DEK2001WRNO,2020-01-27-11-07-06,2,22,0.6560280606303798,right,both,ambiguous-switch,64,-18,left,right,0.257
DEK2001WRNO,2020-01-27-11-07-06,2,23,0.6772701597189968,right,probe,biased-switch,-1,0,right,right,0.354
DEK2001WRNO,2020-01-27-11-07-06,2,24,0.5492211793245525,right,both,biased-switch,62,0,right,left,2.071
DEK2001WRNO,2020-01-27-11-07-06,2,25,0.5571071105519236,left,probe,ambiguous-stable,-1,24,right,right,0.636
DEK2001WRNO,2020-01-27-11-07-06,2,26,0.649481618353702,left,both,ambiguous-stable,62,24,left,right,1.754
DEK2001WRNO,2020-01-27-11-07-06,2,27,0.5688726036186906,right,probe,ambiguous-switch,-1,6,right,right,0.43
DEK2001WRNO,2020-01-27-11-07-06,2,28,0.6315336253994399,right,both,ambiguous-switch,65,6,right,left,0.793
DEK2001WRNO,2020-01-27-11-07-06,2,29,0.5113363752478273,right,probe,ambiguous-switch,-1,-3,right,right,0.55
DEK2001WRNO,2020-01-27-11-07-06,2,30,0.605923355771895,right,both,ambiguous-switch,61,-3,right,left,0.331
DEK2001WRNO,2020-01-27-11-07-06,2,31,0.6827908422386212,right,probe,ambiguous-stable,-1,18,right,right,0.533
DEK2001WRNO,2020-01-27-11-07-06,2,32,0.5614132385266795,right,both,ambiguous-stable,66,18,left,right,0.33
DEK2001WRNO,2020-01-27-11-07-06,2,33,0.6739311760762855,right,probe,ambiguous-stable,-1,12,right,right,0.61
DEK2001WRNO,2020-01-27-11-07-06,2,34,0.5816550482084631,right,both,ambiguous-stable,62,12,left,right,0.392
DEK2001WRNO,2020-01-27-11-07-06,2,35,0.6869517907079503,left,probe,ambiguous-switch,-1,24,left,left,0.363
DEK2001WRNO,2020-01-27-11-07-06,2,36,0.6030342051792514,left,both,ambiguous-switch,57,24,left,left,2.07
DEK2001WRNO,2020-01-27-11-07-06,2,37,0.5980142104193497,left,probe,ambiguous-stable,-1,-12,left,left,0.482
DEK2001WRNO,2020-01-27-11-07-06,2,38,0.5799973596983001,left,both,ambiguous-stable,58,-12,right,left,0.416
DEK2001WRNO,2020-01-27-11-07-06,2,39,0.5796412857834603,left,probe,ambiguous-stable,-1,-6,left,left,0.5
DEK2001WRNO,2020-01-27-11-07-06,2,40,0.5476769190649949,left,both,ambiguous-stable,59,-6,right,left,0.488
DEK2001WRNO,2020-01-27-11-07-06,2,41,0.6069139314542974,left,probe,ambiguous-stable,-1,-18,left,left,0.476
DEK2001WRNO,2020-01-27-11-07-06,2,42,0.5021452292304598,left,both,ambiguous-stable,57,-18,right,left,0.322
DEK2001WRNO,2020-01-27-11-07-06,2,43,0.6732954189686702,left,probe,ambiguous-stable,-1,3,left,left,0.704
DEK2001WRNO,2020-01-27-11-07-06,2,44,0.6995616098995996,left,both,ambiguous-stable,60,3,right,left,0.288
DEK2001WRNO,2020-01-27-11-07-06,2,45,0.5081263469943208,left,probe,biased-switch,-1,3,left,left,0.543
DEK2001WRNO,2020-01-27-11-07-06,2,46,0.5266889095320262,left,both,biased-switch,64,3,left,right,0.311
DEK2001WRNO,2020-01-27-11-07-06,2,47,0.6111934444840313,left,probe,ambiguous-switch,-1,3,left,left,0.382
DEK2001WRNO,2020-01-27-11-07-06,2,48,0.6741895050184836,left,both,ambiguous-switch,66,3,left,left,0.308
DEK2001WRNO,2020-01-27-11-07-06,2,49,0.546375477831569,right,probe,biased-switch,-1,24,right,right,0.449
DEK2001WRNO,2020-01-27-11-07-06,2,50,0.5691820213933421,right,both,biased-switch,61,24,right,left,2.477
DEK2001WRNO,2020-01-27-11-07-06,2,51,0.607951591126641,left,probe,ambiguous-switch,-1,-12,left,left,0.435
DEK2001WRNO,2020-01-27-11-07-06,2,52,0.5034492466601237,left,both,ambiguous-switch,60,-12,left,left,0.515
DEK2001WRNO,2020-01-27-11-07-06,2,53,0.5949021244249086,left,probe,biased-switch,-1,12,left,left,0.578
DEK2001WRNO,2020-01-27-11-07-06,2,54,0.5172268639525418,left,both,biased-switch,64,12,left,left,0.433
DEK2001WRNO,2020-01-27-11-07-06,2,55,0.6401472513604005,left,probe,biased-switch,-1,-18,left,left,0.526
DEK2001WRNO,2020-01-27-11-07-06,2,56,0.6085232695788004,left,both,biased-switch,60,-18,left,left,0.538
DEK2001WRNO,2020-01-27-11-07-06,2,57,0.5896768134262533,left,probe,ambiguous-switch,-1,18,left,left,0.741
DEK2001WRNO,2020-01-27-11-07-06,2,58,0.6694609434879399,left,both,ambiguous-switch,61,18,left,left,0.309
DEK2001WRNO,2020-01-27-11-07-06,2,59,0.6886187197635488,right,probe,biased-switch,-1,-3,left,left,1.237
DEK2001WRNO,2020-01-27-11-07-06,2,60,0.6036008812567761,right,both,biased-switch,66,-3,left,right,0.18
DEK2001WRNO,2020-01-27-11-07-06,3,1,0.6696900490235225,left,probe,ambiguous-stable,-1,-3,left,left,0.468
DEK2001WRNO,2020-01-27-11-07-06,3,2,0.511035721731367,left,both,ambiguous-stable,62,-3,right,left,0.263
DEK2001WRNO,2020-01-27-11-07-06,3,3,0.6362586143742593,right,probe,ambiguous-stable,-1,18,left,left,0.663
DEK2001WRNO,2020-01-27-11-07-06,3,4,0.6292813573761578,right,both,ambiguous-stable,62,18,right,left,2.41
DEK2001WRNO,2020-01-27-11-07-06,3,5,0.5814573318408631,right,probe,ambiguous-switch,-1,0,left,left,0.319
DEK2001WRNO,2020-01-27-11-07-06,3,6,0.5258208884401466,right,both,ambiguous-switch,62,0,left,right,0.345
DEK2001WRNO,2020-01-27-11-07-06,3,7,0.6512434144386855,left,probe,ambiguous-switch,-1,-6,left,left,0.477
DEK2001WRNO,2020-01-27-11-07-06,3,8,0.5769227654308283,left,both,ambiguous-switch,56,-6,left,left,0.488
DEK2001WRNO,2020-01-27-11-07-06,3,9,0.5431719333664582,left,probe,biased-switch,-1,-18,left,left,0.591
DEK2001WRNO,2020-01-27-11-07-06,3,10,0.6416023771117827,left,both,biased-switch,60,-18,left,left,0.328
DEK2001WRNO,2020-01-27-11-07-06,3,11,0.6033874491217034,right,probe,ambiguous-switch,-1,12,left,left,0.393
DEK2001WRNO,2020-01-27-11-07-06,3,12,0.5699782968090913,right,both,ambiguous-switch,62,12,left,right,0.362
DEK2001WRNO,2020-01-27-11-07-06,3,13,0.6454751817985964,right,probe,ambiguous-stable,-1,-18,right,right,0.46
DEK2001WRNO,2020-01-27-11-07-06,3,14,0.6583530969354041,right,both,ambiguous-stable,60,-18,left,right,0.4
DEK2001WRNO,2020-01-27-11-07-06,3,15,0.5085245970731108,right,probe,ambiguous-stable,-1,6,left,left,0.457
DEK2001WRNO,2020-01-27-11-07-06,3,16,0.6779644599112603,right,both,ambiguous-stable,58,6,right,left,0.394
DEK2001WRNO,2020-01-27-11-07-06,3,17,0.6289618066376985,left,probe,biased-switch,-1,-3,left,left,0.773
DEK2001WRNO,2020-01-27-11-07-06,3,18,0.6019987471077692,left,both,biased-switch,56,-3,left,right,0.235
DEK2001WRNO,2020-01-27-11-07-06,3,19,0.5461520047043463,right,probe,biased-switch,-1,3,right,right,1.999
DEK2001WRNO,2020-01-27-11-07-06,3,20,0.5058280645336874,right,both,biased-switch,62,3,right,left,0.577
DEK2001WRNO,2020-01-27-11-07-06,3,21,0.6728749384206076,right,probe,biased-switch,-1,-6,left,left,0.543
DEK2001WRNO,2020-01-27-11-07-06,3,22,0.6862042683294994,right,both,biased-switch,56,-6,left,left,0.263
DEK2001WRNO,2020-01-27-11-07-06,3,23,0.6426038534324195,right,probe,ambiguous-stable,-1,12,left,left,0.354
DEK2001WRNO,2020-01-27-11-07-06,3,24,0.6521953656027456,right,both,ambiguous-stable,54,12,right,right,0.518
DEK2001WRNO,2020-01-27-11-07-06,3,25,0.6910354190150532,right,probe,ambiguous-switch,-1,18,left,left,0.56
DEK2001WRNO,2020-01-27-11-07-06,3,26,0.5136251603529718,right,both,ambiguous-switch,60,18,left,left,0.499
DEK2001WRNO,2020-01-27-11-07-06,3,27,0.6501170028211198,right,probe,ambiguous-stable,-1,-12,left,left,0.576
DEK2001WRNO,2020-01-27-11-07-06,3,28,0.6196616301183308,right,both,ambiguous-stable,62,-12,right,left,0.297
DEK2001WRNO,2020-01-27-11-07-06,3,29,0.5993348128722132,right,probe,biased-switch,-1,12,left,left,0.358
DEK2001WRNO,2020-01-27-11-07-06,3,30,0.5403638999002274,right,both,biased-switch,64,12,left,right,0.302
DEK2001WRNO,2020-01-27-11-07-06,3,31,0.5215346259564995,left,probe,ambiguous-switch,-1,6,left,left,0.471
DEK2001WRNO,2020-01-27-11-07-06,3,32,0.6866225413057031,left,both,ambiguous-switch,57,6,left,right,0.454
DEK2001WRNO,2020-01-27-11-07-06,3,33,0.6572761947244312,left,probe,ambiguous-switch,-1,-12,left,left,0.91
DEK2001WRNO,2020-01-27-11-07-06,3,34,0.5278709243924152,left,both,ambiguous-switch,57,-12,left,left,0.594
DEK2001WRNO,2020-01-27-11-07-06,3,35,0.562817394651148,left,probe,ambiguous-switch,-1,-3,left,left,0.696
DEK2001WRNO,2020-01-27-11-07-06,3,36,0.6212085681228303,left,both,ambiguous-switch,60,-3,left,right,0.457
DEK2001WRNO,2020-01-27-11-07-06,3,37,0.6797985112471694,left,probe,ambiguous-stable,-1,24,right,right,2.23
DEK2001WRNO,2020-01-27-11-07-06,3,38,0.6969666578847862,left,both,ambiguous-stable,62,24,left,left,0.38
DEK2001WRNO,2020-01-27-11-07-06,3,39,0.6942792034614458,right,probe,biased-switch,-1,0,left,left,1.609
DEK2001WRNO,2020-01-27-11-07-06,3,40,0.5256569605732921,right,both,biased-switch,56,0,left,right,0.411
DEK2001WRNO,2020-01-27-11-07-06,3,41,0.6842179210125252,right,probe,ambiguous-stable,-1,0,left,left,0.44
DEK2001WRNO,2020-01-27-11-07-06,3,42,0.5739879266568727,right,both,ambiguous-stable,66,0,right,left,0.319
DEK2001WRNO,2020-01-27-11-07-06,3,43,0.5106232892099238,left,probe,biased-switch,-1,-12,left,left,0.464
DEK2001WRNO,2020-01-27-11-07-06,3,44,0.691535402061536,left,both,biased-switch,65,-12,left,left,0.343
DEK2001WRNO,2020-01-27-11-07-06,3,45,0.5702015602838382,right,probe,ambiguous-switch,-1,24,left,left,1.821
DEK2001WRNO,2020-01-27-11-07-06,3,46,0.6221985065831853,right,both,ambiguous-switch,60,24,left,right,0.42
DEK2001WRNO,2020-01-27-11-07-06,3,47,0.5611459998397328,left,probe,ambiguous-switch,-1,-18,left,left,0.378
DEK2001WRNO,2020-01-27-11-07-06,3,48,0.584411488904074,left,both,ambiguous-switch,58,-18,left,left,0.285
DEK2001WRNO,2020-01-27-11-07-06,3,49,0.6530971191872172,left,probe,ambiguous-switch,-1,3,left,left,0.305
DEK2001WRNO,2020-01-27-11-07-06,3,50,0.628006795494493,left,both,ambiguous-switch,62,3,left,left,0.228
DEK2001WRNO,2020-01-27-11-07-06,3,51,0.6343817414771415,left,probe,ambiguous-stable,-1,-6,left,left,0.411
DEK2001WRNO,2020-01-27-11-07-06,3,52,0.584991949240224,left,both,ambiguous-stable,60,-6,right,left,0.218
DEK2001WRNO,2020-01-27-11-07-06,3,53,0.6430684935757847,right,probe,ambiguous-stable,-1,3,right,right,0.641
DEK2001WRNO,2020-01-27-11-07-06,3,54,0.673070830245324,right,both,ambiguous-stable,55,3,left,left,0.489
DEK2001WRNO,2020-01-27-11-07-06,3,55,0.5887655732785534,right,probe,biased-switch,-1,6,left,left,0.672
DEK2001WRNO,2020-01-27-11-07-06,3,56,0.6174894164220256,right,both,biased-switch,62,6,left,right,0.239
DEK2001WRNO,2020-01-27-11-07-06,3,57,0.5953933988048002,left,probe,biased-switch,-1,24,left,left,0.433
DEK2001WRNO,2020-01-27-11-07-06,3,58,0.6096406717923757,left,both,biased-switch,65,24,left,left,0.497
DEK2001WRNO,2020-01-27-11-07-06,3,59,0.5457830516136378,left,probe,biased-switch,-1,18,left,left,0.381
DEK2001WRNO,2020-01-27-11-07-06,3,60,0.5154824508138461,left,both,biased-switch,57,18,left,left,0.284
DEK2001WRNO,2020-01-27-11-07-06,4,1,0.6631142671004633,left,probe,ambiguous-stable,-1,-3,left,left,0.589
DEK2001WRNO,2020-01-27-11-07-06,4,2,0.6523388029349249,left,both,ambiguous-stable,61,-3,right,left,0.283
DEK2001WRNO,2020-01-27-11-07-06,4,3,0.5163968958778489,left,probe,ambiguous-stable,-1,-12,left,left,0.249
DEK2001WRNO,2020-01-27-11-07-06,4,4,0.6289742945054793,left,both,ambiguous-stable,54,-12,right,left,0.202
DEK2001WRNO,2020-01-27-11-07-06,4,5,0.5239666148354843,left,probe,ambiguous-switch,-1,0,left,left,0.423
DEK2001WRNO,2020-01-27-11-07-06,4,6,0.5167422416767857,left,both,ambiguous-switch,56,0,left,left,0.099
DEK2001WRNO,2020-01-27-11-07-06,4,7,0.5664314857670305,right,probe,ambiguous-switch,-1,24,left,left,0.266
DEK2001WRNO,2020-01-27-11-07-06,4,8,0.6749890942140054,right,both,ambiguous-switch,66,24,left,left,0.304
DEK2001WRNO,2020-01-27-11-07-06,4,9,0.6926950172693329,left,probe,ambiguous-switch,-1,3,left,left,0.474
DEK2001WRNO,2020-01-27-11-07-06,4,10,0.6903006899883481,left,both,ambiguous-switch,59,3,left,left,0.293
DEK2001WRNO,2020-01-27-11-07-06,4,11,0.5260187026345632,left,probe,ambiguous-stable,-1,-6,left,left,0.358
DEK2001WRNO,2020-01-27-11-07-06,4,12,0.5769279114006429,left,both,ambiguous-stable,56,-6,right,left,0.433
DEK2001WRNO,2020-01-27-11-07-06,4,13,0.6679407277580679,right,probe,ambiguous-stable,-1,12,left,left,0.552
DEK2001WRNO,2020-01-27-11-07-06,4,14,0.6442868115872661,right,both,ambiguous-stable,56,12,right,left,0.216
DEK2001WRNO,2020-01-27-11-07-06,4,15,0.5807108507394653,right,probe,biased-switch,-1,0,left,left,0.245
DEK2001WRNO,2020-01-27-11-07-06,4,16,0.6103123377463711,right,both,biased-switch,64,0,left,left,0.216
DEK2001WRNO,2020-01-27-11-07-06,4,17,0.5698868528014476,left,probe,ambiguous-stable,-1,18,left,left,0.242
DEK2001WRNO,2020-01-27-11-07-06,4,18,0.5795935936911529,left,both,ambiguous-stable,64,18,right,left,0.268
DEK2001WRNO,2020-01-27-11-07-06,4,19,0.5506861615154468,left,probe,biased-switch,-1,-12,left,left,0.301
DEK2001WRNO,2020-01-27-11-07-06,4,20,0.5531295243832639,left,both,biased-switch,61,-12,left,left,0.243
DEK2001WRNO,2020-01-27-11-07-06,4,21,0.5079232216359708,left,probe,biased-switch,-1,12,left,left,0.259
DEK2001WRNO,2020-01-27-11-07-06,4,22,0.5379477903412768,left,both,biased-switch,59,12,left,right,0.302
DEK2001WRNO,2020-01-27-11-07-06,4,23,0.6499813649905909,left,probe,biased-switch,-1,-3,left,left,0.266
DEK2001WRNO,2020-01-27-11-07-06,4,24,0.527587208901697,left,both,biased-switch,55,-3,left,left,0.257
DEK2001WRNO,2020-01-27-11-07-06,4,25,0.5000695683824264,right,probe,ambiguous-switch,-1,18,right,right,0.338
DEK2001WRNO,2020-01-27-11-07-06,4,26,0.679418261985774,right,both,ambiguous-switch,63,18,right,left,0.262
DEK2001WRNO,2020-01-27-11-07-06,4,27,0.5182871998348563,right,probe,ambiguous-stable,-1,6,left,left,0.265
DEK2001WRNO,2020-01-27-11-07-06,4,28,0.5693340118919058,right,both,ambiguous-stable,66,6,right,left,0.286
DEK2001WRNO,2020-01-27-11-07-06,4,29,0.6548452204349304,right,probe,biased-switch,-1,3,left,left,0.285
DEK2001WRNO,2020-01-27-11-07-06,4,30,0.6338296644002603,right,both,biased-switch,58,3,left,right,0.318
DEK2001WRNO,2020-01-27-11-07-06,4,31,0.553527977545606,left,probe,ambiguous-switch,-1,-6,left,left,0.248
DEK2001WRNO,2020-01-27-11-07-06,4,32,0.5467736778124548,left,both,ambiguous-switch,63,-6,left,right,0.306
DEK2001WRNO,2020-01-27-11-07-06,4,33,0.5334377059549376,left,probe,ambiguous-stable,-1,-18,left,left,0.257
DEK2001WRNO,2020-01-27-11-07-06,4,34,0.5694473170662575,left,both,ambiguous-stable,63,-18,right,left,0.24
DEK2001WRNO,2020-01-27-11-07-06,4,35,0.5736989678556069,left,probe,ambiguous-switch,-1,6,right,right,0.227
DEK2001WRNO,2020-01-27-11-07-06,4,36,0.6622546290147961,left,both,ambiguous-switch,61,6,right,left,0.424
DEK2001WRNO,2020-01-27-11-07-06,4,37,0.6738852991802657,right,probe,ambiguous-switch,-1,-18,right,right,0.251
DEK2001WRNO,2020-01-27-11-07-06,4,38,0.6770901360203041,right,both,ambiguous-switch,59,-18,right,right,0.308
DEK2001WRNO,2020-01-27-11-07-06,4,39,0.6557757847972955,right,probe,ambiguous-switch,-1,-3,right,right,0.434
DEK2001WRNO,2020-01-27-11-07-06,4,40,0.5897369462661693,right,both,ambiguous-switch,61,-3,right,right,0.285
DEK2001WRNO,2020-01-27-11-07-06,4,41,0.6558938282700595,right,probe,biased-switch,-1,18,right,right,0.458
DEK2001WRNO,2020-01-27-11-07-06,4,42,0.6135721242728014,right,both,biased-switch,59,18,right,right,0.358
DEK2001WRNO,2020-01-27-11-07-06,4,43,0.5257464996910287,right,probe,biased-switch,-1,-18,right,right,0.525
DEK2001WRNO,2020-01-27-11-07-06,4,44,0.6980413721830321,right,both,biased-switch,64,-18,right,right,0.281
DEK2001WRNO,2020-01-27-11-07-06,4,45,0.6977210682887208,left,probe,ambiguous-switch,-1,12,right,right,0.331
DEK2001WRNO,2020-01-27-11-07-06,4,46,0.6733391772807696,left,both,ambiguous-switch,54,12,right,right,0.294
DEK2001WRNO,2020-01-27-11-07-06,4,47,0.6511602424979135,right,probe,biased-switch,-1,-6,right,right,0.598
DEK2001WRNO,2020-01-27-11-07-06,4,48,0.6944312048297492,right,both,biased-switch,57,-6,right,right,0.316
DEK2001WRNO,2020-01-27-11-07-06,4,49,0.5073074005929977,left,probe,ambiguous-stable,-1,24,right,right,0.32
DEK2001WRNO,2020-01-27-11-07-06,4,50,0.5962320940860557,left,both,ambiguous-stable,59,24,left,right,0.387
DEK2001WRNO,2020-01-27-11-07-06,4,51,0.6197336303441,left,probe,ambiguous-switch,-1,-12,right,right,1.685
DEK2001WRNO,2020-01-27-11-07-06,4,52,0.696512508646589,left,both,ambiguous-switch,57,-12,right,right,0.429
DEK2001WRNO,2020-01-27-11-07-06,4,53,0.6023329411176356,left,probe,ambiguous-stable,-1,0,right,right,0.442
DEK2001WRNO,2020-01-27-11-07-06,4,54,0.6692433952017701,left,both,ambiguous-stable,65,0,left,right,0.033
DEK2001WRNO,2020-01-27-11-07-06,4,55,0.5683042334579935,right,probe,biased-switch,-1,24,right,right,0.278
DEK2001WRNO,2020-01-27-11-07-06,4,56,0.615118787321947,right,both,biased-switch,61,24,right,right,0.16
DEK2001WRNO,2020-01-27-11-07-06,4,57,0.6542202395201742,left,probe,ambiguous-stable,-1,3,right,right,0.337
DEK2001WRNO,2020-01-27-11-07-06,4,58,0.6135003626796431,left,both,ambiguous-stable,61,3,left,right,0.316
DEK2001WRNO,2020-01-27-11-07-06,4,59,0.6564806166544433,right,probe,biased-switch,-1,6,right,right,0.391
DEK2001WRNO,2020-01-27-11-07-06,4,60,0.6092339098253015,right,both,biased-switch,61,6,right,left,0.254
DEK2001WRNO,2020-01-27-11-07-06,5,1,0.5453700731079525,right,probe,ambiguous-stable,-1,3,right,right,0.38
DEK2001WRNO,2020-01-27-11-07-06,5,2,0.6656811275364217,right,both,ambiguous-stable,56,3,left,right,0.247
DEK2001WRNO,2020-01-27-11-07-06,5,3,0.6951287927968752,left,probe,ambiguous-switch,-1,-12,right,right,0.49
DEK2001WRNO,2020-01-27-11-07-06,5,4,0.5803808029558752,left,both,ambiguous-switch,62,-12,right,right,0.292
DEK2001WRNO,2020-01-27-11-07-06,5,5,0.5137976546959367,right,probe,ambiguous-stable,-1,24,right,right,0.585
DEK2001WRNO,2020-01-27-11-07-06,5,6,0.583709881263883,right,both,ambiguous-stable,57,24,left,right,0.288
DEK2001WRNO,2020-01-27-11-07-06,5,7,0.6469115179651759,right,probe,ambiguous-switch,-1,-6,right,right,0.458
DEK2001WRNO,2020-01-27-11-07-06,5,8,0.5749733443291256,right,both,ambiguous-switch,55,-6,right,right,0.279
DEK2001WRNO,2020-01-27-11-07-06,5,9,0.5260943817343037,right,probe,ambiguous-switch,-1,-18,right,right,0.508
DEK2001WRNO,2020-01-27-11-07-06,5,10,0.5874200411509323,right,both,ambiguous-switch,54,-18,right,right,0.368
DEK2001WRNO,2020-01-27-11-07-06,5,11,0.6234786969694855,right,probe,ambiguous-switch,-1,-3,right,right,0.585
DEK2001WRNO,2020-01-27-11-07-06,5,12,0.6687792895008273,right,both,ambiguous-switch,62,-3,right,right,0.307
DEK2001WRNO,2020-01-27-11-07-06,5,13,0.5286392721744526,left,probe,biased-switch,-1,-6,right,right,0.272
DEK2001WRNO,2020-01-27-11-07-06,5,14,0.5257637500319982,left,both,biased-switch,57,-6,right,right,0.451
DEK2001WRNO,2020-01-27-11-07-06,5,15,0.5534676340433387,left,probe,ambiguous-switch,-1,18,right,right,0.576
DEK2001WRNO,2020-01-27-11-07-06,5,16,0.5098865143995813,left,both,ambiguous-switch,65,18,right,right,0.263
DEK2001WRNO,2020-01-27-11-07-06,5,17,0.6310323733922006,right,probe,ambiguous-switch,-1,24,right,right,0.477
DEK2001WRNO,2020-01-27-11-07-06,5,18,0.5779083572099203,right,both,ambiguous-switch,60,24,right,right,0.403
DEK2001WRNO,2020-01-27-11-07-06,5,19,0.59968996176213,left,probe,ambiguous-stable,-1,-3,right,right,0.327
DEK2001WRNO,2020-01-27-11-07-06,5,20,0.527099232334473,left,both,ambiguous-stable,56,-3,left,right,0.282
DEK2001WRNO,2020-01-27-11-07-06,5,21,0.6989522909231902,right,probe,biased-switch,-1,12,right,right,0.547
DEK2001WRNO,2020-01-27-11-07-06,5,22,0.5335656177791258,right,both,biased-switch,54,12,right,right,0.165
DEK2001WRNO,2020-01-27-11-07-06,5,23,0.6237554759407751,left,probe,biased-switch,-1,-3,right,right,0.582
DEK2001WRNO,2020-01-27-11-07-06,5,24,0.6455701980697823,left,both,biased-switch,58,-3,right,right,0.24
DEK2001WRNO,2020-01-27-11-07-06,5,25,0.5776385854184533,right,probe,ambiguous-switch,-1,0,right,right,0.352
DEK2001WRNO,2020-01-27-11-07-06,5,26,0.6068949488832314,right,both,ambiguous-switch,58,0,right,right,0.326
DEK2001WRNO,2020-01-27-11-07-06,5,27,0.5092071976430863,left,probe,ambiguous-switch,-1,3,right,right,0.344
DEK2001WRNO,2020-01-27-11-07-06,5,28,0.6109608774097701,left,both,ambiguous-switch,61,3,right,right,3.012
DEK2001WRNO,2020-01-27-11-07-06,5,29,0.6115846768277574,left,probe,biased-switch,-1,18,right,right,0.528
DEK2001WRNO,2020-01-27-11-07-06,5,30,0.6430398370136412,left,both,biased-switch,62,18,right,right,0.653
DEK2001WRNO,2020-01-27-11-07-06,5,31,0.6838830652056246,left,probe,biased-switch,-1,24,right,right,0.641
DEK2001WRNO,2020-01-27-11-07-06,5,32,0.6354099533808201,left,both,biased-switch,57,24,right,right,0.401
DEK2001WRNO,2020-01-27-11-07-06,5,33,0.6098706529602969,left,probe,biased-switch,-1,-18,right,right,0.409
DEK2001WRNO,2020-01-27-11-07-06,5,34,0.646219526812122,left,both,biased-switch,61,-18,right,right,0.391
DEK2001WRNO,2020-01-27-11-07-06,5,35,0.6173293129118118,left,probe,ambiguous-switch,-1,6,right,right,0.527
DEK2001WRNO,2020-01-27-11-07-06,5,36,0.5587241313064919,left,both,ambiguous-switch,62,6,right,right,0.275
DEK2001WRNO,2020-01-27-11-07-06,5,37,0.531856426215972,left,probe,biased-switch,-1,3,right,right,0.627
DEK2001WRNO,2020-01-27-11-07-06,5,38,0.6115204646411628,left,both,biased-switch,58,3,right,left,0.353
DEK2001WRNO,2020-01-27-11-07-06,5,39,0.5261114352633588,left,probe,ambiguous-stable,-1,-18,left,left,0.649
DEK2001WRNO,2020-01-27-11-07-06,5,40,0.6820708406288184,left,both,ambiguous-stable,65,-18,right,right,0.335
DEK2001WRNO,2020-01-27-11-07-06,5,41,0.6678076241487308,right,probe,ambiguous-switch,-1,12,left,left,0.396
DEK2001WRNO,2020-01-27-11-07-06,5,42,0.50182946469765,right,both,ambiguous-switch,55,12,left,left,0.334
DEK2001WRNO,2020-01-27-11-07-06,5,43,0.651028745872897,left,probe,ambiguous-stable,-1,6,left,left,0.498
DEK2001WRNO,2020-01-27-11-07-06,5,44,0.6339743395758131,left,both,ambiguous-stable,64,6,right,left,0.289
DEK2001WRNO,2020-01-27-11-07-06,5,45,0.632081712470926,left,probe,ambiguous-stable,-1,-6,left,left,0.56
DEK2001WRNO,2020-01-27-11-07-06,5,46,0.6160198714253122,left,both,ambiguous-stable,55,-6,right,left,0.335
DEK2001WRNO,2020-01-27-11-07-06,5,47,0.697112481813876,right,probe,ambiguous-stable,-1,0,left,left,0.504
DEK2001WRNO,2020-01-27-11-07-06,5,48,0.5165318676869665,right,both,ambiguous-stable,57,0,right,left,0.263
DEK2001WRNO,2020-01-27-11-07-06,5,49,0.642999372773573,left,probe,biased-switch,-1,-12,left,left,0.417
DEK2001WRNO,2020-01-27-11-07-06,5,50,0.6434367845593774,left,both,biased-switch,54,-12,left,left,0.524
DEK2001WRNO,2020-01-27-11-07-06,5,51,0.5680894691656753,left,probe,ambiguous-stable,-1,18,left,left,0.283
DEK2001WRNO,2020-01-27-11-07-06,5,52,0.5679367514285594,left,both,ambiguous-stable,64,18,right,left,0.723
DEK2001WRNO,2020-01-27-11-07-06,5,53,0.5494577802203513,right,probe,biased-switch,-1,0,left,left,0.521
DEK2001WRNO,2020-01-27-11-07-06,5,54,0.6604853323025496,right,both,biased-switch,62,0,left,right,0.569
DEK2001WRNO,2020-01-27-11-07-06,5,55,0.6628646591577063,right,probe,biased-switch,-1,6,right,right,1.201
DEK2001WRNO,2020-01-27-11-07-06,5,56,0.5413293666494867,right,both,biased-switch,57,6,right,left,0.571
DEK2001WRNO,2020-01-27-11-07-06,5,57,0.5766726135152332,left,probe,ambiguous-stable,-1,12,left,left,0.585
DEK2001WRNO,2020-01-27-11-07-06,5,58,0.6774225436956068,left,both,ambiguous-stable,60,12,right,left,0.433
DEK2001WRNO,2020-01-27-11-07-06,5,59,0.5032939723599934,left,probe,ambiguous-stable,-1,-12,left,left,0.845
DEK2001WRNO,2020-01-27-11-07-06,5,60,0.6656948742426867,left,both,ambiguous-stable,64,-12,right,left,0.581
DEK2001WRNO,2020-01-27-11-07-06,6,1,0.5078010590284523,left,probe,biased-switch,-1,18,left,left,0.291
DEK2001WRNO,2020-01-27-11-07-06,6,2,0.6752412407956246,left,both,biased-switch,58,18,left,left,0.348
DEK2001WRNO,2020-01-27-11-07-06,6,3,0.6809474321805494,left,probe,ambiguous-switch,-1,-3,left,left,0.466
DEK2001WRNO,2020-01-27-11-07-06,6,4,0.6634153406596299,left,both,ambiguous-switch,55,-3,left,left,0.334
DEK2001WRNO,2020-01-27-11-07-06,6,5,0.5486088725123799,left,probe,ambiguous-switch,-1,6,left,left,0.362
DEK2001WRNO,2020-01-27-11-07-06,6,6,0.6944571655432881,left,both,ambiguous-switch,55,6,left,left,0.511
DEK2001WRNO,2020-01-27-11-07-06,6,7,0.634011183684649,left,probe,ambiguous-switch,-1,12,left,left,0.413
DEK2001WRNO,2020-01-27-11-07-06,6,8,0.6752040940679218,left,both,ambiguous-switch,58,12,left,left,0.505
DEK2001WRNO,2020-01-27-11-07-06,6,9,0.6672051054873422,right,probe,ambiguous-stable,-1,18,left,left,1.135
DEK2001WRNO,2020-01-27-11-07-06,6,10,0.6840058542239303,right,both,ambiguous-stable,62,18,right,left,0.292
DEK2001WRNO,2020-01-27-11-07-06,6,11,0.6094821960695304,left,probe,ambiguous-switch,-1,3,left,left,0.272
DEK2001WRNO,2020-01-27-11-07-06,6,12,0.6787815140395019,left,both,ambiguous-switch,61,3,left,left,0.267
DEK2001WRNO,2020-01-27-11-07-06,6,13,0.5273667721626796,left,probe,ambiguous-switch,-1,-12,left,left,0.316
DEK2001WRNO,2020-01-27-11-07-06,6,14,0.5348670371478398,left,both,ambiguous-switch,65,-12,left,left,0.264
DEK2001WRNO,2020-01-27-11-07-06,6,15,0.611506980827795,right,probe,biased-switch,-1,-18,left,left,0.525
DEK2001WRNO,2020-01-27-11-07-06,6,16,0.6476691653058448,right,both,biased-switch,54,-18,left,left,0.486
DEK2001WRNO,2020-01-27-11-07-06,6,17,0.542838626133757,left,probe,biased-switch,-1,12,left,left,0.926
DEK2001WRNO,2020-01-27-11-07-06,6,18,0.6121616878243789,left,both,biased-switch,66,12,left,left,0.33
DEK2001WRNO,2020-01-27-11-07-06,6,19,0.5337104140415008,left,probe,ambiguous-stable,-1,-3,left,left,0.436
DEK2001WRNO,2020-01-27-11-07-06,6,20,0.5864617398148243,left,both,ambiguous-stable,66,-3,right,left,0.29
DEK2001WRNO,2020-01-27-11-07-06,6,21,0.6120823287982357,right,probe,biased-switch,-1,24,left,left,0.302
DEK2001WRNO,2020-01-27-11-07-06,6,22,0.5710826347220416,right,both,biased-switch,65,24,left,right,0.331
DEK2001WRNO,2020-01-27-11-07-06,6,23,0.6143541038694794,left,probe,biased-switch,-1,-6,left,left,0.326
DEK2001WRNO,2020-01-27-11-07-06,6,24,0.5039932247668452,left,both,biased-switch,61,-6,left,left,0.254
DEK2001WRNO,2020-01-27-11-07-06,6,25,0.5325974932938051,right,probe,biased-switch,-1,0,right,right,0.394
DEK2001WRNO,2020-01-27-11-07-06,6,26,0.6123954935804845,right,both,biased-switch,54,0,right,left,0.263
DEK2001WRNO,2020-01-27-11-07-06,6,27,0.6717323827049875,right,probe,ambiguous-stable,-1,0,left,left,0.23
DEK2001WRNO,2020-01-27-11-07-06,6,28,0.5312836593969807,right,both,ambiguous-stable,62,0,right,left,0.235
DEK2001WRNO,2020-01-27-11-07-06,6,29,0.5835311739658121,right,probe,ambiguous-switch,-1,-18,left,left,0.22
DEK2001WRNO,2020-01-27-11-07-06,6,30,0.6282954710486832,right,both,ambiguous-switch,55,-18,left,right,0.261
DEK2001WRNO,2020-01-27-11-07-06,6,31,0.6428418822922072,right,probe,ambiguous-stable,-1,-18,right,right,0.332
DEK2001WRNO,2020-01-27-11-07-06,6,32,0.5979468588979863,right,both,ambiguous-stable,60,-18,left,right,0.319
DEK2001WRNO,2020-01-27-11-07-06,6,33,0.6871026336029386,left,probe,biased-switch,-1,-3,left,left,0.271
DEK2001WRNO,2020-01-27-11-07-06,6,34,0.5230767517542717,left,both,biased-switch,56,-3,left,left,2.086
DEK2001WRNO,2020-01-27-11-07-06,6,35,0.5787353345671289,right,probe,ambiguous-switch,-1,-6,right,right,0.56
DEK2001WRNO,2020-01-27-11-07-06,6,36,0.5505471074565526,right,both,ambiguous-switch,57,-6,right,right,0.269
DEK2001WRNO,2020-01-27-11-07-06,6,37,0.6591254406873487,right,probe,ambiguous-stable,-1,12,left,left,0.301
DEK2001WRNO,2020-01-27-11-07-06,6,38,0.5185734467204335,right,both,ambiguous-stable,60,12,right,right,0.247
DEK2001WRNO,2020-01-27-11-07-06,6,39,0.6633366627403161,right,probe,ambiguous-switch,-1,18,right,right,0.25
DEK2001WRNO,2020-01-27-11-07-06,6,40,0.6668977155211782,right,both,ambiguous-switch,64,18,right,left,0.268
DEK2001WRNO,2020-01-27-11-07-06,6,41,0.5350491043156833,left,probe,ambiguous-switch,-1,0,right,right,0.305
DEK2001WRNO,2020-01-27-11-07-06,6,42,0.6887171403829645,left,both,ambiguous-switch,64,0,right,right,0.318
DEK2001WRNO,2020-01-27-11-07-06,6,43,0.5455140194751422,right,probe,biased-switch,-1,-12,right,right,0.295
DEK2001WRNO,2020-01-27-11-07-06,6,44,0.5336038055692066,right,both,biased-switch,55,-12,right,right,0.255
DEK2001WRNO,2020-01-27-11-07-06,6,45,0.6588610215007977,right,probe,ambiguous-stable,-1,6,right,right,0.254
DEK2001WRNO,2020-01-27-11-07-06,6,46,0.5243145610280684,right,both,ambiguous-stable,62,6,left,right,2.386
DEK2001WRNO,2020-01-27-11-07-06,6,47,0.504469418559377,left,probe,ambiguous-stable,-1,-12,right,right,0.299
DEK2001WRNO,2020-01-27-11-07-06,6,48,0.5359556292530232,left,both,ambiguous-stable,63,-12,left,right,0.258
DEK2001WRNO,2020-01-27-11-07-06,6,49,0.5981720780094402,right,probe,ambiguous-stable,-1,-6,right,right,0.463
DEK2001WRNO,2020-01-27-11-07-06,6,50,0.578730218806051,right,both,ambiguous-stable,64,-6,left,right,0.167
DEK2001WRNO,2020-01-27-11-07-06,6,51,0.5791561224691119,right,probe,biased-switch,-1,6,right,right,0.399
DEK2001WRNO,2020-01-27-11-07-06,6,52,0.5873657139971666,right,both,biased-switch,61,6,right,left,0.284
DEK2001WRNO,2020-01-27-11-07-06,6,53,0.5332052228548245,left,probe,ambiguous-switch,-1,24,right,right,0.478
DEK2001WRNO,2020-01-27-11-07-06,6,54,0.50755173680189,left,both,ambiguous-switch,64,24,right,right,0.25
DEK2001WRNO,2020-01-27-11-07-06,6,55,0.6811866311216205,right,probe,ambiguous-stable,-1,3,right,right,0.377
DEK2001WRNO,2020-01-27-11-07-06,6,56,0.5382100852748182,right,both,ambiguous-stable,65,3,left,right,0.338
DEK2001WRNO,2020-01-27-11-07-06,6,57,0.5823994207914914,right,probe,ambiguous-stable,-1,24,right,right,0.291
DEK2001WRNO,2020-01-27-11-07-06,6,58,0.6076358986632463,right,both,ambiguous-stable,54,24,left,right,0.351
DEK2001WRNO,2020-01-27-11-07-06,6,59,0.534646847934013,right,probe,biased-switch,-1,3,right,right,0.269
DEK2001WRNO,2020-01-27-11-07-06,6,60,0.6766092574188503,right,both,biased-switch,62,3,right,right,0.364
DEK2001WRNO,2020-01-27-11-07-06,7,1,0.6497734444383005,left,probe,biased-switch,-1,0,right,right,0.584
DEK2001WRNO,2020-01-27-11-07-06,7,2,0.5079008173156617,left,both,biased-switch,62,0,right,left,0.282
DEK2001WRNO,2020-01-27-11-07-06,7,3,0.5283811801525081,right,probe,ambiguous-switch,-1,-3,right,right,0.388
DEK2001WRNO,2020-01-27-11-07-06,7,4,0.5114927827582053,right,both,ambiguous-switch,63,-3,right,right,0.242
DEK2001WRNO,2020-01-27-11-07-06,7,5,0.6237544757743617,right,probe,ambiguous-switch,-1,3,right,right,0.257
DEK2001WRNO,2020-01-27-11-07-06,7,6,0.5041256411066533,right,both,ambiguous-switch,55,3,right,right,0.316
DEK2001WRNO,2020-01-27-11-07-06,7,7,0.6958758290295637,right,probe,ambiguous-stable,-1,-3,right,right,0.254
DEK2001WRNO,2020-01-27-11-07-06,7,8,0.5265926136622808,right,both,ambiguous-stable,57,-3,left,right,0.294
DEK2001WRNO,2020-01-27-11-07-06,7,9,0.6298807881243556,right,probe,ambiguous-switch,-1,24,right,right,0.258
DEK2001WRNO,2020-01-27-11-07-06,7,10,0.5181664382200478,right,both,ambiguous-switch,58,24,right,right,0.253
DEK2001WRNO,2020-01-27-11-07-06,7,11,0.6876899792679385,right,probe,biased-switch,-1,3,right,right,0.246
DEK2001WRNO,2020-01-27-11-07-06,7,12,0.6961246748061999,right,both,biased-switch,61,3,right,left,0.344
DEK2001WRNO,2020-01-27-11-07-06,7,13,0.5191643648226203,right,probe,biased-switch,-1,-3,right,right,0.363
DEK2001WRNO,2020-01-27-11-07-06,7,14,0.5970760436638418,right,both,biased-switch,61,-3,right,left,0.378
DEK2001WRNO,2020-01-27-11-07-06,7,15,0.5464975337970086,right,probe,biased-switch,-1,-18,left,left,0.275
DEK2001WRNO,2020-01-27-11-07-06,7,16,0.5957283312806523,right,both,biased-switch,57,-18,left,left,0.295
DEK2001WRNO,2020-01-27-11-07-06,7,17,0.5650831698599975,left,probe,biased-switch,-1,24,left,left,0.253
DEK2001WRNO,2020-01-27-11-07-06,7,18,0.5245136926051319,left,both,biased-switch,57,24,left,left,0.238
DEK2001WRNO,2020-01-27-11-07-06,7,19,0.6347923967144999,left,probe,ambiguous-switch,-1,-12,left,left,0.341
DEK2001WRNO,2020-01-27-11-07-06,7,20,0.5440491615582764,left,both,ambiguous-switch,57,-12,left,left,0.722
DEK2001WRNO,2020-01-27-11-07-06,7,21,0.5839469901277076,left,probe,ambiguous-stable,-1,3,left,left,0.533
DEK2001WRNO,2020-01-27-11-07-06,7,22,0.6811736928035068,left,both,ambiguous-stable,64,3,right,left,0.274
DEK2001WRNO,2020-01-27-11-07-06,7,23,0.5474228560985602,left,probe,ambiguous-stable,-1,-6,left,left,0.271
DEK2001WRNO,2020-01-27-11-07-06,7,24,0.6175453722310161,left,both,ambiguous-stable,55,-6,right,left,0.228
DEK2001WRNO,2020-01-27-11-07-06,7,25,0.5527240422311462,left,probe,ambiguous-switch,-1,6,left,left,0.291
DEK2001WRNO,2020-01-27-11-07-06,7,26,0.5727697660450821,left,both,ambiguous-switch,62,6,left,left,0.295
DEK2001WRNO,2020-01-27-11-07-06,7,27,0.6338529699473976,right,probe,biased-switch,-1,18,left,left,0.323
DEK2001WRNO,2020-01-27-11-07-06,7,28,0.6809226286722003,right,both,biased-switch,61,18,left,left,0.296
DEK2001WRNO,2020-01-27-11-07-06,7,29,0.5467864427531455,left,probe,ambiguous-stable,-1,6,left,left,0.476
DEK2001WRNO,2020-01-27-11-07-06,7,30,0.6821096358697509,left,both,ambiguous-stable,56,6,right,left,0.053
DEK2001WRNO,2020-01-27-11-07-06,7,31,0.5955455852745944,right,probe,ambiguous-stable,-1,12,left,left,0.226
DEK2001WRNO,2020-01-27-11-07-06,7,32,0.5441358780290045,right,both,ambiguous-stable,56,12,right,left,0.236
DEK2001WRNO,2020-01-27-11-07-06,7,33,0.5425663423783237,right,probe,ambiguous-switch,-1,-6,left,left,0.474
DEK2001WRNO,2020-01-27-11-07-06,7,34,0.5050494369145289,right,both,ambiguous-switch,57,-6,left,left,0.242
DEK2001WRNO,2020-01-27-11-07-06,7,35,0.6006874671436323,right,probe,ambiguous-switch,-1,18,left,left,0.356
DEK2001WRNO,2020-01-27-11-07-06,7,36,0.6124683853264716,right,both,ambiguous-switch,57,18,left,left,0.248
DEK2001WRNO,2020-01-27-11-07-06,7,37,0.6929061128863688,left,probe,ambiguous-stable,-1,0,left,left,0.231
DEK2001WRNO,2020-01-27-11-07-06,7,38,0.6273216862574915,left,both,ambiguous-stable,63,0,right,right,0.229
DEK2001WRNO,2020-01-27-11-07-06,7,39,0.5509881666234517,left,probe,ambiguous-stable,-1,-12,left,left,0.312
DEK2001WRNO,2020-01-27-11-07-06,7,40,0.6156149773457326,left,both,ambiguous-stable,57,-12,right,right,0.106
DEK2001WRNO,2020-01-27-11-07-06,7,41,0.6938734619159777,left,probe,ambiguous-stable,-1,18,left,left,0.355
DEK2001WRNO,2020-01-27-11-07-06,7,42,0.5314618212694058,left,both,ambiguous-stable,64,18,right,left,0.25
DEK2001WRNO,2020-01-27-11-07-06,7,43,0.5728682789923718,right,probe,ambiguous-stable,-1,-18,left,left,3.068
DEK2001WRNO,2020-01-27-11-07-06,7,44,0.6114701006792047,right,both,ambiguous-stable,58,-18,right,left,0.909
DEK2001WRNO,2020-01-27-11-07-06,7,45,0.5619597717536959,right,probe,ambiguous-switch,-1,0,right,right,0.411
DEK2001WRNO,2020-01-27-11-07-06,7,46,0.6308224140921901,right,both,ambiguous-switch,62,0,right,left,0.294
DEK2001WRNO,2020-01-27-11-07-06,7,47,0.5179520474352285,right,probe,biased-switch,-1,6,left,left,0.262
DEK2001WRNO,2020-01-27-11-07-06,7,48,0.5383697430847771,right,both,biased-switch,54,6,left,right,0.259
DEK2001WRNO,2020-01-27-11-07-06,7,49,0.6084078542718364,left,probe,ambiguous-switch,-1,-18,left,left,0.25
DEK2001WRNO,2020-01-27-11-07-06,7,50,0.6036252755712923,left,both,ambiguous-switch,63,-18,left,left,0.543
DEK2001WRNO,2020-01-27-11-07-06,7,51,0.6558888435047179,left,probe,ambiguous-switch,-1,12,left,left,0.245
DEK2001WRNO,2020-01-27-11-07-06,7,52,0.6328404880155094,left,both,ambiguous-switch,64,12,left,left,0.238
DEK2001WRNO,2020-01-27-11-07-06,7,53,0.5965086521917544,right,probe,biased-switch,-1,-6,left,left,0.307
DEK2001WRNO,2020-01-27-11-07-06,7,54,0.5317661279937793,right,both,biased-switch,63,-6,left,right,0.305
DEK2001WRNO,2020-01-27-11-07-06,7,55,0.6347442764863197,right,probe,biased-switch,-1,-12,right,right,0.269
DEK2001WRNO,2020-01-27-11-07-06,7,56,0.5358357538837638,right,both,biased-switch,57,-12,right,right,0.497
DEK2001WRNO,2020-01-27-11-07-06,7,57,0.660151683739626,right,probe,ambiguous-stable,-1,24,right,right,0.265
DEK2001WRNO,2020-01-27-11-07-06,7,58,0.666792645764425,right,both,ambiguous-stable,54,24,left,right,0.319
DEK2001WRNO,2020-01-27-11-07-06,7,59,0.6624029438293059,right,probe,biased-switch,-1,12,right,right,0.354
DEK2001WRNO,2020-01-27-11-07-06,7,60,0.6794110710529236,right,both,biased-switch,66,12,right,right,1.145
DEK2001WRNO,2020-01-27-11-07-06,8,1,0.6715392971403669,left,probe,ambiguous-switch,-1,12,left,left,0.298
DEK2001WRNO,2020-01-27-11-07-06,8,2,0.6599252193803367,left,both,ambiguous-switch,62,12,left,left,0.328
DEK2001WRNO,2020-01-27-11-07-06,8,3,0.5509977534394385,left,probe,ambiguous-switch,-1,-12,left,left,0.302
DEK2001WRNO,2020-01-27-11-07-06,8,4,0.5304972690182711,left,both,ambiguous-switch,60,-12,left,left,0.458
DEK2001WRNO,2020-01-27-11-07-06,8,5,0.698088639093681,left,probe,ambiguous-switch,-1,0,left,left,0.553
DEK2001WRNO,2020-01-27-11-07-06,8,6,0.6944324874705285,left,both,ambiguous-switch,63,0,left,left,0.33
DEK2001WRNO,2020-01-27-11-07-06,8,7,0.5968357638399744,right,probe,ambiguous-switch,-1,18,left,left,0.263
DEK2001WRNO,2020-01-27-11-07-06,8,8,0.5083437401276938,right,both,ambiguous-switch,65,18,left,right,0.715
DEK2001WRNO,2020-01-27-11-07-06,8,9,0.5615243562533836,left,probe,ambiguous-stable,-1,-18,left,left,0.577
DEK2001WRNO,2020-01-27-11-07-06,8,10,0.5923391415868806,left,both,ambiguous-stable,60,-18,right,left,0.407
DEK2001WRNO,2020-01-27-11-07-06,8,11,0.6048323901288287,left,probe,ambiguous-switch,-1,-3,left,left,0.256
DEK2001WRNO,2020-01-27-11-07-06,8,12,0.6694019007209273,left,both,ambiguous-switch,57,-3,left,left,0.222
DEK2001WRNO,2020-01-27-11-07-06,8,13,0.6961149705631524,right,probe,ambiguous-switch,-1,24,left,left,0.236
DEK2001WRNO,2020-01-27-11-07-06,8,14,0.6770743793325943,right,both,ambiguous-switch,65,24,left,left,0.194
DEK2001WRNO,2020-01-27-11-07-06,8,15,0.6861450838755739,right,probe,ambiguous-stable,-1,-12,left,left,0.285
DEK2001WRNO,2020-01-27-11-07-06,8,16,0.6839202021823587,right,both,ambiguous-stable,61,-12,right,right,0.267
DEK2001WRNO,2020-01-27-11-07-06,8,17,0.6202478817561051,right,probe,biased-switch,-1,6,right,right,0.247
DEK2001WRNO,2020-01-27-11-07-06,8,18,0.5407048399917087,right,both,biased-switch,63,6,right,left,0.229
DEK2001WRNO,2020-01-27-11-07-06,8,19,0.6942223439210535,left,probe,ambiguous-stable,-1,24,right,right,0.252
DEK2001WRNO,2020-01-27-11-07-06,8,20,0.5400523580717529,left,both,ambiguous-stable,59,24,left,right,0.221
DEK2001WRNO,2020-01-27-11-07-06,8,21,0.5221941595485664,left,probe,ambiguous-switch,-1,6,right,right,0.366
DEK2001WRNO,2020-01-27-11-07-06,8,22,0.524357234241359,left,both,ambiguous-switch,55,6,right,left,0.153
DEK2001WRNO,2020-01-27-11-07-06,8,23,0.5346634524609343,left,probe,biased-switch,-1,-12,right,right,0.224
DEK2001WRNO,2020-01-27-11-07-06,8,24,0.5094966514478041,left,both,biased-switch,58,-12,right,right,0.227
DEK2001WRNO,2020-01-27-11-07-06,8,25,0.625040161271194,right,probe,ambiguous-stable,-1,-3,right,right,0.27
DEK2001WRNO,2020-01-27-11-07-06,8,26,0.6412234634193233,right,both,ambiguous-stable,58,-3,left,right,0.209
DEK2001WRNO,2020-01-27-11-07-06,8,27,0.6220622288526944,right,probe,ambiguous-stable,-1,0,right,right,0.23
DEK2001WRNO,2020-01-27-11-07-06,8,28,0.5716615546167235,right,both,ambiguous-stable,60,0,left,left,0.235
DEK2001WRNO,2020-01-27-11-07-06,8,29,0.5360063107376026,right,probe,biased-switch,-1,0,left,left,0.244
DEK2001WRNO,2020-01-27-11-07-06,8,30,0.6683198579567684,right,both,biased-switch,58,0,left,right,0.409
DEK2001WRNO,2020-01-27-11-07-06,8,31,0.6784656874088321,left,probe,biased-switch,-1,-3,left,left,0.245
DEK2001WRNO,2020-01-27-11-07-06,8,32,0.6310747045969121,left,both,biased-switch,62,-3,left,right,0.325
DEK2001WRNO,2020-01-27-11-07-06,8,33,0.615699922400097,right,probe,ambiguous-switch,-1,3,right,right,0.432
DEK2001WRNO,2020-01-27-11-07-06,8,34,0.545895574266659,right,both,ambiguous-switch,55,3,right,right,0.271
DEK2001WRNO,2020-01-27-11-07-06,8,35,0.651727820041907,right,probe,biased-switch,-1,-18,right,right,0.321
DEK2001WRNO,2020-01-27-11-07-06,8,36,0.5258191309277734,right,both,biased-switch,61,-18,right,right,0.301
DEK2001WRNO,2020-01-27-11-07-06,8,37,0.6825469778102233,left,probe,ambiguous-switch,-1,-6,left,left,0.491
DEK2001WRNO,2020-01-27-11-07-06,8,38,0.5146606067846566,left,both,ambiguous-switch,58,-6,left,right,0.286
DEK2001WRNO,2020-01-27-11-07-06,8,39,0.6219091120390593,left,probe,biased-switch,-1,12,right,right,0.55
DEK2001WRNO,2020-01-27-11-07-06,8,40,0.632314480919048,left,both,biased-switch,61,12,right,left,0.363
DEK2001WRNO,2020-01-27-11-07-06,8,41,0.5040978867956184,left,probe,biased-switch,-1,24,right,right,0.5
DEK2001WRNO,2020-01-27-11-07-06,8,42,0.512204415080275,left,both,biased-switch,56,24,right,left,0.375
DEK2001WRNO,2020-01-27-11-07-06,8,43,0.5932195456968125,right,probe,biased-switch,-1,3,right,right,0.308
DEK2001WRNO,2020-01-27-11-07-06,8,44,0.5156400430131312,right,both,biased-switch,64,3,right,right,0.432
DEK2001WRNO,2020-01-27-11-07-06,8,45,0.5177238481752483,left,probe,biased-switch,-1,-6,right,right,0.586
DEK2001WRNO,2020-01-27-11-07-06,8,46,0.6728622213647373,left,both,biased-switch,59,-6,right,right,0.302
DEK2001WRNO,2020-01-27-11-07-06,8,47,0.566221614511217,right,probe,biased-switch,-1,18,right,right,0.348
DEK2001WRNO,2020-01-27-11-07-06,8,48,0.5605417060253699,right,both,biased-switch,55,18,right,left,0.418
DEK2001WRNO,2020-01-27-11-07-06,8,49,0.5235648116926311,left,probe,ambiguous-stable,-1,-6,left,left,1.303
DEK2001WRNO,2020-01-27-11-07-06,8,50,0.546232067650757,left,both,ambiguous-stable,55,-6,right,left,0.413
DEK2001WRNO,2020-01-27-11-07-06,8,51,0.6760198363215307,left,probe,ambiguous-switch,-1,-18,left,left,0.384
DEK2001WRNO,2020-01-27-11-07-06,8,52,0.5054308104782209,left,both,ambiguous-switch,57,-18,left,left,0.304
DEK2001WRNO,2020-01-27-11-07-06,8,53,0.5250237538154469,right,probe,ambiguous-stable,-1,12,left,left,0.275
DEK2001WRNO,2020-01-27-11-07-06,8,54,0.538254877706428,right,both,ambiguous-stable,66,12,right,left,0.302
DEK2001WRNO,2020-01-27-11-07-06,8,55,0.6516774967121579,left,probe,ambiguous-stable,-1,6,left,left,0.235
DEK2001WRNO,2020-01-27-11-07-06,8,56,0.5932425001553222,left,both,ambiguous-stable,55,6,right,left,0.257
DEK2001WRNO,2020-01-27-11-07-06,8,57,0.5607961019850902,left,probe,ambiguous-stable,-1,18,left,left,0.262
DEK2001WRNO,2020-01-27-11-07-06,8,58,0.5955048744594212,left,both,ambiguous-stable,57,18,right,left,1.257
DEK2001WRNO,2020-01-27-11-07-06,8,59,0.6685077636740998,left,probe,ambiguous-stable,-1,3,left,left,0.383
DEK2001WRNO,2020-01-27-11-07-06,8,60,0.5920241432323354,left,both,ambiguous-stable,60,3,right,left,0.39
DEK2001WRNO,2020-01-27-11-07-06,9,1,0.6392411875599597,right,probe,ambiguous-switch,-1,12,left,left,0.279
DEK2001WRNO,2020-01-27-11-07-06,9,2,0.5569601020084846,right,both,ambiguous-switch,63,12,left,left,0.314
DEK2001WRNO,2020-01-27-11-07-06,9,3,0.6020375562864487,right,probe,biased-switch,-1,24,left,left,0.228
DEK2001WRNO,2020-01-27-11-07-06,9,4,0.5373296143721389,right,both,biased-switch,64,24,left,left,0.262
DEK2001WRNO,2020-01-27-11-07-06,9,5,0.6956118168416303,left,probe,ambiguous-stable,-1,24,left,left,0.057
DEK2001WRNO,2020-01-27-11-07-06,9,6,0.6666292491466339,left,both,ambiguous-stable,66,24,right,left,0.447
DEK2001WRNO,2020-01-27-11-07-06,9,7,0.6661113230621152,right,probe,biased-switch,-1,-12,left,left,0.35
DEK2001WRNO,2020-01-27-11-07-06,9,8,0.5748343267818399,right,both,biased-switch,56,-12,left,left,0.187
DEK2001WRNO,2020-01-27-11-07-06,9,9,0.6303885558187476,right,probe,ambiguous-stable,-1,18,left,left,0.196
DEK2001WRNO,2020-01-27-11-07-06,9,10,0.5336143125543915,right,both,ambiguous-stable,61,18,right,left,0.203
DEK2001WRNO,2020-01-27-11-07-06,9,11,0.6001725237518949,left,probe,biased-switch,-1,3,left,left,0.216
DEK2001WRNO,2020-01-27-11-07-06,9,12,0.5043398816694249,left,both,biased-switch,62,3,left,left,0.22
DEK2001WRNO,2020-01-27-11-07-06,9,13,0.5997014894162577,left,probe,biased-switch,-1,-18,left,left,0.224
DEK2001WRNO,2020-01-27-11-07-06,9,14,0.6393032548354582,left,both,biased-switch,64,-18,left,left,1.581
DEK2001WRNO,2020-01-27-11-07-06,9,15,0.6465947147788887,left,probe,ambiguous-switch,-1,3,left,left,0.484
DEK2001WRNO,2020-01-27-11-07-06,9,16,0.5789987623168079,left,both,ambiguous-switch,56,3,left,left,0.269
DEK2001WRNO,2020-01-27-11-07-06,9,17,0.6351170092794878,left,probe,biased-switch,-1,0,left,left,0.301
DEK2001WRNO,2020-01-27-11-07-06,9,18,0.6812866078037156,left,both,biased-switch,64,0,left,left,0.26
DEK2001WRNO,2020-01-27-11-07-06,9,19,0.5748686830743791,right,probe,ambiguous-switch,-1,24,left,left,0.237
DEK2001WRNO,2020-01-27-11-07-06,9,20,0.5310851609070395,right,both,ambiguous-switch,56,24,left,left,0.238
DEK2001WRNO,2020-01-27-11-07-06,9,21,0.541725406577822,left,probe,ambiguous-stable,-1,12,left,left,0.252
DEK2001WRNO,2020-01-27-11-07-06,9,22,0.5254751271715143,left,both,ambiguous-stable,58,12,right,left,0.248
DEK2001WRNO,2020-01-27-11-07-06,9,23,0.6682246655662099,left,probe,ambiguous-switch,-1,-3,left,left,0.317
DEK2001WRNO,2020-01-27-11-07-06,9,24,0.5560212275514854,left,both,ambiguous-switch,66,-3,left,left,0.269
DEK2001WRNO,2020-01-27-11-07-06,9,25,0.5143164961216852,left,probe,biased-switch,-1,-3,left,left,0.262
DEK2001WRNO,2020-01-27-11-07-06,9,26,0.5080499514320804,left,both,biased-switch,55,-3,left,left,0.205
DEK2001WRNO,2020-01-27-11-07-06,9,27,0.5585617806716009,left,probe,ambiguous-switch,-1,-6,left,left,0.239
DEK2001WRNO,2020-01-27-11-07-06,9,28,0.5812859197596846,left,both,ambiguous-switch,60,-6,left,left,0.291
DEK2001WRNO,2020-01-27-11-07-06,9,29,0.5848571515195219,left,probe,ambiguous-stable,-1,-12,left,left,0.339
DEK2001WRNO,2020-01-27-11-07-06,9,30,0.5503337274291521,left,both,ambiguous-stable,57,-12,right,left,0.248
DEK2001WRNO,2020-01-27-11-07-06,9,31,0.6735476392783369,left,probe,biased-switch,-1,18,left,left,0.253
DEK2001WRNO,2020-01-27-11-07-06,9,32,0.6476901456526297,left,both,biased-switch,57,18,left,left,0.239
DEK2001WRNO,2020-01-27-11-07-06,9,33,0.5031551175031556,right,probe,ambiguous-stable,-1,-3,right,right,0.237
DEK2001WRNO,2020-01-27-11-07-06,9,34,0.5058119522252125,right,both,ambiguous-stable,63,-3,left,right,0.24
DEK2001WRNO,2020-01-27-11-07-06,9,35,0.6905644683414274,right,probe,biased-switch,-1,6,right,right,0.448
DEK2001WRNO,2020-01-27-11-07-06,9,36,0.6176769717433295,right,both,biased-switch,65,6,right,left,0.325
DEK2001WRNO,2020-01-27-11-07-06,9,37,0.5286115569027459,right,probe,ambiguous-switch,-1,0,right,right,0.273
DEK2001WRNO,2020-01-27-11-07-06,9,38,0.6795692166035205,right,both,ambiguous-switch,56,0,right,right,0.33
DEK2001WRNO,2020-01-27-11-07-06,9,39,0.5584930287234685,right,probe,ambiguous-stable,-1,0,right,right,0.254
DEK2001WRNO,2020-01-27-11-07-06,9,40,0.6534951177354423,right,both,ambiguous-stable,63,0,left,right,0.254
DEK2001WRNO,2020-01-27-11-07-06,9,41,0.694329156715717,left,probe,ambiguous-stable,-1,6,right,right,0.278
DEK2001WRNO,2020-01-27-11-07-06,9,42,0.5295703732639637,left,both,ambiguous-stable,60,6,left,right,0.345
DEK2001WRNO,2020-01-27-11-07-06,9,43,0.5623670873857255,right,probe,ambiguous-stable,-1,-18,right,right,0.443
DEK2001WRNO,2020-01-27-11-07-06,9,44,0.6850097121592152,right,both,ambiguous-stable,59,-18,left,left,0.293
DEK2001WRNO,2020-01-27-11-07-06,9,45,0.6332495150757995,left,probe,biased-switch,-1,12,left,left,0.417
DEK2001WRNO,2020-01-27-11-07-06,9,46,0.6490975453210498,left,both,biased-switch,62,12,left,right,0.236
DEK2001WRNO,2020-01-27-11-07-06,9,47,0.6211574101169625,right,probe,ambiguous-stable,-1,-6,right,right,0.329
DEK2001WRNO,2020-01-27-11-07-06,9,48,0.5369593960129228,right,both,ambiguous-stable,54,-6,left,right,0.255
DEK2001WRNO,2020-01-27-11-07-06,9,49,0.6347985938129089,left,probe,biased-switch,-1,-6,right,right,0.247
DEK2001WRNO,2020-01-27-11-07-06,9,50,0.6156391689215484,left,both,biased-switch,62,-6,right,right,0.308
DEK2001WRNO,2020-01-27-11-07-06,9,51,0.6112340664577178,right,probe,ambiguous-stable,-1,3,right,right,0.276
DEK2001WRNO,2020-01-27-11-07-06,9,52,0.6174015047932583,right,both,ambiguous-stable,54,3,left,right,0.253
DEK2001WRNO,2020-01-27-11-07-06,9,53,0.5102215387782023,right,probe,ambiguous-switch,-1,6,right,right,0.621
DEK2001WRNO,2020-01-27-11-07-06,9,54,0.655876180589473,right,both,ambiguous-switch,60,6,right,right,0.28
DEK2001WRNO,2020-01-27-11-07-06,9,55,0.5847940037461443,left,probe,ambiguous-switch,-1,-18,right,right,0.195
DEK2001WRNO,2020-01-27-11-07-06,9,56,0.5057461087551208,left,both,ambiguous-switch,58,-18,right,right,0.57
DEK2001WRNO,2020-01-27-11-07-06,9,57,0.5120399703248497,right,probe,ambiguous-switch,-1,-12,right,right,0.419
DEK2001WRNO,2020-01-27-11-07-06,9,58,0.6522143887458987,right,both,ambiguous-switch,59,-12,right,right,0.388
DEK2001WRNO,2020-01-27-11-07-06,9,59,0.635736973058109,right,probe,ambiguous-switch,-1,18,right,right,0.45
DEK2001WRNO,2020-01-27-11-07-06,9,60,0.6907254580741662,right,both,ambiguous-switch,57,18,right,left,0.346
DEK2001WRNO,2020-01-27-11-07-06,10,1,0.6690664997375624,right,probe,biased-switch,-1,0,right,right,0.278
DEK2001WRNO,2020-01-27-11-07-06,10,2,0.5590894128414036,right,both,biased-switch,60,0,right,left,0.187
DEK2001WRNO,2020-01-27-11-07-06,10,3,0.5839440456881012,right,probe,ambiguous-switch,-1,-6,left,left,0.226
DEK2001WRNO,2020-01-27-11-07-06,10,4,0.6646122427889979,right,both,ambiguous-switch,58,-6,left,left,1.305
DEK2001WRNO,2020-01-27-11-07-06,10,5,0.6734239848700345,left,probe,biased-switch,-1,-18,left,left,0.267
DEK2001WRNO,2020-01-27-11-07-06,10,6,0.515402951137169,left,both,biased-switch,58,-18,left,left,0.505
DEK2001WRNO,2020-01-27-11-07-06,10,7,0.6143301814053848,left,probe,ambiguous-stable,-1,12,left,left,0.283
DEK2001WRNO,2020-01-27-11-07-06,10,8,0.6189889686526223,left,both,ambiguous-stable,59,12,right,left,0.226
DEK2001WRNO,2020-01-27-11-07-06,10,9,0.6771064399061338,right,probe,ambiguous-stable,-1,6,left,left,0.259
DEK2001WRNO,2020-01-27-11-07-06,10,10,0.6287520855060328,right,both,ambiguous-stable,65,6,right,left,0.255
DEK2001WRNO,2020-01-27-11-07-06,10,11,0.5636850661837387,left,probe,ambiguous-switch,-1,0,left,left,0.345
DEK2001WRNO,2020-01-27-11-07-06,10,12,0.5984623799956214,left,both,ambiguous-switch,57,0,left,right,0.291
DEK2001WRNO,2020-01-27-11-07-06,10,13,0.6603854814415293,left,probe,ambiguous-switch,-1,-3,left,left,0.29
DEK2001WRNO,2020-01-27-11-07-06,10,14,0.6847188749536757,left,both,ambiguous-switch,61,-3,left,right,0.28
DEK2001WRNO,2020-01-27-11-07-06,10,15,0.671831768021321,right,probe,ambiguous-stable,-1,3,left,left,0.256
DEK2001WRNO,2020-01-27-11-07-06,10,16,0.6576340559579504,right,both,ambiguous-stable,60,3,right,left,0.224
DEK2001WRNO,2020-01-27-11-07-06,10,17,0.5662318063161578,left,probe,ambiguous-switch,-1,24,right,right,0.466
DEK2001WRNO,2020-01-27-11-07-06,10,18,0.5411216416093219,left,both,ambiguous-switch,56,24,right,left,0.327
DEK2001WRNO,2020-01-27-11-07-06,10,19,0.5886403014787668,left,probe,biased-switch,-1,6,left,left,0.342
DEK2001WRNO,2020-01-27-11-07-06,10,20,0.6428252571911274,left,both,biased-switch,63,6,left,left,0.289
DEK2001WRNO,2020-01-27-11-07-06,10,21,0.6625477510826174,left,probe,biased-switch,-1,-12,left,left,2.093
DEK2001WRNO,2020-01-27-11-07-06,10,22,0.6903969118475097,left,both,biased-switch,64,-12,left,left,0.309
DEK2001WRNO,2020-01-27-11-07-06,10,23,0.504464303433757,right,probe,ambiguous-stable,-1,24,left,left,0.441
DEK2001WRNO,2020-01-27-11-07-06,10,24,0.5479429616513246,right,both,ambiguous-stable,57,24,right,right,0.395
DEK2001WRNO,2020-01-27-11-07-06,10,25,0.6238440376657319,left,probe,ambiguous-stable,-1,-18,left,left,0.52
DEK2001WRNO,2020-01-27-11-07-06,10,26,0.606642044901161,left,both,ambiguous-stable,62,-18,right,left,0.434
DEK2001WRNO,2020-01-27-11-07-06,10,27,0.6129574502534418,right,probe,biased-switch,-1,-6,left,left,0.63
DEK2001WRNO,2020-01-27-11-07-06,10,28,0.5992480201892858,right,both,biased-switch,65,-6,left,right,0.463
DEK2001WRNO,2020-01-27-11-07-06,10,29,0.5763849885531743,left,probe,ambiguous-stable,-1,0,left,left,0.34
DEK2001WRNO,2020-01-27-11-07-06,10,30,0.6425527287673695,left,both,ambiguous-stable,59,0,right,left,0.268
DEK2001WRNO,2020-01-27-11-07-06,10,31,0.6032718957086585,right,probe,ambiguous-stable,-1,-3,right,right,0.972
DEK2001WRNO,2020-01-27-11-07-06,10,32,0.6662519051040453,right,both,ambiguous-stable,56,-3,left,right,0.302
DEK2001WRNO,2020-01-27-11-07-06,10,33,0.6430358795973123,right,probe,biased-switch,-1,-3,right,right,0.342
DEK2001WRNO,2020-01-27-11-07-06,10,34,0.5527161295556345,right,both,biased-switch,61,-3,right,right,0.503
DEK2001WRNO,2020-01-27-11-07-06,10,35,0.6569205953810311,right,probe,ambiguous-switch,-1,-12,right,right,0.524
DEK2001WRNO,2020-01-27-11-07-06,10,36,0.5319631771578188,right,both,ambiguous-switch,62,-12,right,right,0.268
DEK2001WRNO,2020-01-27-11-07-06,10,37,0.6961996157908188,left,probe,ambiguous-switch,-1,18,right,right,0.379
DEK2001WRNO,2020-01-27-11-07-06,10,38,0.6368205191816103,left,both,ambiguous-switch,65,18,right,right,0.254
DEK2001WRNO,2020-01-27-11-07-06,10,39,0.5682003495611099,right,probe,biased-switch,-1,12,right,right,0.279
DEK2001WRNO,2020-01-27-11-07-06,10,40,0.5208641571370294,right,both,biased-switch,56,12,right,right,0.422
DEK2001WRNO,2020-01-27-11-07-06,10,41,0.6387215753640222,right,probe,ambiguous-switch,-1,6,right,right,0.365
DEK2001WRNO,2020-01-27-11-07-06,10,42,0.6587447401483332,right,both,ambiguous-switch,56,6,right,left,0.622
DEK2001WRNO,2020-01-27-11-07-06,10,43,0.6594619652933416,right,probe,ambiguous-stable,-1,-12,right,right,0.326
DEK2001WRNO,2020-01-27-11-07-06,10,44,0.5296237749562073,right,both,ambiguous-stable,62,-12,left,left,0.23
DEK2001WRNO,2020-01-27-11-07-06,10,45,0.515401254336612,left,probe,ambiguous-stable,-1,18,left,left,1.533
DEK2001WRNO,2020-01-27-11-07-06,10,46,0.6738748861826821,left,both,ambiguous-stable,57,18,right,right,1.494
DEK2001WRNO,2020-01-27-11-07-06,10,47,0.5926723188865449,right,probe,biased-switch,-1,18,right,right,0.425
DEK2001WRNO,2020-01-27-11-07-06,10,48,0.5262312163108785,right,both,biased-switch,57,18,right,left,0.327
DEK2001WRNO,2020-01-27-11-07-06,10,49,0.6560778823938812,left,probe,biased-switch,-1,3,right,right,0.253
DEK2001WRNO,2020-01-27-11-07-06,10,50,0.5287574422934341,left,both,biased-switch,65,3,right,right,0.23
DEK2001WRNO,2020-01-27-11-07-06,10,51,0.5325864639682016,right,probe,ambiguous-switch,-1,12,right,right,0.235
DEK2001WRNO,2020-01-27-11-07-06,10,52,0.628231399273274,right,both,ambiguous-switch,58,12,right,left,0.282
DEK2001WRNO,2020-01-27-11-07-06,10,53,0.656840056438889,left,probe,ambiguous-switch,-1,3,right,right,0.252
DEK2001WRNO,2020-01-27-11-07-06,10,54,0.5641867882626098,left,both,ambiguous-switch,65,3,right,right,0.331
DEK2001WRNO,2020-01-27-11-07-06,10,55,0.5687684504644092,right,probe,biased-switch,-1,24,right,right,0.247
DEK2001WRNO,2020-01-27-11-07-06,10,56,0.6340673947547131,right,both,biased-switch,58,24,right,left,0.625
DEK2001WRNO,2020-01-27-11-07-06,10,57,0.5320968126435748,right,probe,ambiguous-stable,-1,-6,right,right,0.331
DEK2001WRNO,2020-01-27-11-07-06,10,58,0.6879776995666789,right,both,ambiguous-stable,62,-6,left,left,0.282
DEK2001WRNO,2020-01-27-11-07-06,10,59,0.5533738797649839,left,probe,ambiguous-switch,-1,-18,left,left,0.572
DEK2001WRNO,2020-01-27-11-07-06,10,60,0.5632046201181733,left,both,ambiguous-switch,63,-18,left,left,0.304
