Participant,Session,Block,Trial,OnsetDelay,ProbeLocation,WhatIsReported,Condition,TriggerTime,ProbeSOA,PrimeDirection,Response,RT
SKL1994WRNO,2019-10-01-11-23-35,1,1,0.5349126252765968,right,probe,ambiguous-switch,-1,5,right,right,0.279
SKL1994WRNO,2019-10-01-11-23-35,1,2,0.5410515428506766,right,both,ambiguous-switch,103,5,right,right,0.197
SKL1994WRNO,2019-10-01-11-23-35,1,3,0.5416278372729139,left,probe,biased-switch,-1,-30,right,right,0.246
SKL1994WRNO,2019-10-01-11-23-35,1,4,0.5915814407100677,left,both,biased-switch,93,-30,right,right,0.187
SKL1994WRNO,2019-10-01-11-23-35,1,5,0.6196864794050324,left,probe,ambiguous-switch,-1,40,right,right,0.183
SKL1994WRNO,2019-10-01-11-23-35,1,6,0.6961170859283881,left,both,ambiguous-switch,97,40,right,right,0.194
SKL1994WRNO,2019-10-01-11-23-35,1,7,0.52351652068299,right,probe,ambiguous-switch,-1,20,right,right,0.181
SKL1994WRNO,2019-10-01-11-23-35,1,8,0.5945543723129645,right,both,ambiguous-switch,106,20,right,right,0.218
SKL1994WRNO,2019-10-01-11-23-35,1,9,0.6503237358081242,left,probe,ambiguous-switch,-1,-30,right,right,0.18
SKL1994WRNO,2019-10-01-11-23-35,1,10,0.6187623247744651,left,both,ambiguous-switch,95,-30,right,right,0.19
SKL1994WRNO,2019-10-01-11-23-35,1,11,0.5411647046576473,right,probe,biased-switch,-1,-10,right,right,0.172
SKL1994WRNO,2019-10-01-11-23-35,1,12,0.521533778238412,right,both,biased-switch,99,-10,right,right,0.193
SKL1994WRNO,2019-10-01-11-23-35,1,13,0.5360228633150618,right,probe,ambiguous-switch,-1,-10,right,right,0.162
SKL1994WRNO,2019-10-01-11-23-35,1,14,0.523089908810486,right,both,ambiguous-switch,103,-10,right,right,0.208
SKL1994WRNO,2019-10-01-11-23-35,1,15,0.6151114999950188,left,probe,biased-switch,-1,40,right,right,0.178
SKL1994WRNO,2019-10-01-11-23-35,1,16,0.6475868003768854,left,both,biased-switch,101,40,right,right,0.215
SKL1994WRNO,2019-10-01-11-23-35,1,17,0.5332154409602463,left,probe,ambiguous-switch,-1,-20,right,right,0.18
SKL1994WRNO,2019-10-01-11-23-35,1,18,0.6748221403905782,left,both,ambiguous-switch,95,-20,right,right,0.2
SKL1994WRNO,2019-10-01-11-23-35,1,19,0.5757468436307275,right,probe,biased-switch,-1,20,right,right,0.075
SKL1994WRNO,2019-10-01-11-23-35,1,20,0.5118679605313569,right,both,biased-switch,108,20,right,right,0.184
SKL1994WRNO,2019-10-01-11-23-35,1,21,0.6116977635206305,right,probe,biased-switch,-1,-5,right,right,0.275
SKL1994WRNO,2019-10-01-11-23-35,1,22,0.5564570679859,right,both,biased-switch,108,-5,right,right,0.252
SKL1994WRNO,2019-10-01-11-23-35,1,23,0.5029617848230324,left,probe,biased-switch,-1,-20,right,right,0.17
SKL1994WRNO,2019-10-01-11-23-35,1,24,0.5589467265085445,left,both,biased-switch,104,-20,right,right,0.219
SKL1994WRNO,2019-10-01-11-23-35,1,25,0.6735815748210661,left,probe,biased-switch,-1,5,right,right,0.199
SKL1994WRNO,2019-10-01-11-23-35,1,26,0.629386631770269,left,both,biased-switch,91,5,right,right,0.145
SKL1994WRNO,2019-10-01-11-23-35,1,27,0.5576516123963476,left,probe,biased-switch,-1,0,right,right,0.193
SKL1994WRNO,2019-10-01-11-23-35,1,28,0.6766576835117968,left,both,biased-switch,100,0,right,right,0.211
SKL1994WRNO,2019-10-01-11-23-35,1,29,0.5804728266727603,right,probe,ambiguous-switch,-1,30,right,right,0.238
SKL1994WRNO,2019-10-01-11-23-35,1,30,0.6767980949608674,right,both,ambiguous-switch,109,30,right,right,0.197
SKL1994WRNO,2019-10-01-11-23-35,1,31,0.5206329358503466,left,probe,biased-switch,-1,30,right,right,0.266
SKL1994WRNO,2019-10-01-11-23-35,1,32,0.5384569019096488,left,both,biased-switch,103,30,right,right,0.194
SKL1994WRNO,2019-10-01-11-23-35,1,33,0.6285308116033934,left,probe,ambiguous-switch,-1,-5,right,right,0.146
SKL1994WRNO,2019-10-01-11-23-35,1,34,0.5617377168667806,left,both,ambiguous-switch,100,-5,right,right,0.228
SKL1994WRNO,2019-10-01-11-23-35,1,35,0.5628016047120811,left,probe,ambiguous-switch,-1,10,right,right,0.172
SKL1994WRNO,2019-10-01-11-23-35,1,36,0.6452051846921786,left,both,ambiguous-switch,109,10,right,right,0.223
SKL1994WRNO,2019-10-01-11-23-35,1,37,0.6470772547925393,left,probe,ambiguous-switch,-1,0,right,right,0.184
SKL1994WRNO,2019-10-01-11-23-35,1,38,0.6683332036072667,left,both,ambiguous-switch,102,0,right,right,0.198
SKL1994WRNO,2019-10-01-11-23-35,1,39,0.6526514020602503,right,probe,biased-switch,-1,10,right,right,0.191
SKL1994WRNO,2019-10-01-11-23-35,1,40,0.663250555816151,right,both,biased-switch,100,10,right,right,0.182
SKL1994WRNO,2019-10-01-11-23-35,1,41,0.6591735338326827,right,probe,ambiguous-switch,-1,5,right,right,0.204
SKL1994WRNO,2019-10-01-11-23-35,1,42,0.5853931588587238,right,both,ambiguous-switch,101,5,right,right,0.21
SKL1994WRNO,2019-10-01-11-23-35,1,43,0.5776736284822722,right,probe,biased-switch,-1,-30,right,right,0.171
SKL1994WRNO,2019-10-01-11-23-35,1,44,0.5375654057182147,right,both,biased-switch,96,-30,right,right,0.205
SKL1994WRNO,2019-10-01-11-23-35,1,45,0.5985511632204351,left,probe,ambiguous-switch,-1,40,right,right,0.221
SKL1994WRNO,2019-10-01-11-23-35,1,46,0.5516136455817326,left,both,ambiguous-switch,106,40,right,right,0.096
SKL1994WRNO,2019-10-01-11-23-35,1,47,0.5404400333081978,left,probe,ambiguous-switch,-1,20,right,right,0.119
SKL1994WRNO,2019-10-01-11-23-35,1,48,0.5007343802752213,left,both,ambiguous-switch,100,20,right,right,0.176
SKL1994WRNO,2019-10-01-11-23-35,1,49,0.5944508146639427,left,probe,ambiguous-switch,-1,-30,right,right,0.151
SKL1994WRNO,2019-10-01-11-23-35,1,50,0.5292960431058519,left,both,ambiguous-switch,106,-30,right,right,0.196
SKL1994WRNO,2019-10-01-11-23-35,1,51,0.5629371239238032,right,probe,biased-switch,-1,-10,right,right,0.163
SKL1994WRNO,2019-10-01-11-23-35,1,52,0.5193627282606358,right,both,biased-switch,98,-10,right,left,0.201
SKL1994WRNO,2019-10-01-11-23-35,1,53,0.6771570906955,right,probe,ambiguous-switch,-1,-10,left,left,0.193
SKL1994WRNO,2019-10-01-11-23-35,1,54,0.6703902376280452,right,both,ambiguous-switch,95,-10,left,left,0.199
SKL1994WRNO,2019-10-01-11-23-35,1,55,0.5967058317656251,right,probe,biased-switch,-1,40,left,left,0.193
SKL1994WRNO,2019-10-01-11-23-35,1,56,0.6903956716850783,right,both,biased-switch,103,40,left,left,0.204
SKL1994WRNO,2019-10-01-11-23-35,1,57,0.5493267408356,left,probe,ambiguous-switch,-1,-20,right,right,0.147
SKL1994WRNO,2019-10-01-11-23-35,1,58,0.6487596632806474,left,both,ambiguous-switch,99,-20,right,right,0.164
SKL1994WRNO,2019-10-01-11-23-35,1,59,0.6011190148053732,right,probe,biased-switch,-1,20,left,left,0.187
SKL1994WRNO,2019-10-01-11-23-35,1,60,0.5624039566025869,right,both,biased-switch,92,20,left,left,0.2
SKL1994WRNO,2019-10-01-11-23-35,1,61,0.687069210859822,left,probe,biased-switch,-1,-5,right,right,0.154
SKL1994WRNO,2019-10-01-11-23-35,1,62,0.5425553262753791,left,both,biased-switch,106,-5,right,right,0.154
SKL1994WRNO,2019-10-01-11-23-35,1,63,0.6125122823997272,right,probe,biased-switch,-1,-20,left,left,0.161
SKL1994WRNO,2019-10-01-11-23-35,1,64,0.6149851173567807,right,both,biased-switch,110,-20,left,left,0.159
SKL1994WRNO,2019-10-01-11-23-35,1,65,0.5931513633316977,left,probe,biased-switch,-1,5,right,right,0.199
SKL1994WRNO,2019-10-01-11-23-35,1,66,0.5750683613904612,left,both,biased-switch,92,5,right,right,0.123
SKL1994WRNO,2019-10-01-11-23-35,1,67,0.6394482665867522,right,probe,biased-switch,-1,0,left,left,0.177
SKL1994WRNO,2019-10-01-11-23-35,1,68,0.5672713953245235,right,both,biased-switch,106,0,left,left,0.252
SKL1994WRNO,2019-10-01-11-23-35,1,69,0.6105069872353149,right,probe,ambiguous-switch,-1,30,left,left,0.124
SKL1994WRNO,2019-10-01-11-23-35,1,70,0.687983347558986,right,both,ambiguous-switch,109,30,left,left,0.179
SKL1994WRNO,2019-10-01-11-23-35,1,71,0.5889423844928149,left,probe,biased-switch,-1,30,right,right,0.274
SKL1994WRNO,2019-10-01-11-23-35,1,72,0.6201358740343119,left,both,biased-switch,92,30,right,right,0.198
SKL1994WRNO,2019-10-01-11-23-35,1,73,0.6363028121008119,left,probe,ambiguous-switch,-1,-5,right,right,0.173
SKL1994WRNO,2019-10-01-11-23-35,1,74,0.5013807860931454,left,both,ambiguous-switch,102,-5,right,right,0.21
SKL1994WRNO,2019-10-01-11-23-35,1,75,0.6668401347617474,left,probe,ambiguous-switch,-1,10,right,right,0.008
SKL1994WRNO,2019-10-01-11-23-35,1,76,0.6499397732029926,left,both,ambiguous-switch,97,10,right,right,0.145
SKL1994WRNO,2019-10-01-11-23-35,1,77,0.5317463770782777,left,probe,ambiguous-switch,-1,0,right,right,0.167
SKL1994WRNO,2019-10-01-11-23-35,1,78,0.5052814674823211,left,both,ambiguous-switch,99,0,right,right,0.13
SKL1994WRNO,2019-10-01-11-23-35,1,79,0.6519081301285786,left,probe,biased-switch,-1,10,right,right,0.154
SKL1994WRNO,2019-10-01-11-23-35,1,80,0.6406797317171216,left,both,biased-switch,105,10,right,right,0.192
SKL1994WRNO,2019-10-01-11-23-35,2,1,0.6047411027940808,right,probe,ambiguous-switch,-1,0,right,right,0.216
SKL1994WRNO,2019-10-01-11-23-35,2,2,0.6236207585663305,right,both,ambiguous-switch,97,0,right,left,0.172
SKL1994WRNO,2019-10-01-11-23-35,2,3,0.5643343212472108,right,probe,ambiguous-switch,-1,20,left,left,0.183
SKL1994WRNO,2019-10-01-11-23-35,2,4,0.6924917290759356,right,both,ambiguous-switch,109,20,left,left,0.146
SKL1994WRNO,2019-10-01-11-23-35,2,5,0.5989861348145001,left,probe,ambiguous-switch,-1,30,right,right,0.168
SKL1994WRNO,2019-10-01-11-23-35,2,6,0.6584770917945341,left,both,ambiguous-switch,93,30,right,right,0.058
SKL1994WRNO,2019-10-01-11-23-35,2,7,0.6168495780352549,right,probe,biased-switch,-1,20,left,left,0.209
SKL1994WRNO,2019-10-01-11-23-35,2,8,0.5115812218607126,right,both,biased-switch,107,20,left,left,0.221
SKL1994WRNO,2019-10-01-11-23-35,2,9,0.5954968815464612,left,probe,ambiguous-switch,-1,-5,right,right,0.119
SKL1994WRNO,2019-10-01-11-23-35,2,10,0.5539241525965812,left,both,ambiguous-switch,96,-5,right,right,0.171
SKL1994WRNO,2019-10-01-11-23-35,2,11,0.5897490665113078,right,probe,biased-switch,-1,-5,left,left,0.252
SKL1994WRNO,2019-10-01-11-23-35,2,12,0.6751108538842301,right,both,biased-switch,92,-5,left,left,0.168
SKL1994WRNO,2019-10-01-11-23-35,2,13,0.6955759736079983,left,probe,ambiguous-switch,-1,40,right,right,0.207
SKL1994WRNO,2019-10-01-11-23-35,2,14,0.6988131804599667,left,both,ambiguous-switch,103,40,right,right,0.077
SKL1994WRNO,2019-10-01-11-23-35,2,15,0.5953049244628225,right,probe,biased-switch,-1,30,left,left,0.19
SKL1994WRNO,2019-10-01-11-23-35,2,16,0.6840736969314312,right,both,biased-switch,97,30,left,left,0.32
SKL1994WRNO,2019-10-01-11-23-35,2,17,0.5583694307642335,left,probe,ambiguous-switch,-1,-30,right,right,0.1
SKL1994WRNO,2019-10-01-11-23-35,2,18,0.656479213054703,left,both,ambiguous-switch,106,-30,right,right,1.088
SKL1994WRNO,2019-10-01-11-23-35,2,19,0.5008691260522333,right,probe,biased-switch,-1,-10,left,left,0.255
SKL1994WRNO,2019-10-01-11-23-35,2,20,0.6709937573422565,right,both,biased-switch,93,-10,left,left,0.262
SKL1994WRNO,2019-10-01-11-23-35,2,21,0.6077196211841034,right,probe,biased-switch,-1,-30,left,left,0.237
SKL1994WRNO,2019-10-01-11-23-35,2,22,0.6170165761625174,right,both,biased-switch,97,-30,left,left,0.207
SKL1994WRNO,2019-10-01-11-23-35,2,23,0.5353679846132549,right,probe,ambiguous-switch,-1,10,left,left,0.213
SKL1994WRNO,2019-10-01-11-23-35,2,24,0.66825303537841,right,both,ambiguous-switch,91,10,left,left,0.174
SKL1994WRNO,2019-10-01-11-23-35,2,25,0.505382196652351,right,probe,ambiguous-switch,-1,-20,left,left,0.183
SKL1994WRNO,2019-10-01-11-23-35,2,26,0.698288335221288,right,both,ambiguous-switch,92,-20,left,left,0.125
SKL1994WRNO,2019-10-01-11-23-35,2,27,0.5104865273721759,left,probe,ambiguous-switch,-1,5,left,left,0.201
SKL1994WRNO,2019-10-01-11-23-35,2,28,0.5735979897326874,left,both,ambiguous-switch,100,5,left,right,0.191
SKL1994WRNO,2019-10-01-11-23-35,2,29,0.6122098840260871,right,probe,biased-switch,-1,10,left,left,0.192
SKL1994WRNO,2019-10-01-11-23-35,2,30,0.5313799408890217,right,both,biased-switch,100,10,left,left,0.222
SKL1994WRNO,2019-10-01-11-23-35,2,31,0.6526668492203203,right,probe,biased-switch,-1,0,left,left,0.198
SKL1994WRNO,2019-10-01-11-23-35,2,32,0.5717919061503589,right,both,biased-switch,108,0,left,left,0.197
SKL1994WRNO,2019-10-01-11-23-35,2,33,0.6669800462946758,left,probe,biased-switch,-1,40,right,right,0.215
SKL1994WRNO,2019-10-01-11-23-35,2,34,0.627688687508067,left,both,biased-switch,101,40,right,right,0.231
SKL1994WRNO,2019-10-01-11-23-35,2,35,0.6750767286014461,left,probe,ambiguous-switch,-1,-10,right,right,0.103
SKL1994WRNO,2019-10-01-11-23-35,2,36,0.6116153532196277,left,both,ambiguous-switch,94,-10,right,right,0.205
SKL1994WRNO,2019-10-01-11-23-35,2,37,0.5301701485994005,right,probe,biased-switch,-1,5,left,left,0.222
SKL1994WRNO,2019-10-01-11-23-35,2,38,0.5499948886882976,right,both,biased-switch,104,5,left,left,0.17
SKL1994WRNO,2019-10-01-11-23-35,2,39,0.6040838922597176,right,probe,biased-switch,-1,-20,left,left,0.19
SKL1994WRNO,2019-10-01-11-23-35,2,40,0.5525709196984783,right,both,biased-switch,102,-20,left,left,0.159
SKL1994WRNO,2019-10-01-11-23-35,2,41,0.6921737673207187,left,probe,ambiguous-switch,-1,0,right,right,0.192
SKL1994WRNO,2019-10-01-11-23-35,2,42,0.5744459711685861,left,both,ambiguous-switch,104,0,right,right,0.158
SKL1994WRNO,2019-10-01-11-23-35,2,43,0.6658907976378721,right,probe,ambiguous-switch,-1,20,left,left,0.189
SKL1994WRNO,2019-10-01-11-23-35,2,44,0.6962143492584693,right,both,ambiguous-switch,101,20,left,left,0.192
SKL1994WRNO,2019-10-01-11-23-35,2,45,0.5189037295112583,left,probe,ambiguous-switch,-1,30,right,right,0.125
SKL1994WRNO,2019-10-01-11-23-35,2,46,0.670922884749297,left,both,ambiguous-switch,96,30,right,right,0.204
SKL1994WRNO,2019-10-01-11-23-35,2,47,0.530155525623703,left,probe,biased-switch,-1,20,right,right,0.116
SKL1994WRNO,2019-10-01-11-23-35,2,48,0.6680409942456269,left,both,biased-switch,93,20,right,right,0.229
SKL1994WRNO,2019-10-01-11-23-35,2,49,0.6212874236560326,left,probe,ambiguous-switch,-1,-5,right,right,0.143
SKL1994WRNO,2019-10-01-11-23-35,2,50,0.5836060725370333,left,both,ambiguous-switch,105,-5,right,right,0.168
SKL1994WRNO,2019-10-01-11-23-35,2,51,0.5754547249023887,right,probe,biased-switch,-1,-5,left,left,0.155
SKL1994WRNO,2019-10-01-11-23-35,2,52,0.5931954026188268,right,both,biased-switch,92,-5,left,left,0.141
SKL1994WRNO,2019-10-01-11-23-35,2,53,0.5297559627268211,right,probe,ambiguous-switch,-1,40,left,left,0.179
SKL1994WRNO,2019-10-01-11-23-35,2,54,0.602688580184951,right,both,ambiguous-switch,104,40,left,left,0.178
SKL1994WRNO,2019-10-01-11-23-35,2,55,0.529475155727248,right,probe,biased-switch,-1,30,left,left,0.164
SKL1994WRNO,2019-10-01-11-23-35,2,56,0.6903519267927644,right,both,biased-switch,105,30,left,left,0.182
SKL1994WRNO,2019-10-01-11-23-35,2,57,0.6000275712908507,left,probe,ambiguous-switch,-1,-30,right,right,0.197
SKL1994WRNO,2019-10-01-11-23-35,2,58,0.6096308529845162,left,both,ambiguous-switch,103,-30,right,right,0.206
SKL1994WRNO,2019-10-01-11-23-35,2,59,0.6438172840222502,right,probe,biased-switch,-1,-10,left,left,0.151
SKL1994WRNO,2019-10-01-11-23-35,2,60,0.6233316890626723,right,both,biased-switch,100,-10,left,left,0.167
SKL1994WRNO,2019-10-01-11-23-35,2,61,0.5777992567395988,right,probe,biased-switch,-1,-30,left,left,0.177
SKL1994WRNO,2019-10-01-11-23-35,2,62,0.5039130440077582,right,both,biased-switch,94,-30,left,left,0.186
SKL1994WRNO,2019-10-01-11-23-35,2,63,0.6047411527573956,right,probe,ambiguous-switch,-1,10,left,left,0.181
SKL1994WRNO,2019-10-01-11-23-35,2,64,0.5340706633165357,right,both,ambiguous-switch,93,10,left,left,0.167
SKL1994WRNO,2019-10-01-11-23-35,2,65,0.6115973737826903,left,probe,ambiguous-switch,-1,-20,right,right,0.219
SKL1994WRNO,2019-10-01-11-23-35,2,66,0.6497671678434348,left,both,ambiguous-switch,103,-20,right,right,0.17
SKL1994WRNO,2019-10-01-11-23-35,2,67,0.6809885258627597,right,probe,ambiguous-switch,-1,5,left,left,0.191
SKL1994WRNO,2019-10-01-11-23-35,2,68,0.6955400916630294,right,both,ambiguous-switch,110,5,left,left,0.207
SKL1994WRNO,2019-10-01-11-23-35,2,69,0.583639170705899,left,probe,biased-switch,-1,10,right,right,0.227
SKL1994WRNO,2019-10-01-11-23-35,2,70,0.5759218229447777,left,both,biased-switch,101,10,right,right,0.194
SKL1994WRNO,2019-10-01-11-23-35,2,71,0.616551991535924,right,probe,biased-switch,-1,0,left,left,0.156
SKL1994WRNO,2019-10-01-11-23-35,2,72,0.5467359278438445,right,both,biased-switch,103,0,left,left,0.213
SKL1994WRNO,2019-10-01-11-23-35,2,73,0.5684170423704668,right,probe,biased-switch,-1,40,left,left,0.158
SKL1994WRNO,2019-10-01-11-23-35,2,74,0.6130549379483077,right,both,biased-switch,98,40,left,left,0.152
SKL1994WRNO,2019-10-01-11-23-35,2,75,0.5856027538528441,right,probe,ambiguous-switch,-1,-10,left,left,0.119
SKL1994WRNO,2019-10-01-11-23-35,2,76,0.5219182395177235,right,both,ambiguous-switch,103,-10,left,left,0.166
SKL1994WRNO,2019-10-01-11-23-35,2,77,0.5026903974417193,left,probe,biased-switch,-1,5,left,left,0.192
SKL1994WRNO,2019-10-01-11-23-35,2,78,0.602713354297862,left,both,biased-switch,95,5,left,right,0.212
SKL1994WRNO,2019-10-01-11-23-35,2,79,0.520910327930624,left,probe,biased-switch,-1,-20,right,right,0.173
SKL1994WRNO,2019-10-01-11-23-35,2,80,0.5925765723661878,left,both,biased-switch,101,-20,right,right,0.265
SKL1994WRNO,2019-10-01-11-23-35,3,1,0.6997173885939094,left,probe,ambiguous-switch,-1,-20,right,right,0.178
SKL1994WRNO,2019-10-01-11-23-35,3,2,0.5684186904566637,left,both,ambiguous-switch,98,-20,right,right,0.172
SKL1994WRNO,2019-10-01-11-23-35,3,3,0.6891502647021278,left,probe,ambiguous-switch,-1,0,right,right,0.077
SKL1994WRNO,2019-10-01-11-23-35,3,4,0.5473375563216832,left,both,ambiguous-switch,94,0,right,right,0.212
SKL1994WRNO,2019-10-01-11-23-35,3,5,0.5278891449194033,left,probe,biased-switch,-1,-20,right,right,0.17
SKL1994WRNO,2019-10-01-11-23-35,3,6,0.6038430711397162,left,both,biased-switch,103,-20,right,right,0.317
SKL1994WRNO,2019-10-01-11-23-35,3,7,0.5584263738505783,left,probe,ambiguous-switch,-1,20,right,right,0.135
SKL1994WRNO,2019-10-01-11-23-35,3,8,0.515209581251652,left,both,ambiguous-switch,96,20,right,right,0.153
SKL1994WRNO,2019-10-01-11-23-35,3,9,0.5423817607296852,left,probe,ambiguous-switch,-1,10,right,right,0.204
SKL1994WRNO,2019-10-01-11-23-35,3,10,0.5275597654964012,left,both,ambiguous-switch,96,10,right,right,0.173
SKL1994WRNO,2019-10-01-11-23-35,3,11,0.5693361428184119,right,probe,biased-switch,-1,40,right,right,0.169
SKL1994WRNO,2019-10-01-11-23-35,3,12,0.5625599799016697,right,both,biased-switch,106,40,right,left,0.155
SKL1994WRNO,2019-10-01-11-23-35,3,13,0.6885824899508983,left,probe,ambiguous-switch,-1,40,right,right,0.044
SKL1994WRNO,2019-10-01-11-23-35,3,14,0.6039054158494821,left,both,ambiguous-switch,91,40,right,right,0.111
SKL1994WRNO,2019-10-01-11-23-35,3,15,0.63154713756729,left,probe,biased-switch,-1,-30,right,right,0.112
SKL1994WRNO,2019-10-01-11-23-35,3,16,0.501243705649572,left,both,biased-switch,104,-30,right,right,0.042
SKL1994WRNO,2019-10-01-11-23-35,3,17,0.5702036156723314,left,probe,biased-switch,-1,20,right,right,0.037
SKL1994WRNO,2019-10-01-11-23-35,3,18,0.6521949755215154,left,both,biased-switch,108,20,right,right,0.141
SKL1994WRNO,2019-10-01-11-23-35,3,19,0.5756046759490634,left,probe,biased-switch,-1,5,right,right,0.109
SKL1994WRNO,2019-10-01-11-23-35,3,20,0.6039110761526142,left,both,biased-switch,96,5,right,left,0.131
SKL1994WRNO,2019-10-01-11-23-35,3,21,0.6674265858552554,left,probe,biased-switch,-1,30,right,right,0.212
SKL1994WRNO,2019-10-01-11-23-35,3,22,0.5090167216631889,left,both,biased-switch,99,30,right,right,0.205
SKL1994WRNO,2019-10-01-11-23-35,3,23,0.5168283213202273,right,probe,ambiguous-switch,-1,30,right,right,0.164
SKL1994WRNO,2019-10-01-11-23-35,3,24,0.6068837856107814,right,both,ambiguous-switch,95,30,right,right,0.188
SKL1994WRNO,2019-10-01-11-23-35,3,25,0.5075795912779245,left,probe,biased-switch,-1,0,right,right,0.187
SKL1994WRNO,2019-10-01-11-23-35,3,26,0.6179289752549809,left,both,biased-switch,92,0,right,right,0.067
SKL1994WRNO,2019-10-01-11-23-35,3,27,0.655045248216219,right,probe,biased-switch,-1,10,right,right,0.19
SKL1994WRNO,2019-10-01-11-23-35,3,28,0.5057024641408968,right,both,biased-switch,94,10,right,left,0.162
SKL1994WRNO,2019-10-01-11-23-35,3,29,0.5284796538440203,right,probe,ambiguous-switch,-1,-10,left,left,0.169
SKL1994WRNO,2019-10-01-11-23-35,3,30,0.5983358831377302,right,both,ambiguous-switch,106,-10,left,left,0.158
SKL1994WRNO,2019-10-01-11-23-35,3,31,0.5773833721629107,right,probe,biased-switch,-1,-10,left,left,0.159
SKL1994WRNO,2019-10-01-11-23-35,3,32,0.5727085659532984,right,both,biased-switch,101,-10,left,left,0.179
SKL1994WRNO,2019-10-01-11-23-35,3,33,0.6858969064609469,right,probe,ambiguous-switch,-1,5,left,left,0.183
SKL1994WRNO,2019-10-01-11-23-35,3,34,0.5296059774716769,right,both,ambiguous-switch,108,5,left,left,0.131
SKL1994WRNO,2019-10-01-11-23-35,3,35,0.567869060528274,left,probe,biased-switch,-1,-5,right,right,0.285
SKL1994WRNO,2019-10-01-11-23-35,3,36,0.6280036542515487,left,both,biased-switch,93,-5,right,right,0.127
SKL1994WRNO,2019-10-01-11-23-35,3,37,0.6859589984272971,left,probe,ambiguous-switch,-1,-5,right,right,1.661
SKL1994WRNO,2019-10-01-11-23-35,3,38,0.5876308756931021,left,both,ambiguous-switch,102,-5,right,right,0.196
SKL1994WRNO,2019-10-01-11-23-35,3,39,0.5396915767224998,right,probe,ambiguous-switch,-1,-30,left,left,0.166
SKL1994WRNO,2019-10-01-11-23-35,3,40,0.5820909132992231,right,both,ambiguous-switch,95,-30,left,left,0.157
SKL1994WRNO,2019-10-01-11-23-35,3,41,0.6945663263411177,right,probe,ambiguous-switch,-1,-20,left,left,0.198
SKL1994WRNO,2019-10-01-11-23-35,3,42,0.6348853943487075,right,both,ambiguous-switch,105,-20,left,left,0.174
SKL1994WRNO,2019-10-01-11-23-35,3,43,0.6453719292543489,right,probe,ambiguous-switch,-1,0,left,left,0.203
SKL1994WRNO,2019-10-01-11-23-35,3,44,0.5699518604515665,right,both,ambiguous-switch,96,0,left,left,0.17
SKL1994WRNO,2019-10-01-11-23-35,3,45,0.6252047908604668,right,probe,biased-switch,-1,-20,left,left,0.201
SKL1994WRNO,2019-10-01-11-23-35,3,46,0.5058580895146892,right,both,biased-switch,107,-20,left,left,0.147
SKL1994WRNO,2019-10-01-11-23-35,3,47,0.5036527862116329,left,probe,ambiguous-switch,-1,20,left,left,0.185
SKL1994WRNO,2019-10-01-11-23-35,3,48,0.553928283605815,left,both,ambiguous-switch,95,20,left,left,0.197
SKL1994WRNO,2019-10-01-11-23-35,3,49,0.6461072514089459,right,probe,ambiguous-switch,-1,10,left,left,0.146
SKL1994WRNO,2019-10-01-11-23-35,3,50,0.6279253631869094,right,both,ambiguous-switch,104,10,left,left,0.183
SKL1994WRNO,2019-10-01-11-23-35,3,51,0.5268034001821447,left,probe,biased-switch,-1,40,left,left,0.167
SKL1994WRNO,2019-10-01-11-23-35,3,52,0.5448382885681368,left,both,biased-switch,102,40,left,right,0.178
SKL1994WRNO,2019-10-01-11-23-35,3,53,0.6931868538198387,right,probe,ambiguous-switch,-1,40,left,left,0.177
SKL1994WRNO,2019-10-01-11-23-35,3,54,0.6974149067273548,right,both,ambiguous-switch,93,40,left,left,0.164
SKL1994WRNO,2019-10-01-11-23-35,3,55,0.5677486704458191,right,probe,biased-switch,-1,-30,left,left,0.129
SKL1994WRNO,2019-10-01-11-23-35,3,56,0.5673495184841356,right,both,biased-switch,104,-30,left,left,0.184
SKL1994WRNO,2019-10-01-11-23-35,3,57,0.6048927342844869,left,probe,biased-switch,-1,20,left,left,0.194
SKL1994WRNO,2019-10-01-11-23-35,3,58,0.5472319230284537,left,both,biased-switch,93,20,left,right,0.194
SKL1994WRNO,2019-10-01-11-23-35,3,59,0.6338616923824819,left,probe,biased-switch,-1,5,right,right,0.2
SKL1994WRNO,2019-10-01-11-23-35,3,60,0.6141088912900208,left,both,biased-switch,102,5,right,left,0.217
SKL1994WRNO,2019-10-01-11-23-35,3,61,0.6320081623358115,right,probe,biased-switch,-1,30,left,left,0.195
SKL1994WRNO,2019-10-01-11-23-35,3,62,0.5489326132371406,right,both,biased-switch,102,30,left,left,0.157
SKL1994WRNO,2019-10-01-11-23-35,3,63,0.5711290519018318,left,probe,ambiguous-switch,-1,30,left,left,0.194
SKL1994WRNO,2019-10-01-11-23-35,3,64,0.5807362413685635,left,both,ambiguous-switch,95,30,left,left,0.173
SKL1994WRNO,2019-10-01-11-23-35,3,65,0.681972136102837,left,probe,biased-switch,-1,0,left,left,0.181
SKL1994WRNO,2019-10-01-11-23-35,3,66,0.5086207824767484,left,both,biased-switch,92,0,left,right,0.188
SKL1994WRNO,2019-10-01-11-23-35,3,67,0.5182879434809556,left,probe,biased-switch,-1,10,right,right,0.195
SKL1994WRNO,2019-10-01-11-23-35,3,68,0.5533017494944735,left,both,biased-switch,93,10,right,left,0.169
SKL1994WRNO,2019-10-01-11-23-35,3,69,0.5311296240174994,left,probe,ambiguous-switch,-1,-10,left,left,0.14
SKL1994WRNO,2019-10-01-11-23-35,3,70,0.5452480184817418,left,both,ambiguous-switch,102,-10,left,left,0.226
SKL1994WRNO,2019-10-01-11-23-35,3,71,0.6495657390564916,left,probe,biased-switch,-1,-10,left,left,0.172
SKL1994WRNO,2019-10-01-11-23-35,3,72,0.5340656543248202,left,both,biased-switch,105,-10,left,left,0.12
SKL1994WRNO,2019-10-01-11-23-35,3,73,0.5665132079002029,right,probe,ambiguous-switch,-1,5,left,left,0.231
SKL1994WRNO,2019-10-01-11-23-35,3,74,0.6953481350610187,right,both,ambiguous-switch,105,5,left,left,0.201
SKL1994WRNO,2019-10-01-11-23-35,3,75,0.686817175876932,left,probe,biased-switch,-1,-5,left,left,0.244
SKL1994WRNO,2019-10-01-11-23-35,3,76,0.6361634677697494,left,both,biased-switch,109,-5,left,right,0.187
SKL1994WRNO,2019-10-01-11-23-35,3,77,0.5996892120592557,right,probe,ambiguous-switch,-1,-5,left,left,0.187
SKL1994WRNO,2019-10-01-11-23-35,3,78,0.6916386048695475,right,both,ambiguous-switch,106,-5,left,left,0.126
SKL1994WRNO,2019-10-01-11-23-35,3,79,0.5433950178097207,left,probe,ambiguous-switch,-1,-30,left,left,0.231
SKL1994WRNO,2019-10-01-11-23-35,3,80,0.6640343018212153,left,both,ambiguous-switch,92,-30,left,left,0.178
SKL1994WRNO,2019-10-01-11-23-35,4,1,0.6602194010853284,left,probe,biased-switch,-1,-30,left,left,0.228
SKL1994WRNO,2019-10-01-11-23-35,4,2,0.5822209032990133,left,both,biased-switch,96,-30,left,right,0.197
SKL1994WRNO,2019-10-01-11-23-35,4,3,0.5908898786088361,left,probe,ambiguous-switch,-1,10,right,right,0.176
SKL1994WRNO,2019-10-01-11-23-35,4,4,0.5636920221294933,left,both,ambiguous-switch,109,10,right,left,0.202
SKL1994WRNO,2019-10-01-11-23-35,4,5,0.698852625865414,left,probe,ambiguous-switch,-1,-10,right,right,0.179
SKL1994WRNO,2019-10-01-11-23-35,4,6,0.6370213458419189,left,both,ambiguous-switch,100,-10,right,right,0.199
SKL1994WRNO,2019-10-01-11-23-35,4,7,0.5093178582629191,left,probe,ambiguous-switch,-1,20,right,right,0.113
SKL1994WRNO,2019-10-01-11-23-35,4,8,0.5669018603897832,left,both,ambiguous-switch,110,20,right,right,0.199
SKL1994WRNO,2019-10-01-11-23-35,4,9,0.5069872668062178,right,probe,biased-switch,-1,-20,right,right,0.154
SKL1994WRNO,2019-10-01-11-23-35,4,10,0.6459520438783504,right,both,biased-switch,107,-20,right,right,0.189
SKL1994WRNO,2019-10-01-11-23-35,4,11,0.650823030760276,right,probe,ambiguous-switch,-1,-20,right,right,0.123
SKL1994WRNO,2019-10-01-11-23-35,4,12,0.5426127240086135,right,both,ambiguous-switch,102,-20,right,right,0.155
SKL1994WRNO,2019-10-01-11-23-35,4,13,0.6217268794097345,left,probe,ambiguous-switch,-1,40,right,right,0.059
SKL1994WRNO,2019-10-01-11-23-35,4,14,0.5126537961573375,left,both,ambiguous-switch,96,40,right,right,0.077
SKL1994WRNO,2019-10-01-11-23-35,4,15,0.640906708700564,right,probe,ambiguous-switch,-1,5,right,right,0.17
SKL1994WRNO,2019-10-01-11-23-35,4,16,0.6573278112111361,right,both,ambiguous-switch,92,5,right,right,0.212
SKL1994WRNO,2019-10-01-11-23-35,4,17,0.5611213263924332,right,probe,biased-switch,-1,-10,right,right,0.201
SKL1994WRNO,2019-10-01-11-23-35,4,18,0.5218912704011328,right,both,biased-switch,110,-10,right,right,0.268
SKL1994WRNO,2019-10-01-11-23-35,4,19,0.5874726032956344,right,probe,ambiguous-switch,-1,30,right,right,0.237
SKL1994WRNO,2019-10-01-11-23-35,4,20,0.6575744648700018,right,both,ambiguous-switch,108,30,right,right,0.206
SKL1994WRNO,2019-10-01-11-23-35,4,21,0.5320032093598852,right,probe,biased-switch,-1,-5,right,right,0.24
SKL1994WRNO,2019-10-01-11-23-35,4,22,0.6156575991519452,right,both,biased-switch,103,-5,right,right,0.188
SKL1994WRNO,2019-10-01-11-23-35,4,23,0.5281518845409483,right,probe,ambiguous-switch,-1,0,right,right,0.163
SKL1994WRNO,2019-10-01-11-23-35,4,24,0.5433648446218813,right,both,ambiguous-switch,98,0,right,right,0.173
SKL1994WRNO,2019-10-01-11-23-35,4,25,0.5986244582386698,right,probe,biased-switch,-1,5,right,right,0.194
SKL1994WRNO,2019-10-01-11-23-35,4,26,0.6089827957090906,right,both,biased-switch,108,5,right,left,0.155
SKL1994WRNO,2019-10-01-11-23-35,4,27,0.5340543717246317,right,probe,biased-switch,-1,20,right,right,0.3
SKL1994WRNO,2019-10-01-11-23-35,4,28,0.684596655080802,right,both,biased-switch,92,20,right,right,0.182
SKL1994WRNO,2019-10-01-11-23-35,4,29,0.638465281020658,right,probe,ambiguous-switch,-1,-5,right,right,0.265
SKL1994WRNO,2019-10-01-11-23-35,4,30,0.6683422491882605,right,both,ambiguous-switch,94,-5,right,right,0.185
SKL1994WRNO,2019-10-01-11-23-35,4,31,0.6955188478852383,right,probe,biased-switch,-1,0,right,right,0.213
SKL1994WRNO,2019-10-01-11-23-35,4,32,0.6484165839719025,right,both,biased-switch,103,0,right,left,0.172
SKL1994WRNO,2019-10-01-11-23-35,4,33,0.6681354225855046,left,probe,biased-switch,-1,10,right,right,0.198
SKL1994WRNO,2019-10-01-11-23-35,4,34,0.6172359517869919,left,both,biased-switch,101,10,right,right,0.332
SKL1994WRNO,2019-10-01-11-23-35,4,35,0.5583325808596434,right,probe,biased-switch,-1,40,right,right,0.207
SKL1994WRNO,2019-10-01-11-23-35,4,36,0.6400993684776171,right,both,biased-switch,95,40,right,right,0.193
SKL1994WRNO,2019-10-01-11-23-35,4,37,0.662429990379131,left,probe,ambiguous-switch,-1,-30,right,right,0.192
SKL1994WRNO,2019-10-01-11-23-35,4,38,0.6513038658064828,left,both,ambiguous-switch,97,-30,right,right,0.176
SKL1994WRNO,2019-10-01-11-23-35,4,39,0.59104568739316,right,probe,biased-switch,-1,30,right,right,0.167
SKL1994WRNO,2019-10-01-11-23-35,4,40,0.6278626303830125,right,both,biased-switch,99,30,right,right,0.166
SKL1994WRNO,2019-10-01-11-23-35,4,41,0.6016907889913903,left,probe,biased-switch,-1,-30,right,right,0.145
SKL1994WRNO,2019-10-01-11-23-35,4,42,0.5568226976909985,left,both,biased-switch,91,-30,right,right,0.227
SKL1994WRNO,2019-10-01-11-23-35,4,43,0.5736811242252094,right,probe,ambiguous-switch,-1,10,right,right,0.204
SKL1994WRNO,2019-10-01-11-23-35,4,44,0.6645527424752125,right,both,ambiguous-switch,99,10,right,left,0.231
SKL1994WRNO,2019-10-01-11-23-35,4,45,0.6171453006334573,right,probe,ambiguous-switch,-1,-10,left,left,0.201
SKL1994WRNO,2019-10-01-11-23-35,4,46,0.507135102938898,right,both,ambiguous-switch,97,-10,left,left,0.16
SKL1994WRNO,2019-10-01-11-23-35,4,47,0.666685904404112,right,probe,ambiguous-switch,-1,20,left,left,0.205
SKL1994WRNO,2019-10-01-11-23-35,4,48,0.5508744158846598,right,both,ambiguous-switch,98,20,left,left,0.25
SKL1994WRNO,2019-10-01-11-23-35,4,49,0.6725111933525453,right,probe,biased-switch,-1,-20,left,left,0.137
SKL1994WRNO,2019-10-01-11-23-35,4,50,0.5777678006410776,right,both,biased-switch,109,-20,left,left,0.163
SKL1994WRNO,2019-10-01-11-23-35,4,51,0.6406557014434779,left,probe,ambiguous-switch,-1,-20,left,left,0.164
SKL1994WRNO,2019-10-01-11-23-35,4,52,0.5307999576708436,left,both,ambiguous-switch,103,-20,left,left,0.203
SKL1994WRNO,2019-10-01-11-23-35,4,53,0.6798304328207723,right,probe,ambiguous-switch,-1,40,left,left,0.197
SKL1994WRNO,2019-10-01-11-23-35,4,54,0.5721974877255347,right,both,ambiguous-switch,97,40,left,left,0.153
SKL1994WRNO,2019-10-01-11-23-35,4,55,0.6823671250319949,left,probe,ambiguous-switch,-1,5,left,left,0.167
SKL1994WRNO,2019-10-01-11-23-35,4,56,0.6600672286587506,left,both,ambiguous-switch,107,5,left,left,0.171
SKL1994WRNO,2019-10-01-11-23-35,4,57,0.5397629798079855,left,probe,biased-switch,-1,-10,left,left,0.174
SKL1994WRNO,2019-10-01-11-23-35,4,58,0.6582129704535933,left,both,biased-switch,108,-10,left,left,0.196
SKL1994WRNO,2019-10-01-11-23-35,4,59,0.5444908547435497,left,probe,ambiguous-switch,-1,30,left,left,0.178
SKL1994WRNO,2019-10-01-11-23-35,4,60,0.5303927165300328,left,both,ambiguous-switch,98,30,left,left,0.178
SKL1994WRNO,2019-10-01-11-23-35,4,61,0.6911076125619258,right,probe,biased-switch,-1,-5,left,left,0.217
SKL1994WRNO,2019-10-01-11-23-35,4,62,0.6959684345830321,right,both,biased-switch,103,-5,left,left,0.102
SKL1994WRNO,2019-10-01-11-23-35,4,63,0.6946821191417164,right,probe,ambiguous-switch,-1,0,left,left,0.192
SKL1994WRNO,2019-10-01-11-23-35,4,64,0.6097128711350968,right,both,ambiguous-switch,104,0,left,left,0.015
SKL1994WRNO,2019-10-01-11-23-35,4,65,0.6182709507503996,right,probe,biased-switch,-1,5,left,left,0.16
SKL1994WRNO,2019-10-01-11-23-35,4,66,0.5464477975081212,right,both,biased-switch,104,5,left,left,0.191
SKL1994WRNO,2019-10-01-11-23-35,4,67,0.5225572306479621,right,probe,biased-switch,-1,20,left,left,0.046
SKL1994WRNO,2019-10-01-11-23-35,4,68,0.5851175049624373,right,both,biased-switch,93,20,left,left,0.178
SKL1994WRNO,2019-10-01-11-23-35,4,69,0.5089092681725964,right,probe,ambiguous-switch,-1,-5,left,left,0.122
SKL1994WRNO,2019-10-01-11-23-35,4,70,0.5174041562832252,right,both,ambiguous-switch,103,-5,left,left,0.178
SKL1994WRNO,2019-10-01-11-23-35,4,71,0.6575995950006205,right,probe,biased-switch,-1,0,left,left,0.162
SKL1994WRNO,2019-10-01-11-23-35,4,72,0.585393873132389,right,both,biased-switch,99,0,left,left,0.091
SKL1994WRNO,2019-10-01-11-23-35,4,73,0.5991722163824872,right,probe,biased-switch,-1,10,left,left,0.237
SKL1994WRNO,2019-10-01-11-23-35,4,74,0.6587669455225623,right,both,biased-switch,98,10,left,left,0.24
SKL1994WRNO,2019-10-01-11-23-35,4,75,0.6315570500760167,left,probe,biased-switch,-1,40,left,left,0.185
SKL1994WRNO,2019-10-01-11-23-35,4,76,0.5999822057477314,left,both,biased-switch,101,40,left,left,0.177
SKL1994WRNO,2019-10-01-11-23-35,4,77,0.6471022877486181,right,probe,ambiguous-switch,-1,-30,left,left,0.17
SKL1994WRNO,2019-10-01-11-23-35,4,78,0.6702408238609902,right,both,ambiguous-switch,98,-30,left,left,0.18
SKL1994WRNO,2019-10-01-11-23-35,4,79,0.6702385855545288,right,probe,biased-switch,-1,30,left,left,0.186
SKL1994WRNO,2019-10-01-11-23-35,4,80,0.6219483336535923,right,both,biased-switch,91,30,left,left,0.136
SKL1994WRNO,2019-10-01-11-23-35,5,1,0.6157564039198272,right,probe,ambiguous-switch,-1,40,left,left,0.321
SKL1994WRNO,2019-10-01-11-23-35,5,2,0.676597272810457,right,both,ambiguous-switch,99,40,left,left,0.179
SKL1994WRNO,2019-10-01-11-23-35,5,3,0.668801897970086,left,probe,biased-switch,-1,20,left,left,0.215
SKL1994WRNO,2019-10-01-11-23-35,5,4,0.6463877183662295,left,both,biased-switch,98,20,left,right,0.222
SKL1994WRNO,2019-10-01-11-23-35,5,5,0.5817772246489711,right,probe,biased-switch,-1,-10,left,left,0.082
SKL1994WRNO,2019-10-01-11-23-35,5,6,0.510858275449599,right,both,biased-switch,96,-10,left,left,0.201
SKL1994WRNO,2019-10-01-11-23-35,5,7,0.5640679356007131,left,probe,biased-switch,-1,30,left,left,0.173
SKL1994WRNO,2019-10-01-11-23-35,5,8,0.697150118465444,left,both,biased-switch,104,30,left,right,0.244
SKL1994WRNO,2019-10-01-11-23-35,5,9,0.5443671951232255,left,probe,biased-switch,-1,5,right,right,0.251
SKL1994WRNO,2019-10-01-11-23-35,5,10,0.5590427660338144,left,both,biased-switch,95,5,right,left,0.183
SKL1994WRNO,2019-10-01-11-23-35,5,11,0.5327882688865717,right,probe,ambiguous-switch,-1,-10,left,left,0.218
SKL1994WRNO,2019-10-01-11-23-35,5,12,0.5629366336050905,right,both,ambiguous-switch,109,-10,left,left,0.149
SKL1994WRNO,2019-10-01-11-23-35,5,13,0.6349230720866577,right,probe,biased-switch,-1,0,left,left,0.189
SKL1994WRNO,2019-10-01-11-23-35,5,14,0.5803781068952278,right,both,biased-switch,93,0,left,left,0.024
SKL1994WRNO,2019-10-01-11-23-35,5,15,0.6642747552727906,right,probe,biased-switch,-1,-30,left,left,0.214
SKL1994WRNO,2019-10-01-11-23-35,5,16,0.5366026204773585,right,both,biased-switch,104,-30,left,left,0.185
SKL1994WRNO,2019-10-01-11-23-35,5,17,0.5142297363311878,right,probe,biased-switch,-1,40,left,left,0.187
SKL1994WRNO,2019-10-01-11-23-35,5,18,0.6238425084617498,right,both,biased-switch,108,40,left,left,0.18
SKL1994WRNO,2019-10-01-11-23-35,5,19,0.511362810915587,left,probe,biased-switch,-1,10,left,left,0.185
SKL1994WRNO,2019-10-01-11-23-35,5,20,0.5386908210661132,left,both,biased-switch,100,10,left,right,0.244
SKL1994WRNO,2019-10-01-11-23-35,5,21,0.6822822502910332,right,probe,ambiguous-switch,-1,-5,left,left,0.196
SKL1994WRNO,2019-10-01-11-23-35,5,22,0.6526531012883298,right,both,ambiguous-switch,92,-5,left,left,0.152
SKL1994WRNO,2019-10-01-11-23-35,5,23,0.5795669857434544,right,probe,biased-switch,-1,-5,left,left,0.162
SKL1994WRNO,2019-10-01-11-23-35,5,24,0.5898569068278432,right,both,biased-switch,106,-5,left,left,0.171
SKL1994WRNO,2019-10-01-11-23-35,5,25,0.6097976002980198,left,probe,ambiguous-switch,-1,0,right,right,0.206
SKL1994WRNO,2019-10-01-11-23-35,5,26,0.6908581112585637,left,both,ambiguous-switch,102,0,right,right,0.233
SKL1994WRNO,2019-10-01-11-23-35,5,27,0.5165025907930372,right,probe,ambiguous-switch,-1,30,left,left,0.199
SKL1994WRNO,2019-10-01-11-23-35,5,28,0.5453811933867444,right,both,ambiguous-switch,93,30,left,left,0.132
SKL1994WRNO,2019-10-01-11-23-35,5,29,0.5183001139680719,left,probe,ambiguous-switch,-1,20,right,right,0.199
SKL1994WRNO,2019-10-01-11-23-35,5,30,0.5333474748225485,left,both,ambiguous-switch,93,20,right,right,0.192
SKL1994WRNO,2019-10-01-11-23-35,5,31,0.6731721126368954,right,probe,ambiguous-switch,-1,10,left,left,0.198
SKL1994WRNO,2019-10-01-11-23-35,5,32,0.6749188024434916,right,both,ambiguous-switch,100,10,left,left,0.152
SKL1994WRNO,2019-10-01-11-23-35,5,33,0.5423590675698362,left,probe,ambiguous-switch,-1,5,right,right,0.132
SKL1994WRNO,2019-10-01-11-23-35,5,34,0.6970109980311634,left,both,ambiguous-switch,95,5,right,right,0.225
SKL1994WRNO,2019-10-01-11-23-35,5,35,0.6694539938086453,right,probe,ambiguous-switch,-1,-20,left,left,0.165
SKL1994WRNO,2019-10-01-11-23-35,5,36,0.6673421576250913,right,both,ambiguous-switch,95,-20,left,left,0.194
SKL1994WRNO,2019-10-01-11-23-35,5,37,0.6396307369083769,right,probe,ambiguous-switch,-1,-30,left,left,0.186
SKL1994WRNO,2019-10-01-11-23-35,5,38,0.5049479111845053,right,both,ambiguous-switch,108,-30,left,left,0.177
SKL1994WRNO,2019-10-01-11-23-35,5,39,0.6303175763261749,left,probe,biased-switch,-1,-20,right,right,0.188
SKL1994WRNO,2019-10-01-11-23-35,5,40,0.5147184002082231,left,both,biased-switch,92,-20,right,right,0.185
SKL1994WRNO,2019-10-01-11-23-35,5,41,0.676813918577261,right,probe,ambiguous-switch,-1,40,left,left,0.164
SKL1994WRNO,2019-10-01-11-23-35,5,42,0.6517992409750311,right,both,ambiguous-switch,110,40,left,left,0.162
SKL1994WRNO,2019-10-01-11-23-35,5,43,0.680334777872186,right,probe,biased-switch,-1,20,left,left,0.174
SKL1994WRNO,2019-10-01-11-23-35,5,44,0.5889225110564822,right,both,biased-switch,98,20,left,left,0.171
SKL1994WRNO,2019-10-01-11-23-35,5,45,0.6550630027729839,right,probe,biased-switch,-1,-10,left,left,0.158
SKL1994WRNO,2019-10-01-11-23-35,5,46,0.5619909570843383,right,both,biased-switch,106,-10,left,left,0.212
SKL1994WRNO,2019-10-01-11-23-35,5,47,0.516408765698653,left,probe,biased-switch,-1,30,right,right,0.16
SKL1994WRNO,2019-10-01-11-23-35,5,48,0.5519041593764811,left,both,biased-switch,104,30,right,right,0.173
SKL1994WRNO,2019-10-01-11-23-35,5,49,0.6940546489606605,left,probe,biased-switch,-1,5,right,right,0.081
SKL1994WRNO,2019-10-01-11-23-35,5,50,0.6410186475936718,left,both,biased-switch,101,5,right,right,0.249
SKL1994WRNO,2019-10-01-11-23-35,5,51,0.6806451714523674,right,probe,ambiguous-switch,-1,-10,left,left,0.187
SKL1994WRNO,2019-10-01-11-23-35,5,52,0.6923350881490282,right,both,ambiguous-switch,101,-10,left,left,0.186
SKL1994WRNO,2019-10-01-11-23-35,5,53,0.6261871751862608,right,probe,biased-switch,-1,0,left,left,0.189
SKL1994WRNO,2019-10-01-11-23-35,5,54,0.5266347206594957,right,both,biased-switch,97,0,left,left,0.162
SKL1994WRNO,2019-10-01-11-23-35,5,55,0.5552365019433607,left,probe,biased-switch,-1,-30,right,right,0.163
SKL1994WRNO,2019-10-01-11-23-35,5,56,0.6813835159171422,left,both,biased-switch,105,-30,right,right,0.208
SKL1994WRNO,2019-10-01-11-23-35,5,57,0.6593399866543256,left,probe,biased-switch,-1,40,right,right,1.998
SKL1994WRNO,2019-10-01-11-23-35,5,58,0.5106817066089852,left,both,biased-switch,106,40,right,right,0.198
SKL1994WRNO,2019-10-01-11-23-35,5,59,0.6102469084288441,right,probe,biased-switch,-1,10,left,left,0.116
SKL1994WRNO,2019-10-01-11-23-35,5,60,0.5436493659053258,right,both,biased-switch,104,10,left,left,0.13
SKL1994WRNO,2019-10-01-11-23-35,5,61,0.69370607592568,right,probe,ambiguous-switch,-1,-5,left,left,0.138
SKL1994WRNO,2019-10-01-11-23-35,5,62,0.6470528542645536,right,both,ambiguous-switch,99,-5,left,left,0.262
SKL1994WRNO,2019-10-01-11-23-35,5,63,0.6603363619013792,left,probe,biased-switch,-1,-5,right,right,0.178
SKL1994WRNO,2019-10-01-11-23-35,5,64,0.5276447074710338,left,both,biased-switch,96,-5,right,right,0.231
SKL1994WRNO,2019-10-01-11-23-35,5,65,0.5865417344866148,right,probe,ambiguous-switch,-1,0,left,left,0.168
SKL1994WRNO,2019-10-01-11-23-35,5,66,0.6815682926407757,right,both,ambiguous-switch,109,0,left,left,0.225
SKL1994WRNO,2019-10-01-11-23-35,5,67,0.5337161552565379,right,probe,ambiguous-switch,-1,30,left,left,0.053
SKL1994WRNO,2019-10-01-11-23-35,5,68,0.6618485719396618,right,both,ambiguous-switch,95,30,left,left,0.203
SKL1994WRNO,2019-10-01-11-23-35,5,69,0.647043377732465,left,probe,ambiguous-switch,-1,20,right,right,0.21
SKL1994WRNO,2019-10-01-11-23-35,5,70,0.6774456599293999,left,both,ambiguous-switch,95,20,right,right,0.217
SKL1994WRNO,2019-10-01-11-23-35,5,71,0.5187220468674255,left,probe,ambiguous-switch,-1,10,right,right,0.219
SKL1994WRNO,2019-10-01-11-23-35,5,72,0.6864489585090658,left,both,ambiguous-switch,109,10,right,right,0.146
SKL1994WRNO,2019-10-01-11-23-35,5,73,0.6738002410882783,left,probe,ambiguous-switch,-1,5,right,right,0.17
SKL1994WRNO,2019-10-01-11-23-35,5,74,0.5496180251418034,left,both,ambiguous-switch,103,5,right,right,0.202
SKL1994WRNO,2019-10-01-11-23-35,5,75,0.6620953441427081,right,probe,ambiguous-switch,-1,-20,left,left,0.258
SKL1994WRNO,2019-10-01-11-23-35,5,76,0.6869866116486861,right,both,ambiguous-switch,103,-20,left,left,0.194
SKL1994WRNO,2019-10-01-11-23-35,5,77,0.6737031045581174,left,probe,ambiguous-switch,-1,-30,right,right,0.192
SKL1994WRNO,2019-10-01-11-23-35,5,78,0.6620911797990852,left,both,ambiguous-switch,95,-30,right,right,0.158
SKL1994WRNO,2019-10-01-11-23-35,5,79,0.6239504423645642,right,probe,biased-switch,-1,-20,right,right,0.169
SKL1994WRNO,2019-10-01-11-23-35,5,80,0.5170157584479365,right,both,biased-switch,96,-20,right,right,0.19
SKL1994WRNO,2019-10-01-11-23-35,6,1,0.6487404907351191,left,probe,biased-switch,-1,5,right,right,1.262
SKL1994WRNO,2019-10-01-11-23-35,6,2,0.6563881662306245,left,both,biased-switch,97,5,right,left,0.211
SKL1994WRNO,2019-10-01-11-23-35,6,3,0.611896551275072,left,probe,biased-switch,-1,0,right,right,0.154
SKL1994WRNO,2019-10-01-11-23-35,6,4,0.589135311545877,left,both,biased-switch,105,0,right,right,0.219
SKL1994WRNO,2019-10-01-11-23-35,6,5,0.5080714725762341,left,probe,biased-switch,-1,-30,right,right,0.146
SKL1994WRNO,2019-10-01-11-23-35,6,6,0.5349491926868162,left,both,biased-switch,103,-30,right,right,0.084
SKL1994WRNO,2019-10-01-11-23-35,6,7,0.5319717237220902,right,probe,biased-switch,-1,20,right,right,0.17
SKL1994WRNO,2019-10-01-11-23-35,6,8,0.576006972036792,right,both,biased-switch,95,20,right,right,0.126
SKL1994WRNO,2019-10-01-11-23-35,6,9,0.5876748297673041,right,probe,biased-switch,-1,-5,right,right,0.192
SKL1994WRNO,2019-10-01-11-23-35,6,10,0.6597302185995663,right,both,biased-switch,94,-5,right,right,0.074
SKL1994WRNO,2019-10-01-11-23-35,6,11,0.5314799446044739,left,probe,biased-switch,-1,-20,right,right,0.132
SKL1994WRNO,2019-10-01-11-23-35,6,12,0.6255282610861695,left,both,biased-switch,95,-20,right,right,0.168
SKL1994WRNO,2019-10-01-11-23-35,6,13,0.5974636191664393,left,probe,ambiguous-switch,-1,10,right,right,0.044
SKL1994WRNO,2019-10-01-11-23-35,6,14,0.6411594566944938,left,both,ambiguous-switch,108,10,right,right,0.146
SKL1994WRNO,2019-10-01-11-23-35,6,15,0.6256178143287966,right,probe,ambiguous-switch,-1,-30,right,right,0.163
SKL1994WRNO,2019-10-01-11-23-35,6,16,0.6992260022556696,right,both,ambiguous-switch,109,-30,right,right,0.184
SKL1994WRNO,2019-10-01-11-23-35,6,17,0.673830531759704,left,probe,ambiguous-switch,-1,20,right,right,0.178
SKL1994WRNO,2019-10-01-11-23-35,6,18,0.6836389752650955,left,both,ambiguous-switch,94,20,right,right,0.088
SKL1994WRNO,2019-10-01-11-23-35,6,19,0.513109695897733,right,probe,biased-switch,-1,10,right,right,0.19
SKL1994WRNO,2019-10-01-11-23-35,6,20,0.5599614562655045,right,both,biased-switch,96,10,right,right,0.14
SKL1994WRNO,2019-10-01-11-23-35,6,21,0.5100984731029078,left,probe,ambiguous-switch,-1,-5,right,right,0.254
SKL1994WRNO,2019-10-01-11-23-35,6,22,0.5154576704134938,left,both,ambiguous-switch,108,-5,right,right,0.114
SKL1994WRNO,2019-10-01-11-23-35,6,23,0.5078542761697961,left,probe,biased-switch,-1,30,right,right,0.852
SKL1994WRNO,2019-10-01-11-23-35,6,24,0.5374661315835654,left,both,biased-switch,103,30,right,right,0.381
SKL1994WRNO,2019-10-01-11-23-35,6,25,0.5985929699210727,left,probe,ambiguous-switch,-1,5,right,right,0.247
SKL1994WRNO,2019-10-01-11-23-35,6,26,0.589279715390625,left,both,ambiguous-switch,106,5,right,right,1.706
SKL1994WRNO,2019-10-01-11-23-35,6,27,0.6509264677660722,left,probe,ambiguous-switch,-1,-10,right,right,0.253
SKL1994WRNO,2019-10-01-11-23-35,6,28,0.6024131984503717,left,both,ambiguous-switch,104,-10,right,right,0.226
SKL1994WRNO,2019-10-01-11-23-35,6,29,0.5181270839585254,right,probe,ambiguous-switch,-1,-20,right,right,0.201
SKL1994WRNO,2019-10-01-11-23-35,6,30,0.6542662517152645,right,both,ambiguous-switch,97,-20,right,right,0.244
SKL1994WRNO,2019-10-01-11-23-35,6,31,0.5003619833272981,right,probe,ambiguous-switch,-1,30,right,right,0.186
SKL1994WRNO,2019-10-01-11-23-35,6,32,0.6381232274065689,right,both,ambiguous-switch,106,30,right,right,0.227
SKL1994WRNO,2019-10-01-11-23-35,6,33,0.510741552831467,left,probe,biased-switch,-1,40,right,right,0.181
SKL1994WRNO,2019-10-01-11-23-35,6,34,0.6824404839822745,left,both,biased-switch,95,40,right,right,0.201
SKL1994WRNO,2019-10-01-11-23-35,6,35,0.6909347316226809,left,probe,ambiguous-switch,-1,40,right,right,1.078
SKL1994WRNO,2019-10-01-11-23-35,6,36,0.5299873674042107,left,both,ambiguous-switch,95,40,right,right,0.23
SKL1994WRNO,2019-10-01-11-23-35,6,37,0.6778916649938838,right,probe,ambiguous-switch,-1,0,right,right,0.211
SKL1994WRNO,2019-10-01-11-23-35,6,38,0.6179082041446609,right,both,ambiguous-switch,97,0,right,right,0.181
SKL1994WRNO,2019-10-01-11-23-35,6,39,0.5001028499893213,left,probe,biased-switch,-1,-10,right,right,0.224
SKL1994WRNO,2019-10-01-11-23-35,6,40,0.6590009678464513,left,both,biased-switch,91,-10,right,right,0.206
SKL1994WRNO,2019-10-01-11-23-35,6,41,0.5396623461716059,right,probe,biased-switch,-1,5,right,right,0.226
SKL1994WRNO,2019-10-01-11-23-35,6,42,0.6595735168694581,right,both,biased-switch,104,5,right,left,0.215
SKL1994WRNO,2019-10-01-11-23-35,6,43,0.6896161364267482,left,probe,biased-switch,-1,0,right,right,0.21
SKL1994WRNO,2019-10-01-11-23-35,6,44,0.6044406033514362,left,both,biased-switch,107,0,right,right,0.196
SKL1994WRNO,2019-10-01-11-23-35,6,45,0.5816181717412165,right,probe,biased-switch,-1,-30,right,right,0.222
SKL1994WRNO,2019-10-01-11-23-35,6,46,0.5477654214506499,right,both,biased-switch,106,-30,right,right,0.208
SKL1994WRNO,2019-10-01-11-23-35,6,47,0.6739754542446428,left,probe,biased-switch,-1,20,right,right,0.201
SKL1994WRNO,2019-10-01-11-23-35,6,48,0.5948982287330236,left,both,biased-switch,98,20,right,right,0.27
SKL1994WRNO,2019-10-01-11-23-35,6,49,0.6666946409434357,left,probe,biased-switch,-1,-5,right,right,0.056
SKL1994WRNO,2019-10-01-11-23-35,6,50,0.658651860496617,left,both,biased-switch,96,-5,right,right,0.133
SKL1994WRNO,2019-10-01-11-23-35,6,51,0.6283345027289713,right,probe,biased-switch,-1,-20,right,right,0.087
SKL1994WRNO,2019-10-01-11-23-35,6,52,0.6106310557224005,right,both,biased-switch,104,-20,right,right,0.211
SKL1994WRNO,2019-10-01-11-23-35,6,53,0.5320731141824556,right,probe,ambiguous-switch,-1,10,right,right,0.239
SKL1994WRNO,2019-10-01-11-23-35,6,54,0.5653686388844125,right,both,ambiguous-switch,99,10,right,left,0.184
SKL1994WRNO,2019-10-01-11-23-35,6,55,0.5413549187621204,right,probe,ambiguous-switch,-1,-30,left,left,0.208
SKL1994WRNO,2019-10-01-11-23-35,6,56,0.681356310165463,right,both,ambiguous-switch,95,-30,left,left,0.232
SKL1994WRNO,2019-10-01-11-23-35,6,57,0.6191288599651417,right,probe,ambiguous-switch,-1,20,left,left,0.167
SKL1994WRNO,2019-10-01-11-23-35,6,58,0.544752800100982,right,both,ambiguous-switch,105,20,left,left,0.174
SKL1994WRNO,2019-10-01-11-23-35,6,59,0.5367498627967245,right,probe,biased-switch,-1,10,left,left,0.237
SKL1994WRNO,2019-10-01-11-23-35,6,60,0.5196918931295322,right,both,biased-switch,99,10,left,left,0.155
SKL1994WRNO,2019-10-01-11-23-35,6,61,0.5457427386551733,right,probe,ambiguous-switch,-1,-5,left,left,0.144
SKL1994WRNO,2019-10-01-11-23-35,6,62,0.6318198008071931,right,both,ambiguous-switch,103,-5,left,left,0.237
SKL1994WRNO,2019-10-01-11-23-35,6,63,0.660485011387175,right,probe,biased-switch,-1,30,left,left,0.192
SKL1994WRNO,2019-10-01-11-23-35,6,64,0.6293601545505547,right,both,biased-switch,97,30,left,left,0.166
SKL1994WRNO,2019-10-01-11-23-35,6,65,0.6154620742154755,left,probe,ambiguous-switch,-1,5,right,right,0.193
SKL1994WRNO,2019-10-01-11-23-35,6,66,0.6342213489771132,left,both,ambiguous-switch,95,5,right,right,0.214
SKL1994WRNO,2019-10-01-11-23-35,6,67,0.6899266077273288,right,probe,ambiguous-switch,-1,-10,left,left,0.18
SKL1994WRNO,2019-10-01-11-23-35,6,68,0.6960260736739838,right,both,ambiguous-switch,98,-10,left,left,0.158
SKL1994WRNO,2019-10-01-11-23-35,6,69,0.6063208889105292,left,probe,ambiguous-switch,-1,-20,right,right,0.189
SKL1994WRNO,2019-10-01-11-23-35,6,70,0.6161130015609005,left,both,ambiguous-switch,100,-20,right,right,0.222
SKL1994WRNO,2019-10-01-11-23-35,6,71,0.5114969778347477,left,probe,ambiguous-switch,-1,30,right,right,0.13
SKL1994WRNO,2019-10-01-11-23-35,6,72,0.6370806879806781,left,both,ambiguous-switch,98,30,right,right,0.121
SKL1994WRNO,2019-10-01-11-23-35,6,73,0.6215253760427667,right,probe,biased-switch,-1,40,right,right,0.23
SKL1994WRNO,2019-10-01-11-23-35,6,74,0.5154065150909872,right,both,biased-switch,90,40,right,left,0.204
SKL1994WRNO,2019-10-01-11-23-35,6,75,0.6484065027015007,left,probe,ambiguous-switch,-1,40,right,right,0.162
SKL1994WRNO,2019-10-01-11-23-35,6,76,0.6682145524687909,left,both,ambiguous-switch,108,40,right,right,0.178
SKL1994WRNO,2019-10-01-11-23-35,6,77,0.5913595589565229,right,probe,ambiguous-switch,-1,0,right,right,0.161
SKL1994WRNO,2019-10-01-11-23-35,6,78,0.6669822306094619,right,both,ambiguous-switch,109,0,right,right,0.187
SKL1994WRNO,2019-10-01-11-23-35,6,79,0.5875591758794219,right,probe,biased-switch,-1,-10,right,right,0.19
SKL1994WRNO,2019-10-01-11-23-35,6,80,0.5175767503085522,right,both,biased-switch,101,-10,right,left,0.174
SKL1994WRNO,2019-10-01-11-23-35,7,1,0.6780500673537146,right,probe,biased-switch,-1,30,left,left,0.181
SKL1994WRNO,2019-10-01-11-23-35,7,2,0.6412197490844219,right,both,biased-switch,97,30,left,left,0.279
SKL1994WRNO,2019-10-01-11-23-35,7,3,0.5257639727388147,left,probe,ambiguous-switch,-1,-20,right,right,0.214
SKL1994WRNO,2019-10-01-11-23-35,7,4,0.5860133314795203,left,both,ambiguous-switch,90,-20,right,right,0.209
SKL1994WRNO,2019-10-01-11-23-35,7,5,0.6603474702419588,right,probe,ambiguous-switch,-1,20,left,left,0.22
SKL1994WRNO,2019-10-01-11-23-35,7,6,0.5341493655022772,right,both,ambiguous-switch,109,20,left,left,0.167
SKL1994WRNO,2019-10-01-11-23-35,7,7,0.5952561111186865,right,probe,ambiguous-switch,-1,-10,left,left,0.179
SKL1994WRNO,2019-10-01-11-23-35,7,8,0.6457517405174786,right,both,ambiguous-switch,92,-10,left,left,0.112
SKL1994WRNO,2019-10-01-11-23-35,7,9,0.5891582421307255,left,probe,ambiguous-switch,-1,-5,right,right,0.137
SKL1994WRNO,2019-10-01-11-23-35,7,10,0.5948018531119967,left,both,ambiguous-switch,97,-5,right,right,0.065
SKL1994WRNO,2019-10-01-11-23-35,7,11,0.5602036401191863,left,probe,biased-switch,-1,5,right,right,0.314
SKL1994WRNO,2019-10-01-11-23-35,7,12,0.5859789719702873,left,both,biased-switch,91,5,right,right,0.187
SKL1994WRNO,2019-10-01-11-23-35,7,13,0.5521445294542067,left,probe,ambiguous-switch,-1,0,right,right,0.158
SKL1994WRNO,2019-10-01-11-23-35,7,14,0.5894151211280613,left,both,ambiguous-switch,99,0,right,right,0.144
SKL1994WRNO,2019-10-01-11-23-35,7,15,0.5727556206172346,right,probe,ambiguous-switch,-1,5,right,right,0.143
SKL1994WRNO,2019-10-01-11-23-35,7,16,0.5153171319606746,right,both,ambiguous-switch,103,5,right,right,0.19
SKL1994WRNO,2019-10-01-11-23-35,7,17,0.5956490409775761,left,probe,biased-switch,-1,-5,right,right,0.146
SKL1994WRNO,2019-10-01-11-23-35,7,18,0.5723806241487247,left,both,biased-switch,102,-5,right,right,0.103
SKL1994WRNO,2019-10-01-11-23-35,7,19,0.6301630397794952,right,probe,ambiguous-switch,-1,10,right,right,0.177
SKL1994WRNO,2019-10-01-11-23-35,7,20,0.6142979722623242,right,both,ambiguous-switch,99,10,right,right,0.176
SKL1994WRNO,2019-10-01-11-23-35,7,21,0.663575865275115,left,probe,biased-switch,-1,-20,right,right,0.149
SKL1994WRNO,2019-10-01-11-23-35,7,22,0.681008850780052,left,both,biased-switch,91,-20,right,right,0.222
SKL1994WRNO,2019-10-01-11-23-35,7,23,0.5314770895891605,right,probe,biased-switch,-1,20,right,right,0.178
SKL1994WRNO,2019-10-01-11-23-35,7,24,0.5416056660635987,right,both,biased-switch,101,20,right,right,0.161
SKL1994WRNO,2019-10-01-11-23-35,7,25,0.5304407026009865,left,probe,biased-switch,-1,0,right,right,0.188
SKL1994WRNO,2019-10-01-11-23-35,7,26,0.5241396566107395,left,both,biased-switch,93,0,right,right,0.175
SKL1994WRNO,2019-10-01-11-23-35,7,27,0.5191001534958669,left,probe,ambiguous-switch,-1,30,right,right,0.183
SKL1994WRNO,2019-10-01-11-23-35,7,28,0.5258802875866097,left,both,ambiguous-switch,104,30,right,right,0.113
SKL1994WRNO,2019-10-01-11-23-35,7,29,0.6894944024988318,left,probe,ambiguous-switch,-1,40,right,right,0.201
SKL1994WRNO,2019-10-01-11-23-35,7,30,0.5562143417015062,left,both,ambiguous-switch,101,40,right,right,0.179
SKL1994WRNO,2019-10-01-11-23-35,7,31,0.5825985528899063,left,probe,biased-switch,-1,40,right,right,0.173
SKL1994WRNO,2019-10-01-11-23-35,7,32,0.5141479378369895,left,both,biased-switch,104,40,right,right,0.209
SKL1994WRNO,2019-10-01-11-23-35,7,33,0.514529800405494,left,probe,biased-switch,-1,-10,right,right,0.142
SKL1994WRNO,2019-10-01-11-23-35,7,34,0.6108403882463264,left,both,biased-switch,103,-10,right,right,0.159
SKL1994WRNO,2019-10-01-11-23-35,7,35,0.5690411904505567,right,probe,ambiguous-switch,-1,-30,right,right,0.117
SKL1994WRNO,2019-10-01-11-23-35,7,36,0.6399645330046368,right,both,ambiguous-switch,105,-30,right,right,0.189
SKL1994WRNO,2019-10-01-11-23-35,7,37,0.6702544855484386,right,probe,biased-switch,-1,-30,right,right,0.19
SKL1994WRNO,2019-10-01-11-23-35,7,38,0.6145452874153194,right,both,biased-switch,102,-30,right,right,0.063
SKL1994WRNO,2019-10-01-11-23-35,7,39,0.5202525699278171,left,probe,biased-switch,-1,10,right,right,0.186
SKL1994WRNO,2019-10-01-11-23-35,7,40,0.6404703232734501,left,both,biased-switch,106,10,right,right,0.178
SKL1994WRNO,2019-10-01-11-23-35,7,41,0.533373147546617,right,probe,biased-switch,-1,30,right,right,0.152
SKL1994WRNO,2019-10-01-11-23-35,7,42,0.6425385389723346,right,both,biased-switch,105,30,right,right,0.138
SKL1994WRNO,2019-10-01-11-23-35,7,43,0.5913887053102906,left,probe,ambiguous-switch,-1,-20,right,right,0.181
SKL1994WRNO,2019-10-01-11-23-35,7,44,0.6605436856757274,left,both,ambiguous-switch,108,-20,right,right,0.175
SKL1994WRNO,2019-10-01-11-23-35,7,45,0.6230314561786648,left,probe,ambiguous-switch,-1,20,right,right,0.177
SKL1994WRNO,2019-10-01-11-23-35,7,46,0.6532855894787143,left,both,ambiguous-switch,105,20,right,right,0.199
SKL1994WRNO,2019-10-01-11-23-35,7,47,0.6144003410441533,right,probe,ambiguous-switch,-1,-10,left,left,0.21
SKL1994WRNO,2019-10-01-11-23-35,7,48,0.537106504350005,right,both,ambiguous-switch,98,-10,left,left,0.218
SKL1994WRNO,2019-10-01-11-23-35,7,49,0.6165546587889259,right,probe,ambiguous-switch,-1,-5,left,left,0.247
SKL1994WRNO,2019-10-01-11-23-35,7,50,0.6590287812524672,right,both,ambiguous-switch,94,-5,left,left,0.213
SKL1994WRNO,2019-10-01-11-23-35,7,51,0.6967268748639789,left,probe,biased-switch,-1,5,right,right,0.142
SKL1994WRNO,2019-10-01-11-23-35,7,52,0.5035821057483001,left,both,biased-switch,102,5,right,left,0.309
SKL1994WRNO,2019-10-01-11-23-35,7,53,0.6324274523225827,right,probe,ambiguous-switch,-1,0,left,left,0.193
SKL1994WRNO,2019-10-01-11-23-35,7,54,0.5946680247325411,right,both,ambiguous-switch,107,0,left,left,0.169
SKL1994WRNO,2019-10-01-11-23-35,7,55,0.5873144750352812,right,probe,ambiguous-switch,-1,5,left,left,0.208
SKL1994WRNO,2019-10-01-11-23-35,7,56,0.5838547789837553,right,both,ambiguous-switch,91,5,left,left,0.235
SKL1994WRNO,2019-10-01-11-23-35,7,57,0.5159381962016497,right,probe,biased-switch,-1,-5,left,left,0.304
SKL1994WRNO,2019-10-01-11-23-35,7,58,0.5053671543538109,right,both,biased-switch,98,-5,left,left,0.174
SKL1994WRNO,2019-10-01-11-23-35,7,59,0.6932488263638306,left,probe,ambiguous-switch,-1,10,left,left,0.191
SKL1994WRNO,2019-10-01-11-23-35,7,60,0.6723548829986474,left,both,ambiguous-switch,95,10,left,left,0.171
SKL1994WRNO,2019-10-01-11-23-35,7,61,0.647671752230639,right,probe,biased-switch,-1,-20,left,left,0.199
SKL1994WRNO,2019-10-01-11-23-35,7,62,0.665280001972838,right,both,biased-switch,100,-20,left,left,0.126
SKL1994WRNO,2019-10-01-11-23-35,7,63,0.6180423981761866,left,probe,biased-switch,-1,20,left,left,0.204
SKL1994WRNO,2019-10-01-11-23-35,7,64,0.6083566715430428,left,both,biased-switch,109,20,left,left,0.178
SKL1994WRNO,2019-10-01-11-23-35,7,65,0.6664891087445597,left,probe,biased-switch,-1,0,left,left,0.176
SKL1994WRNO,2019-10-01-11-23-35,7,66,0.6089007865455142,left,both,biased-switch,107,0,left,right,0.157
SKL1994WRNO,2019-10-01-11-23-35,7,67,0.667973495201577,left,probe,ambiguous-switch,-1,30,right,right,0.219
SKL1994WRNO,2019-10-01-11-23-35,7,68,0.5694032356283711,left,both,ambiguous-switch,91,30,right,right,0.181
SKL1994WRNO,2019-10-01-11-23-35,7,69,0.5941036884556673,right,probe,ambiguous-switch,-1,40,left,left,0.218
SKL1994WRNO,2019-10-01-11-23-35,7,70,0.5765847269236547,right,both,ambiguous-switch,107,40,left,left,0.19
SKL1994WRNO,2019-10-01-11-23-35,7,71,0.6865627586834533,right,probe,biased-switch,-1,40,left,left,0.191
SKL1994WRNO,2019-10-01-11-23-35,7,72,0.5689224665869974,right,both,biased-switch,106,40,left,left,0.127
SKL1994WRNO,2019-10-01-11-23-35,7,73,0.6399142268356686,right,probe,biased-switch,-1,-10,left,left,0.22
SKL1994WRNO,2019-10-01-11-23-35,7,74,0.6288398263314221,right,both,biased-switch,99,-10,left,left,0.153
SKL1994WRNO,2019-10-01-11-23-35,7,75,0.6632783330295011,right,probe,ambiguous-switch,-1,-30,left,left,0.188
SKL1994WRNO,2019-10-01-11-23-35,7,76,0.5926002381674221,right,both,ambiguous-switch,105,-30,left,left,0.091
SKL1994WRNO,2019-10-01-11-23-35,7,77,0.5596234458989484,left,probe,biased-switch,-1,-30,left,left,0.166
SKL1994WRNO,2019-10-01-11-23-35,7,78,0.6548563958983582,left,both,biased-switch,92,-30,left,left,0.162
SKL1994WRNO,2019-10-01-11-23-35,7,79,0.5839391487446428,right,probe,biased-switch,-1,10,left,left,0.169
SKL1994WRNO,2019-10-01-11-23-35,7,80,0.5006846405496593,right,both,biased-switch,107,10,left,left,0.145
SKL1994WRNO,2019-10-01-11-23-35,8,1,0.6762882737580578,right,probe,ambiguous-switch,-1,30,left,left,0.198
SKL1994WRNO,2019-10-01-11-23-35,8,2,0.5705626075341469,right,both,ambiguous-switch,104,30,left,left,0.194
SKL1994WRNO,2019-10-01-11-23-35,8,3,0.5105028406154876,right,probe,biased-switch,-1,5,left,left,0.191
SKL1994WRNO,2019-10-01-11-23-35,8,4,0.6579385973501561,right,both,biased-switch,91,5,left,left,0.18
SKL1994WRNO,2019-10-01-11-23-35,8,5,0.5720405178782092,left,probe,biased-switch,-1,-30,left,left,0.326
SKL1994WRNO,2019-10-01-11-23-35,8,6,0.5710098674202319,left,both,biased-switch,92,-30,left,left,0.254
SKL1994WRNO,2019-10-01-11-23-35,8,7,0.590979229304151,right,probe,ambiguous-switch,-1,5,left,left,0.766
SKL1994WRNO,2019-10-01-11-23-35,8,8,0.6889789855354094,right,both,ambiguous-switch,97,5,left,left,0.197
SKL1994WRNO,2019-10-01-11-23-35,8,9,0.5811058009723411,right,probe,ambiguous-switch,-1,40,left,left,0.161
SKL1994WRNO,2019-10-01-11-23-35,8,10,0.6074612346451046,right,both,ambiguous-switch,96,40,left,left,0.321
SKL1994WRNO,2019-10-01-11-23-35,8,11,0.6346034455889611,right,probe,biased-switch,-1,-20,left,left,0.545
SKL1994WRNO,2019-10-01-11-23-35,8,12,0.6210096782668202,right,both,biased-switch,93,-20,left,left,0.273
SKL1994WRNO,2019-10-01-11-23-35,8,13,0.6521698509390597,left,probe,biased-switch,-1,-5,left,left,0.181
SKL1994WRNO,2019-10-01-11-23-35,8,14,0.5225538380424312,left,both,biased-switch,108,-5,left,right,0.168
SKL1994WRNO,2019-10-01-11-23-35,8,15,0.5951960607558204,right,probe,biased-switch,-1,20,left,left,0.244
SKL1994WRNO,2019-10-01-11-23-35,8,16,0.5665858145481218,right,both,biased-switch,95,20,left,left,0.066
SKL1994WRNO,2019-10-01-11-23-35,8,17,0.5965452335517681,left,probe,biased-switch,-1,-10,right,right,0.225
SKL1994WRNO,2019-10-01-11-23-35,8,18,0.6121540986795047,left,both,biased-switch,103,-10,right,right,0.091
SKL1994WRNO,2019-10-01-11-23-35,8,19,0.6642350030264024,left,probe,ambiguous-switch,-1,20,right,right,0.143
SKL1994WRNO,2019-10-01-11-23-35,8,20,0.5719457261776719,left,both,ambiguous-switch,91,20,right,right,0.164
SKL1994WRNO,2019-10-01-11-23-35,8,21,0.580154969086711,right,probe,biased-switch,-1,0,left,left,0.248
SKL1994WRNO,2019-10-01-11-23-35,8,22,0.5499950287607048,right,both,biased-switch,102,0,left,left,0.1
SKL1994WRNO,2019-10-01-11-23-35,8,23,0.5269828969803946,left,probe,biased-switch,-1,40,right,right,0.199
SKL1994WRNO,2019-10-01-11-23-35,8,24,0.6041971494799705,left,both,biased-switch,95,40,right,right,0.18
SKL1994WRNO,2019-10-01-11-23-35,8,25,0.5446310875745936,right,probe,biased-switch,-1,10,left,left,0.219
SKL1994WRNO,2019-10-01-11-23-35,8,26,0.5588190552634159,right,both,biased-switch,94,10,left,right,0.142
SKL1994WRNO,2019-10-01-11-23-35,8,27,0.5147077708822783,right,probe,ambiguous-switch,-1,10,left,left,0.151
SKL1994WRNO,2019-10-01-11-23-35,8,28,0.5291537178647658,right,both,ambiguous-switch,95,10,left,left,0.181
SKL1994WRNO,2019-10-01-11-23-35,8,29,0.67005140073313,left,probe,ambiguous-switch,-1,-10,right,right,0.18
SKL1994WRNO,2019-10-01-11-23-35,8,30,0.5500852010234427,left,both,ambiguous-switch,100,-10,right,right,0.18
SKL1994WRNO,2019-10-01-11-23-35,8,31,0.6484206493398089,right,probe,ambiguous-switch,-1,-30,left,left,0.158
SKL1994WRNO,2019-10-01-11-23-35,8,32,0.5215163869411165,right,both,ambiguous-switch,99,-30,left,left,0.195
SKL1994WRNO,2019-10-01-11-23-35,8,33,0.5458312894732571,left,probe,biased-switch,-1,30,right,right,0.257
SKL1994WRNO,2019-10-01-11-23-35,8,34,0.5468878871193363,left,both,biased-switch,92,30,right,right,0.141
SKL1994WRNO,2019-10-01-11-23-35,8,35,0.5650410722417007,left,probe,ambiguous-switch,-1,0,right,right,0.06
SKL1994WRNO,2019-10-01-11-23-35,8,36,0.6347211914546116,left,both,ambiguous-switch,98,0,right,right,0.163
SKL1994WRNO,2019-10-01-11-23-35,8,37,0.6685663744452518,left,probe,ambiguous-switch,-1,-20,right,right,0.172
SKL1994WRNO,2019-10-01-11-23-35,8,38,0.5786602435012526,left,both,ambiguous-switch,104,-20,right,right,0.177
SKL1994WRNO,2019-10-01-11-23-35,8,39,0.5780442239822459,left,probe,ambiguous-switch,-1,-5,right,right,0.152
SKL1994WRNO,2019-10-01-11-23-35,8,40,0.6384447073049621,left,both,ambiguous-switch,105,-5,right,right,0.163
SKL1994WRNO,2019-10-01-11-23-35,8,41,0.5760128774549987,right,probe,ambiguous-switch,-1,30,right,right,0.179
SKL1994WRNO,2019-10-01-11-23-35,8,42,0.563161604807929,right,both,ambiguous-switch,97,30,right,right,0.2
SKL1994WRNO,2019-10-01-11-23-35,8,43,0.6251254414031924,left,probe,biased-switch,-1,5,right,right,0.193
SKL1994WRNO,2019-10-01-11-23-35,8,44,0.6247254167473996,left,both,biased-switch,95,5,right,right,0.107
SKL1994WRNO,2019-10-01-11-23-35,8,45,0.6828412812902456,left,probe,biased-switch,-1,-30,right,right,0.17
SKL1994WRNO,2019-10-01-11-23-35,8,46,0.6937033017335937,left,both,biased-switch,94,-30,right,right,0.202
SKL1994WRNO,2019-10-01-11-23-35,8,47,0.6816286868011457,left,probe,ambiguous-switch,-1,5,right,right,0.118
SKL1994WRNO,2019-10-01-11-23-35,8,48,0.6864104989300023,left,both,ambiguous-switch,92,5,right,right,0.241
SKL1994WRNO,2019-10-01-11-23-35,8,49,0.6403662708866421,left,probe,ambiguous-switch,-1,40,right,right,0.456
SKL1994WRNO,2019-10-01-11-23-35,8,50,0.6054967060644956,left,both,ambiguous-switch,93,40,right,right,0.161
SKL1994WRNO,2019-10-01-11-23-35,8,51,0.6862041214865464,right,probe,biased-switch,-1,-20,right,right,0.158
SKL1994WRNO,2019-10-01-11-23-35,8,52,0.5793801734382032,right,both,biased-switch,106,-20,right,right,0.214
SKL1994WRNO,2019-10-01-11-23-35,8,53,0.6473269458353126,right,probe,biased-switch,-1,-5,right,right,0.138
SKL1994WRNO,2019-10-01-11-23-35,8,54,0.6801658067312634,right,both,biased-switch,98,-5,right,right,0.198
SKL1994WRNO,2019-10-01-11-23-35,8,55,0.5318899485062419,right,probe,biased-switch,-1,20,right,right,0.183
SKL1994WRNO,2019-10-01-11-23-35,8,56,0.5624302319474984,right,both,biased-switch,110,20,right,right,0.191
SKL1994WRNO,2019-10-01-11-23-35,8,57,0.5009846017680555,left,probe,biased-switch,-1,-10,right,right,0.229
SKL1994WRNO,2019-10-01-11-23-35,8,58,0.5492333513959734,left,both,biased-switch,98,-10,right,right,0.19
SKL1994WRNO,2019-10-01-11-23-35,8,59,0.515258135901528,left,probe,ambiguous-switch,-1,20,right,right,0.181
SKL1994WRNO,2019-10-01-11-23-35,8,60,0.6505983203302528,left,both,ambiguous-switch,92,20,right,right,0.09
SKL1994WRNO,2019-10-01-11-23-35,8,61,0.5036087006618803,right,probe,biased-switch,-1,0,right,right,0.062
SKL1994WRNO,2019-10-01-11-23-35,8,62,0.576368689773396,right,both,biased-switch,101,0,right,left,0.167
SKL1994WRNO,2019-10-01-11-23-35,8,63,0.5998114068648985,left,probe,biased-switch,-1,40,right,right,0.188
SKL1994WRNO,2019-10-01-11-23-35,8,64,0.5435443360353944,left,both,biased-switch,106,40,right,right,0.203
SKL1994WRNO,2019-10-01-11-23-35,8,65,0.5965254348570004,right,probe,biased-switch,-1,10,right,right,0.127
SKL1994WRNO,2019-10-01-11-23-35,8,66,0.5756992504223828,right,both,biased-switch,95,10,right,right,0.163
SKL1994WRNO,2019-10-01-11-23-35,8,67,0.6101723386886321,left,probe,ambiguous-switch,-1,10,right,right,0.125
SKL1994WRNO,2019-10-01-11-23-35,8,68,0.5029012463371896,left,both,ambiguous-switch,93,10,right,right,0.16
SKL1994WRNO,2019-10-01-11-23-35,8,69,0.5077425939851389,left,probe,ambiguous-switch,-1,-10,right,right,0.106
SKL1994WRNO,2019-10-01-11-23-35,8,70,0.581947514618867,left,both,ambiguous-switch,101,-10,right,right,0.156
SKL1994WRNO,2019-10-01-11-23-35,8,71,0.6783060281020289,right,probe,ambiguous-switch,-1,-30,right,right,0.003
SKL1994WRNO,2019-10-01-11-23-35,8,72,0.6155598133565537,right,both,ambiguous-switch,97,-30,right,right,0.127
SKL1994WRNO,2019-10-01-11-23-35,8,73,0.6298670681511137,left,probe,biased-switch,-1,30,right,right,0.117
SKL1994WRNO,2019-10-01-11-23-35,8,74,0.6024817317088036,left,both,biased-switch,91,30,right,right,0.21
SKL1994WRNO,2019-10-01-11-23-35,8,75,0.616562075331067,left,probe,ambiguous-switch,-1,0,right,right,0.163
SKL1994WRNO,2019-10-01-11-23-35,8,76,0.520560173906115,left,both,ambiguous-switch,108,0,right,right,0.048
SKL1994WRNO,2019-10-01-11-23-35,8,77,0.5407968661340714,right,probe,ambiguous-switch,-1,-20,right,right,0.166
SKL1994WRNO,2019-10-01-11-23-35,8,78,0.5769898071193618,right,both,ambiguous-switch,94,-20,right,right,0.147
SKL1994WRNO,2019-10-01-11-23-35,8,79,0.5507519708833217,right,probe,ambiguous-switch,-1,-5,right,right,0.123
SKL1994WRNO,2019-10-01-11-23-35,8,80,0.6534770835970887,right,both,ambiguous-switch,98,-5,right,right,0.162
SKL1994WRNO,2019-10-01-11-23-35,9,1,0.6093245864669389,right,probe,ambiguous-switch,-1,40,right,right,0.13
SKL1994WRNO,2019-10-01-11-23-35,9,2,0.5310312072669551,right,both,ambiguous-switch,93,40,right,right,0.22
SKL1994WRNO,2019-10-01-11-23-35,9,3,0.6638046529747014,right,probe,biased-switch,-1,10,right,right,0.207
SKL1994WRNO,2019-10-01-11-23-35,9,4,0.565993708627355,right,both,biased-switch,96,10,right,left,0.115
SKL1994WRNO,2019-10-01-11-23-35,9,5,0.5692186645599304,right,probe,biased-switch,-1,-20,right,right,0.219
SKL1994WRNO,2019-10-01-11-23-35,9,6,0.5124884048140053,right,both,biased-switch,102,-20,right,right,0.091
SKL1994WRNO,2019-10-01-11-23-35,9,7,0.5524449037013461,left,probe,biased-switch,-1,-30,right,right,0.215
SKL1994WRNO,2019-10-01-11-23-35,9,8,0.680322807142694,left,both,biased-switch,106,-30,right,right,0.15
SKL1994WRNO,2019-10-01-11-23-35,9,9,0.5972570565035016,right,probe,ambiguous-switch,-1,-20,right,right,0.149
SKL1994WRNO,2019-10-01-11-23-35,9,10,0.5290125019712312,right,both,ambiguous-switch,91,-20,right,right,0.169
SKL1994WRNO,2019-10-01-11-23-35,9,11,0.649140489244525,right,probe,biased-switch,-1,-5,right,right,0.146
SKL1994WRNO,2019-10-01-11-23-35,9,12,0.5934202545289134,right,both,biased-switch,105,-5,right,right,0.282
SKL1994WRNO,2019-10-01-11-23-35,9,13,0.6245323307196644,right,probe,biased-switch,-1,0,right,right,0.225
SKL1994WRNO,2019-10-01-11-23-35,9,14,0.6084037295412491,right,both,biased-switch,95,0,right,right,0.212
SKL1994WRNO,2019-10-01-11-23-35,9,15,0.6181093585202797,left,probe,biased-switch,-1,20,right,right,0.196
SKL1994WRNO,2019-10-01-11-23-35,9,16,0.5590020065826586,left,both,biased-switch,105,20,right,right,0.197
SKL1994WRNO,2019-10-01-11-23-35,9,17,0.5291897876940005,right,probe,biased-switch,-1,5,right,right,0.207
SKL1994WRNO,2019-10-01-11-23-35,9,18,0.6505457767284513,right,both,biased-switch,97,5,right,left,0.202
SKL1994WRNO,2019-10-01-11-23-35,9,19,0.5049998923391208,right,probe,ambiguous-switch,-1,30,left,left,0.138
SKL1994WRNO,2019-10-01-11-23-35,9,20,0.5332818448260378,right,both,ambiguous-switch,107,30,left,left,0.133
SKL1994WRNO,2019-10-01-11-23-35,9,21,0.542733374219799,right,probe,biased-switch,-1,40,left,left,0.023
SKL1994WRNO,2019-10-01-11-23-35,9,22,0.6859596599282637,right,both,biased-switch,108,40,left,left,0.18
SKL1994WRNO,2019-10-01-11-23-35,9,23,0.6873611481064832,left,probe,ambiguous-switch,-1,-10,right,right,0.11
SKL1994WRNO,2019-10-01-11-23-35,9,24,0.5268305013500726,left,both,ambiguous-switch,93,-10,right,right,0.166
SKL1994WRNO,2019-10-01-11-23-35,9,25,0.5439546539019422,right,probe,ambiguous-switch,-1,-5,left,left,0.185
SKL1994WRNO,2019-10-01-11-23-35,9,26,0.6682996305077911,right,both,ambiguous-switch,108,-5,left,left,0.127
SKL1994WRNO,2019-10-01-11-23-35,9,27,0.6527657060504,left,probe,biased-switch,-1,30,right,right,0.162
SKL1994WRNO,2019-10-01-11-23-35,9,28,0.6053040956087178,left,both,biased-switch,92,30,right,right,0.066
SKL1994WRNO,2019-10-01-11-23-35,9,29,0.6104101896465823,right,probe,ambiguous-switch,-1,5,left,left,0.102
SKL1994WRNO,2019-10-01-11-23-35,9,30,0.5583120687812536,right,both,ambiguous-switch,110,5,left,left,0.18
SKL1994WRNO,2019-10-01-11-23-35,9,31,0.6518322217059088,right,probe,ambiguous-switch,-1,10,left,left,0.14
SKL1994WRNO,2019-10-01-11-23-35,9,32,0.5238662657750159,right,both,ambiguous-switch,91,10,left,left,0.199
SKL1994WRNO,2019-10-01-11-23-35,9,33,0.6503732503809722,left,probe,biased-switch,-1,-10,left,left,0.16
SKL1994WRNO,2019-10-01-11-23-35,9,34,0.6201460160845782,left,both,biased-switch,109,-10,left,left,0.247
SKL1994WRNO,2019-10-01-11-23-35,9,35,0.5046992751009828,right,probe,ambiguous-switch,-1,-30,left,left,0.168
SKL1994WRNO,2019-10-01-11-23-35,9,36,0.5723372005689541,right,both,ambiguous-switch,110,-30,left,left,0.182
SKL1994WRNO,2019-10-01-11-23-35,9,37,0.6791217543892409,left,probe,ambiguous-switch,-1,20,left,left,0.163
SKL1994WRNO,2019-10-01-11-23-35,9,38,0.6394512781382047,left,both,ambiguous-switch,93,20,left,left,0.084
SKL1994WRNO,2019-10-01-11-23-35,9,39,0.5986755703812198,left,probe,ambiguous-switch,-1,0,left,left,0.172
SKL1994WRNO,2019-10-01-11-23-35,9,40,0.5029848191641003,left,both,ambiguous-switch,102,0,left,left,0.19
SKL1994WRNO,2019-10-01-11-23-35,9,41,0.5799817410369288,left,probe,ambiguous-switch,-1,40,left,left,0.149
SKL1994WRNO,2019-10-01-11-23-35,9,42,0.6817950825326431,left,both,ambiguous-switch,94,40,left,left,0.152
SKL1994WRNO,2019-10-01-11-23-35,9,43,0.6068564559716366,right,probe,biased-switch,-1,10,left,left,0.224
SKL1994WRNO,2019-10-01-11-23-35,9,44,0.598777162174934,right,both,biased-switch,100,10,left,left,0.232
SKL1994WRNO,2019-10-01-11-23-35,9,45,0.6465606311239096,right,probe,biased-switch,-1,-20,left,left,0.183
SKL1994WRNO,2019-10-01-11-23-35,9,46,0.5959198187988572,right,both,biased-switch,91,-20,left,left,0.169
SKL1994WRNO,2019-10-01-11-23-35,9,47,0.5577276937998356,right,probe,biased-switch,-1,-30,left,left,0.061
SKL1994WRNO,2019-10-01-11-23-35,9,48,0.5328182853426209,right,both,biased-switch,102,-30,left,left,0.189
SKL1994WRNO,2019-10-01-11-23-35,9,49,0.6407837628488121,right,probe,ambiguous-switch,-1,-20,left,left,0.047
SKL1994WRNO,2019-10-01-11-23-35,9,50,0.5333945968912911,right,both,ambiguous-switch,90,-20,left,left,0.165
SKL1994WRNO,2019-10-01-11-23-35,9,51,0.5583097795467084,left,probe,biased-switch,-1,-5,left,left,0.191
SKL1994WRNO,2019-10-01-11-23-35,9,52,0.657435035968153,left,both,biased-switch,91,-5,left,left,0.155
SKL1994WRNO,2019-10-01-11-23-35,9,53,0.6264228608670988,left,probe,biased-switch,-1,0,left,left,0.164
SKL1994WRNO,2019-10-01-11-23-35,9,54,0.627860553522033,left,both,biased-switch,104,0,left,left,0.145
SKL1994WRNO,2019-10-01-11-23-35,9,55,0.610371858957783,right,probe,biased-switch,-1,20,left,left,0.123
SKL1994WRNO,2019-10-01-11-23-35,9,56,0.6426034761599879,right,both,biased-switch,98,20,left,left,0.167
SKL1994WRNO,2019-10-01-11-23-35,9,57,0.6678252425061357,right,probe,biased-switch,-1,5,left,left,0.109
SKL1994WRNO,2019-10-01-11-23-35,9,58,0.6849945956088012,right,both,biased-switch,107,5,left,left,0.148
SKL1994WRNO,2019-10-01-11-23-35,9,59,0.6242792183788668,left,probe,ambiguous-switch,-1,30,left,left,0.151
SKL1994WRNO,2019-10-01-11-23-35,9,60,0.500893140889907,left,both,ambiguous-switch,100,30,left,left,0.299
SKL1994WRNO,2019-10-01-11-23-35,9,61,0.6410521538395523,right,probe,biased-switch,-1,40,left,left,0.179
SKL1994WRNO,2019-10-01-11-23-35,9,62,0.5088630298543783,right,both,biased-switch,91,40,left,left,0.103
SKL1994WRNO,2019-10-01-11-23-35,9,63,0.6281915036573474,right,probe,ambiguous-switch,-1,-10,left,left,0.159
SKL1994WRNO,2019-10-01-11-23-35,9,64,0.5260138855170489,right,both,ambiguous-switch,98,-10,left,left,0.252
SKL1994WRNO,2019-10-01-11-23-35,9,65,0.5741175761150441,left,probe,ambiguous-switch,-1,-5,left,left,0.007
SKL1994WRNO,2019-10-01-11-23-35,9,66,0.5659457706399204,left,both,ambiguous-switch,93,-5,left,left,0.232
SKL1994WRNO,2019-10-01-11-23-35,9,67,0.6126628094294686,left,probe,biased-switch,-1,30,left,left,0.221
SKL1994WRNO,2019-10-01-11-23-35,9,68,0.5433099460676875,left,both,biased-switch,93,30,left,left,0.1
SKL1994WRNO,2019-10-01-11-23-35,9,69,0.5164017897095934,left,probe,ambiguous-switch,-1,5,left,left,0.16
SKL1994WRNO,2019-10-01-11-23-35,9,70,0.5343216947918269,left,both,ambiguous-switch,100,5,left,left,0.175
SKL1994WRNO,2019-10-01-11-23-35,9,71,0.5983784690008267,left,probe,ambiguous-switch,-1,10,left,left,0.16
SKL1994WRNO,2019-10-01-11-23-35,9,72,0.5008007712922695,left,both,ambiguous-switch,93,10,left,left,0.031
SKL1994WRNO,2019-10-01-11-23-35,9,73,0.6254423662899499,left,probe,biased-switch,-1,-10,left,left,0.051
SKL1994WRNO,2019-10-01-11-23-35,9,74,0.6545633710496016,left,both,biased-switch,100,-10,left,left,0.199
SKL1994WRNO,2019-10-01-11-23-35,9,75,0.6486233437480471,right,probe,ambiguous-switch,-1,-30,left,left,0.62
SKL1994WRNO,2019-10-01-11-23-35,9,76,0.5102260929715768,right,both,ambiguous-switch,106,-30,left,left,0.246
SKL1994WRNO,2019-10-01-11-23-35,9,77,0.616559948180998,right,probe,ambiguous-switch,-1,20,left,left,0.251
SKL1994WRNO,2019-10-01-11-23-35,9,78,0.6177388842490512,right,both,ambiguous-switch,110,20,left,left,0.203
SKL1994WRNO,2019-10-01-11-23-35,9,79,0.6333671006130214,right,probe,ambiguous-switch,-1,0,left,left,0.196
SKL1994WRNO,2019-10-01-11-23-35,9,80,0.5912805595363859,right,both,ambiguous-switch,103,0,left,left,0.011
SKL1994WRNO,2019-10-01-11-23-35,10,1,0.540993963391095,right,probe,ambiguous-switch,-1,30,left,left,0.304
SKL1994WRNO,2019-10-01-11-23-35,10,2,0.6681266562578121,right,both,ambiguous-switch,92,30,left,left,0.183
SKL1994WRNO,2019-10-01-11-23-35,10,3,0.5918908704091519,left,probe,biased-switch,-1,-5,left,left,0.177
SKL1994WRNO,2019-10-01-11-23-35,10,4,0.5523574781652552,left,both,biased-switch,108,-5,left,right,0.196
SKL1994WRNO,2019-10-01-11-23-35,10,5,0.5324011431209991,right,probe,biased-switch,-1,40,left,left,0.249
SKL1994WRNO,2019-10-01-11-23-35,10,6,0.5839100451006451,right,both,biased-switch,93,40,left,left,0.178
SKL1994WRNO,2019-10-01-11-23-35,10,7,0.6467492790198536,right,probe,ambiguous-switch,-1,40,left,left,0.174
SKL1994WRNO,2019-10-01-11-23-35,10,8,0.6186127712387709,right,both,ambiguous-switch,104,40,left,left,0.194
SKL1994WRNO,2019-10-01-11-23-35,10,9,0.6030435712051649,left,probe,biased-switch,-1,-30,left,left,0.214
SKL1994WRNO,2019-10-01-11-23-35,10,10,0.5254162523556284,left,both,biased-switch,93,-30,left,right,0.296
SKL1994WRNO,2019-10-01-11-23-35,10,11,0.6408000043010934,left,probe,ambiguous-switch,-1,0,right,right,0.168
SKL1994WRNO,2019-10-01-11-23-35,10,12,0.6761093680343462,left,both,ambiguous-switch,109,0,right,right,0.148
SKL1994WRNO,2019-10-01-11-23-35,10,13,0.5279183317643631,left,probe,biased-switch,-1,5,right,right,0.168
SKL1994WRNO,2019-10-01-11-23-35,10,14,0.6424802208748942,left,both,biased-switch,105,5,right,right,0.179
SKL1994WRNO,2019-10-01-11-23-35,10,15,0.5937868960363655,right,probe,ambiguous-switch,-1,-5,left,left,0.457
SKL1994WRNO,2019-10-01-11-23-35,10,16,0.5727798780653881,right,both,ambiguous-switch,103,-5,left,left,0.176
SKL1994WRNO,2019-10-01-11-23-35,10,17,0.5942383771937065,left,probe,ambiguous-switch,-1,-20,left,left,0.189
SKL1994WRNO,2019-10-01-11-23-35,10,18,0.6997687860221278,left,both,ambiguous-switch,108,-20,left,right,0.166
SKL1994WRNO,2019-10-01-11-23-35,10,19,0.6645090898927016,right,probe,biased-switch,-1,20,left,left,0.133
SKL1994WRNO,2019-10-01-11-23-35,10,20,0.5658111543720399,right,both,biased-switch,103,20,left,left,0.205
SKL1994WRNO,2019-10-01-11-23-35,10,21,0.6731981769992356,right,probe,ambiguous-switch,-1,20,left,left,0.143
SKL1994WRNO,2019-10-01-11-23-35,10,22,0.5461127906773806,right,both,ambiguous-switch,103,20,left,left,0.191
SKL1994WRNO,2019-10-01-11-23-35,10,23,0.6734210182115496,left,probe,biased-switch,-1,10,left,left,0.141
SKL1994WRNO,2019-10-01-11-23-35,10,24,0.5095188240992805,left,both,biased-switch,91,10,left,right,0.124
SKL1994WRNO,2019-10-01-11-23-35,10,25,0.699695515648155,right,probe,ambiguous-switch,-1,10,left,left,0.128
SKL1994WRNO,2019-10-01-11-23-35,10,26,0.5863857176892137,right,both,ambiguous-switch,100,10,left,left,0.19
SKL1994WRNO,2019-10-01-11-23-35,10,27,0.5804419597782279,right,probe,biased-switch,-1,30,left,left,1.915
SKL1994WRNO,2019-10-01-11-23-35,10,28,0.5274270864806575,right,both,biased-switch,95,30,left,left,0.101
SKL1994WRNO,2019-10-01-11-23-35,10,29,0.6068690269927555,right,probe,ambiguous-switch,-1,-10,left,left,0.144
SKL1994WRNO,2019-10-01-11-23-35,10,30,0.5857384553391509,right,both,ambiguous-switch,92,-10,left,left,0.136
SKL1994WRNO,2019-10-01-11-23-35,10,31,0.6032018781523294,right,probe,biased-switch,-1,0,left,left,0.149
SKL1994WRNO,2019-10-01-11-23-35,10,32,0.6783129075291081,right,both,biased-switch,106,0,left,left,0.164
SKL1994WRNO,2019-10-01-11-23-35,10,33,0.5855466542854297,right,probe,biased-switch,-1,-10,left,left,0.141
SKL1994WRNO,2019-10-01-11-23-35,10,34,0.6544653512373704,right,both,biased-switch,105,-10,left,left,0.239
SKL1994WRNO,2019-10-01-11-23-35,10,35,0.6655850182402143,right,probe,ambiguous-switch,-1,5,left,left,0.07
SKL1994WRNO,2019-10-01-11-23-35,10,36,0.5991305005348861,right,both,ambiguous-switch,110,5,left,left,0.113
SKL1994WRNO,2019-10-01-11-23-35,10,37,0.6166456805938417,right,probe,biased-switch,-1,-20,left,left,0.076
SKL1994WRNO,2019-10-01-11-23-35,10,38,0.6252888203470083,right,both,biased-switch,96,-20,left,left,0.182
SKL1994WRNO,2019-10-01-11-23-35,10,39,0.5700037048970581,right,probe,ambiguous-switch,-1,-30,left,left,0.136
SKL1994WRNO,2019-10-01-11-23-35,10,40,0.6155305206067015,right,both,ambiguous-switch,103,-30,left,left,0.152
SKL1994WRNO,2019-10-01-11-23-35,10,41,0.5108223410684165,right,probe,ambiguous-switch,-1,30,left,left,0.088
SKL1994WRNO,2019-10-01-11-23-35,10,42,0.6114933494023296,right,both,ambiguous-switch,109,30,left,left,0.086
SKL1994WRNO,2019-10-01-11-23-35,10,43,0.6221942977441266,left,probe,biased-switch,-1,-5,left,left,0.157
SKL1994WRNO,2019-10-01-11-23-35,10,44,0.6142414666854231,left,both,biased-switch,96,-5,left,right,0.199
SKL1994WRNO,2019-10-01-11-23-35,10,45,0.6913337482719458,right,probe,biased-switch,-1,40,left,left,0.159
SKL1994WRNO,2019-10-01-11-23-35,10,46,0.5222942452948058,right,both,biased-switch,100,40,left,left,0.256
SKL1994WRNO,2019-10-01-11-23-35,10,47,0.5257729435090618,left,probe,ambiguous-switch,-1,40,left,left,0.181
SKL1994WRNO,2019-10-01-11-23-35,10,48,0.6849937818545742,left,both,ambiguous-switch,91,40,left,left,0.142
SKL1994WRNO,2019-10-01-11-23-35,10,49,0.5303667475455601,right,probe,biased-switch,-1,-30,left,left,0.186
SKL1994WRNO,2019-10-01-11-23-35,10,50,0.678549365530295,right,both,biased-switch,109,-30,left,left,0.236
SKL1994WRNO,2019-10-01-11-23-35,10,51,0.5369337322756882,left,probe,ambiguous-switch,-1,0,left,left,0.202
SKL1994WRNO,2019-10-01-11-23-35,10,52,0.6637979267090575,left,both,ambiguous-switch,103,0,left,left,0.12
SKL1994WRNO,2019-10-01-11-23-35,10,53,0.5668133079228597,right,probe,biased-switch,-1,5,left,left,0.244
SKL1994WRNO,2019-10-01-11-23-35,10,54,0.604844011368786,right,both,biased-switch,97,5,left,left,0.279
SKL1994WRNO,2019-10-01-11-23-35,10,55,0.6572875114190952,right,probe,ambiguous-switch,-1,-5,left,left,0.116
SKL1994WRNO,2019-10-01-11-23-35,10,56,0.6764326060011262,right,both,ambiguous-switch,109,-5,left,left,0.186
SKL1994WRNO,2019-10-01-11-23-35,10,57,0.693442072088527,right,probe,ambiguous-switch,-1,-20,left,left,0.099
SKL1994WRNO,2019-10-01-11-23-35,10,58,0.539899562163414,right,both,ambiguous-switch,102,-20,left,left,0.18
SKL1994WRNO,2019-10-01-11-23-35,10,59,0.6693955838255086,right,probe,biased-switch,-1,20,left,left,0.3
SKL1994WRNO,2019-10-01-11-23-35,10,60,0.5536779661902573,right,both,biased-switch,102,20,left,left,0.216
SKL1994WRNO,2019-10-01-11-23-35,10,61,0.5493352897881246,right,probe,ambiguous-switch,-1,20,left,left,0.185
SKL1994WRNO,2019-10-01-11-23-35,10,62,0.5560897930050398,right,both,ambiguous-switch,97,20,left,left,0.25
SKL1994WRNO,2019-10-01-11-23-35,10,63,0.6980884397932012,left,probe,biased-switch,-1,10,left,left,0.209
SKL1994WRNO,2019-10-01-11-23-35,10,64,0.6572261288433847,left,both,biased-switch,108,10,left,right,0.03
SKL1994WRNO,2019-10-01-11-23-35,10,65,0.6289822650647557,right,probe,ambiguous-switch,-1,10,left,left,0.189
SKL1994WRNO,2019-10-01-11-23-35,10,66,0.6311033089540503,right,both,ambiguous-switch,93,10,left,left,0.22
SKL1994WRNO,2019-10-01-11-23-35,10,67,0.5856790990196136,right,probe,biased-switch,-1,30,left,left,0.109
SKL1994WRNO,2019-10-01-11-23-35,10,68,0.640731484998717,right,both,biased-switch,99,30,left,left,0.157
SKL1994WRNO,2019-10-01-11-23-35,10,69,0.6331341970866396,left,probe,ambiguous-switch,-1,-10,left,left,0.166
SKL1994WRNO,2019-10-01-11-23-35,10,70,0.536989919510811,left,both,ambiguous-switch,102,-10,left,right,0.167
SKL1994WRNO,2019-10-01-11-23-35,10,71,0.5915472413985582,right,probe,biased-switch,-1,0,left,left,0.199
SKL1994WRNO,2019-10-01-11-23-35,10,72,0.6117707536759147,right,both,biased-switch,95,0,left,left,0.213
SKL1994WRNO,2019-10-01-11-23-35,10,73,0.686393890948885,left,probe,biased-switch,-1,-10,right,right,0.244
SKL1994WRNO,2019-10-01-11-23-35,10,74,0.5166025223589568,left,both,biased-switch,110,-10,right,right,0.498
SKL1994WRNO,2019-10-01-11-23-35,10,75,0.5154119336000862,left,probe,ambiguous-switch,-1,5,right,right,0.305
SKL1994WRNO,2019-10-01-11-23-35,10,76,0.6957901340252285,left,both,ambiguous-switch,108,5,right,right,0.179
SKL1994WRNO,2019-10-01-11-23-35,10,77,0.5883476092872397,right,probe,biased-switch,-1,-20,left,left,0.141
SKL1994WRNO,2019-10-01-11-23-35,10,78,0.6218486413552956,right,both,biased-switch,96,-20,left,left,0.409
SKL1994WRNO,2019-10-01-11-23-35,10,79,0.6988673953283571,left,probe,ambiguous-switch,-1,-30,right,right,0.036
SKL1994WRNO,2019-10-01-11-23-35,10,80,0.5978045354384433,left,both,ambiguous-switch,110,-30,right,right,2.606
