Participant,Session,Block,Trial,OnsetDelay,ProbeLocation,WhatIsReported,Condition,TriggerTime,ProbeSOA,PrimeDirection,Response,RT
STA2000WRNO,2020-01-31-09-08-55,1,1,0.540433858676979,left,probe,ambiguous-stable,-1,12,left,left,3.01
STA2000WRNO,2020-01-31-09-08-55,1,2,0.5270343136857158,left,both,ambiguous-stable,58,12,right,left,0.61
STA2000WRNO,2020-01-31-09-08-55,1,3,0.5518438148742508,left,probe,biased-switch,-1,-12,left,left,0.652
STA2000WRNO,2020-01-31-09-08-55,1,4,0.5456917781481044,left,both,biased-switch,60,-12,left,right,0.419
STA2000WRNO,2020-01-31-09-08-55,1,5,0.5025155998744268,right,probe,ambiguous-switch,-1,0,left,left,0.775
STA2000WRNO,2020-01-31-09-08-55,1,6,0.5570138179278634,right,both,ambiguous-switch,64,0,left,left,0.487
STA2000WRNO,2020-01-31-09-08-55,1,7,0.5416569137458884,left,probe,ambiguous-switch,-1,-3,left,left,0.663
STA2000WRNO,2020-01-31-09-08-55,1,8,0.5775945461650693,left,both,ambiguous-switch,63,-3,left,left,0.282
STA2000WRNO,2020-01-31-09-08-55,1,9,0.6265897387629302,left,probe,ambiguous-switch,-1,6,left,left,0.563
STA2000WRNO,2020-01-31-09-08-55,1,10,0.620549272132072,left,both,ambiguous-switch,64,6,left,left,0.321
STA2000WRNO,2020-01-31-09-08-55,1,11,0.5576995602270041,right,probe,biased-switch,-1,6,left,left,0.583
STA2000WRNO,2020-01-31-09-08-55,1,12,0.5704416971128856,right,both,biased-switch,62,6,left,left,0.271
STA2000WRNO,2020-01-31-09-08-55,1,13,0.6824807335019445,left,probe,biased-switch,-1,-3,left,left,0.809
STA2000WRNO,2020-01-31-09-08-55,1,14,0.6604581842256481,left,both,biased-switch,58,-3,left,left,0.312
STA2000WRNO,2020-01-31-09-08-55,1,15,0.6418791811720251,left,probe,ambiguous-switch,-1,-6,left,left,0.459
STA2000WRNO,2020-01-31-09-08-55,1,16,0.5800936376881183,left,both,ambiguous-switch,64,-6,left,left,0.266
STA2000WRNO,2020-01-31-09-08-55,1,17,0.6502068641891525,right,probe,biased-switch,-1,0,left,left,0.488
STA2000WRNO,2020-01-31-09-08-55,1,18,0.6962996496517071,right,both,biased-switch,54,0,left,left,0.231
STA2000WRNO,2020-01-31-09-08-55,1,19,0.565954624658774,left,probe,biased-switch,-1,24,left,left,0.523
STA2000WRNO,2020-01-31-09-08-55,1,20,0.655912550409659,left,both,biased-switch,61,24,left,left,0.237
STA2000WRNO,2020-01-31-09-08-55,1,21,0.5300219339627421,right,probe,biased-switch,-1,-18,left,left,0.424
STA2000WRNO,2020-01-31-09-08-55,1,22,0.5652578385825574,right,both,biased-switch,64,-18,left,left,0.253
STA2000WRNO,2020-01-31-09-08-55,1,23,0.5072095441235576,left,probe,ambiguous-stable,-1,-3,left,left,0.505
STA2000WRNO,2020-01-31-09-08-55,1,24,0.5374367914541963,left,both,ambiguous-stable,65,-3,right,left,0.145
STA2000WRNO,2020-01-31-09-08-55,1,25,0.6058136871809794,right,probe,ambiguous-switch,-1,-18,left,left,0.591
STA2000WRNO,2020-01-31-09-08-55,1,26,0.5533789572799831,right,both,ambiguous-switch,61,-18,left,left,0.377
STA2000WRNO,2020-01-31-09-08-55,1,27,0.6276258025798953,right,probe,ambiguous-stable,-1,3,left,left,0.46
STA2000WRNO,2020-01-31-09-08-55,1,28,0.5486605514909398,right,both,ambiguous-stable,56,3,right,left,0.085
STA2000WRNO,2020-01-31-09-08-55,1,29,0.6160296796855512,right,probe,biased-switch,-1,18,left,left,0.354
STA2000WRNO,2020-01-31-09-08-55,1,30,0.5812385854107985,right,both,biased-switch,55,18,left,left,0.24
STA2000WRNO,2020-01-31-09-08-55,1,31,0.5242424748484125,right,probe,biased-switch,-1,12,left,left,0.694
STA2000WRNO,2020-01-31-09-08-55,1,32,0.6877081036080464,right,both,biased-switch,59,12,left,left,0.32
STA2000WRNO,2020-01-31-09-08-55,1,33,0.5949803049512585,right,probe,ambiguous-switch,-1,12,left,left,0.539
STA2000WRNO,2020-01-31-09-08-55,1,34,0.5732994931503929,right,both,ambiguous-switch,60,12,left,left,0.183
STA2000WRNO,2020-01-31-09-08-55,1,35,0.6145411446012451,left,probe,ambiguous-stable,-1,-18,left,left,0.982
STA2000WRNO,2020-01-31-09-08-55,1,36,0.6808375934794496,left,both,ambiguous-stable,59,-18,right,left,0.445
STA2000WRNO,2020-01-31-09-08-55,1,37,0.5454167709927651,right,probe,ambiguous-switch,-1,24,right,right,1.258
STA2000WRNO,2020-01-31-09-08-55,1,38,0.57889031792776,right,both,ambiguous-switch,58,24,right,left,0.332
STA2000WRNO,2020-01-31-09-08-55,1,39,0.5881169607205664,left,probe,ambiguous-switch,-1,18,left,left,0.453
STA2000WRNO,2020-01-31-09-08-55,1,40,0.5416765343012242,left,both,ambiguous-switch,57,18,left,left,0.251
STA2000WRNO,2020-01-31-09-08-55,1,41,0.5092316596617932,right,probe,ambiguous-stable,-1,-6,left,left,0.643
STA2000WRNO,2020-01-31-09-08-55,1,42,0.5221256462042559,right,both,ambiguous-stable,55,-6,right,left,0.291
STA2000WRNO,2020-01-31-09-08-55,1,43,0.5776871459856866,left,probe,ambiguous-stable,-1,0,left,left,0.852
STA2000WRNO,2020-01-31-09-08-55,1,44,0.6674826566129038,left,both,ambiguous-stable,59,0,right,left,0.275
STA2000WRNO,2020-01-31-09-08-55,1,45,0.6012334456178882,left,probe,biased-switch,-1,-6,left,left,0.474
STA2000WRNO,2020-01-31-09-08-55,1,46,0.6354687980565654,left,both,biased-switch,56,-6,left,left,0.296
STA2000WRNO,2020-01-31-09-08-55,1,47,0.5234815380083025,right,probe,ambiguous-stable,-1,-12,left,left,0.428
STA2000WRNO,2020-01-31-09-08-55,1,48,0.6440605755642983,right,both,ambiguous-stable,58,-12,right,left,0.188
STA2000WRNO,2020-01-31-09-08-55,1,49,0.5258776397607599,left,probe,ambiguous-stable,-1,24,left,left,0.561
STA2000WRNO,2020-01-31-09-08-55,1,50,0.5112297433085311,left,both,ambiguous-stable,65,24,right,left,0.195
STA2000WRNO,2020-01-31-09-08-55,1,51,0.5035706741686555,left,probe,ambiguous-stable,-1,6,left,left,0.346
STA2000WRNO,2020-01-31-09-08-55,1,52,0.531412888907416,left,both,ambiguous-stable,59,6,right,left,4.057
STA2000WRNO,2020-01-31-09-08-55,1,53,0.6642516444302309,left,probe,ambiguous-switch,-1,3,left,left,0.43
STA2000WRNO,2020-01-31-09-08-55,1,54,0.692375336241891,left,both,ambiguous-switch,64,3,left,left,0.294
STA2000WRNO,2020-01-31-09-08-55,1,55,0.5916291385146577,left,probe,ambiguous-switch,-1,-12,left,left,0.43
STA2000WRNO,2020-01-31-09-08-55,1,56,0.5751858357402309,left,both,ambiguous-switch,62,-12,left,left,0.292
STA2000WRNO,2020-01-31-09-08-55,1,57,0.6776224363648555,left,probe,ambiguous-stable,-1,18,left,left,0.465
STA2000WRNO,2020-01-31-09-08-55,1,58,0.6325050953121297,left,both,ambiguous-stable,58,18,right,left,0.332
STA2000WRNO,2020-01-31-09-08-55,1,59,0.6785744681020608,left,probe,biased-switch,-1,3,left,left,0.578
STA2000WRNO,2020-01-31-09-08-55,1,60,0.6185227527191549,left,both,biased-switch,56,3,left,left,0.357
STA2000WRNO,2020-01-31-09-08-55,2,1,0.5314803294924643,right,probe,ambiguous-stable,-1,-12,left,left,0.408
STA2000WRNO,2020-01-31-09-08-55,2,2,0.6896946700499994,right,both,ambiguous-stable,56,-12,right,right,5.186
STA2000WRNO,2020-01-31-09-08-55,2,3,0.6936862784326417,right,probe,ambiguous-switch,-1,12,right,right,0.51
STA2000WRNO,2020-01-31-09-08-55,2,4,0.5676541000626136,right,both,ambiguous-switch,58,12,right,right,0.319
STA2000WRNO,2020-01-31-09-08-55,2,5,0.5335003878762993,right,probe,ambiguous-stable,-1,0,right,right,0.423
STA2000WRNO,2020-01-31-09-08-55,2,6,0.5006267674559786,right,both,ambiguous-stable,61,0,left,right,0.241
STA2000WRNO,2020-01-31-09-08-55,2,7,0.5521827533960304,left,probe,biased-switch,-1,24,left,left,0.524
STA2000WRNO,2020-01-31-09-08-55,2,8,0.6988528022448711,left,both,biased-switch,63,24,left,left,0.405
STA2000WRNO,2020-01-31-09-08-55,2,9,0.6503391708271192,right,probe,ambiguous-switch,-1,-3,right,right,0.359
STA2000WRNO,2020-01-31-09-08-55,2,10,0.568101180696944,right,both,ambiguous-switch,61,-3,right,right,0.28
STA2000WRNO,2020-01-31-09-08-55,2,11,0.5153089294277964,right,probe,ambiguous-switch,-1,6,right,right,0.406
STA2000WRNO,2020-01-31-09-08-55,2,12,0.6291219284279854,right,both,ambiguous-switch,56,6,right,right,0.249
STA2000WRNO,2020-01-31-09-08-55,2,13,0.6946434174437501,left,probe,ambiguous-stable,-1,18,right,right,0.354
STA2000WRNO,2020-01-31-09-08-55,2,14,0.5730416527122639,left,both,ambiguous-stable,56,18,left,right,0.274
STA2000WRNO,2020-01-31-09-08-55,2,15,0.5529031613518183,left,probe,ambiguous-stable,-1,-18,right,right,0.34
STA2000WRNO,2020-01-31-09-08-55,2,16,0.6918962487486373,left,both,ambiguous-stable,57,-18,left,right,0.233
STA2000WRNO,2020-01-31-09-08-55,2,17,0.5682149508405844,right,probe,biased-switch,-1,6,right,right,0.322
STA2000WRNO,2020-01-31-09-08-55,2,18,0.6647349147453632,right,both,biased-switch,64,6,right,right,0.273
STA2000WRNO,2020-01-31-09-08-55,2,19,0.6191123717072348,right,probe,biased-switch,-1,0,right,right,0.343
STA2000WRNO,2020-01-31-09-08-55,2,20,0.6111184329639663,right,both,biased-switch,59,0,right,right,0.249
STA2000WRNO,2020-01-31-09-08-55,2,21,0.6947473295883091,right,probe,ambiguous-stable,-1,24,right,right,0.282
STA2000WRNO,2020-01-31-09-08-55,2,22,0.6292866621180095,right,both,ambiguous-stable,57,24,left,right,1.41
STA2000WRNO,2020-01-31-09-08-55,2,23,0.5595615770127397,right,probe,ambiguous-switch,-1,0,right,right,0.445
STA2000WRNO,2020-01-31-09-08-55,2,24,0.6152498260874711,right,both,ambiguous-switch,61,0,right,right,0.346
STA2000WRNO,2020-01-31-09-08-55,2,25,0.525366516269295,right,probe,biased-switch,-1,18,right,right,0.405
STA2000WRNO,2020-01-31-09-08-55,2,26,0.6040920292946517,right,both,biased-switch,54,18,right,right,0.273
STA2000WRNO,2020-01-31-09-08-55,2,27,0.5178291188625183,left,probe,ambiguous-stable,-1,6,right,right,0.421
STA2000WRNO,2020-01-31-09-08-55,2,28,0.5350046530006658,left,both,ambiguous-stable,55,6,left,right,0.271
STA2000WRNO,2020-01-31-09-08-55,2,29,0.6507734225097169,left,probe,ambiguous-stable,-1,3,right,right,0.384
STA2000WRNO,2020-01-31-09-08-55,2,30,0.5880688950173931,left,both,ambiguous-stable,55,3,left,right,0.319
STA2000WRNO,2020-01-31-09-08-55,2,31,0.5714944135957774,right,probe,biased-switch,-1,-18,right,right,0.615
STA2000WRNO,2020-01-31-09-08-55,2,32,0.6753837649190056,right,both,biased-switch,58,-18,right,right,0.291
STA2000WRNO,2020-01-31-09-08-55,2,33,0.5916771674751059,left,probe,ambiguous-switch,-1,24,right,right,0.491
STA2000WRNO,2020-01-31-09-08-55,2,34,0.6779440192212184,left,both,ambiguous-switch,62,24,right,right,0.328
STA2000WRNO,2020-01-31-09-08-55,2,35,0.5413286272268909,right,probe,ambiguous-stable,-1,-6,right,right,0.482
STA2000WRNO,2020-01-31-09-08-55,2,36,0.6188526720268481,right,both,ambiguous-stable,60,-6,left,right,0.368
STA2000WRNO,2020-01-31-09-08-55,2,37,0.5311014320616018,left,probe,biased-switch,-1,12,right,right,0.39
STA2000WRNO,2020-01-31-09-08-55,2,38,0.5098661790270975,left,both,biased-switch,59,12,right,right,0.29
STA2000WRNO,2020-01-31-09-08-55,2,39,0.6902612350028576,left,probe,ambiguous-stable,-1,-3,right,right,0.365
STA2000WRNO,2020-01-31-09-08-55,2,40,0.5250338523323559,left,both,ambiguous-stable,63,-3,left,right,0.28
STA2000WRNO,2020-01-31-09-08-55,2,41,0.5498359103715041,right,probe,biased-switch,-1,-6,right,right,0.369
STA2000WRNO,2020-01-31-09-08-55,2,42,0.5124814341639132,right,both,biased-switch,57,-6,right,right,0.254
STA2000WRNO,2020-01-31-09-08-55,2,43,0.5834679810418931,right,probe,biased-switch,-1,-3,right,right,0.419
STA2000WRNO,2020-01-31-09-08-55,2,44,0.5726788135933506,right,both,biased-switch,54,-3,right,right,0.279
STA2000WRNO,2020-01-31-09-08-55,2,45,0.6905091024541192,right,probe,ambiguous-switch,-1,-18,right,right,0.309
STA2000WRNO,2020-01-31-09-08-55,2,46,0.6698914280790559,right,both,ambiguous-switch,60,-18,right,right,0.307
STA2000WRNO,2020-01-31-09-08-55,2,47,0.593101250813614,right,probe,ambiguous-switch,-1,-12,right,right,0.36
STA2000WRNO,2020-01-31-09-08-55,2,48,0.6374677253314822,right,both,ambiguous-switch,58,-12,right,right,0.255
STA2000WRNO,2020-01-31-09-08-55,2,49,0.5209256914915061,left,probe,ambiguous-switch,-1,-6,right,right,0.383
STA2000WRNO,2020-01-31-09-08-55,2,50,0.5327760928753033,left,both,ambiguous-switch,62,-6,right,right,0.271
STA2000WRNO,2020-01-31-09-08-55,2,51,0.6515672157777507,left,probe,ambiguous-switch,-1,3,right,right,0.459
STA2000WRNO,2020-01-31-09-08-55,2,52,0.5322406751963036,left,both,ambiguous-switch,65,3,right,right,0.258
STA2000WRNO,2020-01-31-09-08-55,2,53,0.6950154510600496,right,probe,ambiguous-stable,-1,12,right,right,0.385
STA2000WRNO,2020-01-31-09-08-55,2,54,0.5576251681667224,right,both,ambiguous-stable,54,12,left,right,0.258
STA2000WRNO,2020-01-31-09-08-55,2,55,0.5850777714548013,right,probe,biased-switch,-1,-12,right,right,0.305
STA2000WRNO,2020-01-31-09-08-55,2,56,0.6191531297547289,right,both,biased-switch,60,-12,right,right,0.26
STA2000WRNO,2020-01-31-09-08-55,2,57,0.5668476381156505,left,probe,ambiguous-switch,-1,18,right,right,0.377
STA2000WRNO,2020-01-31-09-08-55,2,58,0.63792026332928,left,both,ambiguous-switch,58,18,right,right,0.803
STA2000WRNO,2020-01-31-09-08-55,2,59,0.5545650401513866,left,probe,biased-switch,-1,3,right,right,0.462
STA2000WRNO,2020-01-31-09-08-55,2,60,0.5804406404911405,left,both,biased-switch,59,3,right,right,0.308
STA2000WRNO,2020-01-31-09-08-55,3,1,0.6265984736763945,right,probe,ambiguous-stable,-1,24,right,right,2.009
STA2000WRNO,2020-01-31-09-08-55,3,2,0.6449814001285245,right,both,ambiguous-stable,59,24,left,right,1.195
STA2000WRNO,2020-01-31-09-08-55,3,3,0.600355994520003,right,probe,ambiguous-switch,-1,24,right,right,0.669
STA2000WRNO,2020-01-31-09-08-55,3,4,0.6880433181589232,right,both,ambiguous-switch,61,24,right,right,0.315
STA2000WRNO,2020-01-31-09-08-55,3,5,0.6021187263556955,left,probe,ambiguous-stable,-1,18,right,right,0.408
STA2000WRNO,2020-01-31-09-08-55,3,6,0.590853399759872,left,both,ambiguous-stable,56,18,left,right,0.289
STA2000WRNO,2020-01-31-09-08-55,3,7,0.6299855029663995,right,probe,ambiguous-stable,-1,3,right,right,0.364
STA2000WRNO,2020-01-31-09-08-55,3,8,0.6078798417910444,right,both,ambiguous-stable,59,3,left,right,0.32
STA2000WRNO,2020-01-31-09-08-55,3,9,0.5347306057312721,right,probe,biased-switch,-1,-3,right,right,0.384
STA2000WRNO,2020-01-31-09-08-55,3,10,0.6820939081913624,right,both,biased-switch,54,-3,right,right,0.291
STA2000WRNO,2020-01-31-09-08-55,3,11,0.5620163006714736,right,probe,ambiguous-stable,-1,-6,right,right,0.262
STA2000WRNO,2020-01-31-09-08-55,3,12,0.6922343714402172,right,both,ambiguous-stable,55,-6,left,right,0.225
STA2000WRNO,2020-01-31-09-08-55,3,13,0.679204726034135,right,probe,ambiguous-switch,-1,0,right,right,0.326
STA2000WRNO,2020-01-31-09-08-55,3,14,0.5623990750358554,right,both,ambiguous-switch,58,0,right,right,0.229
STA2000WRNO,2020-01-31-09-08-55,3,15,0.6085640818071802,right,probe,biased-switch,-1,-12,right,right,0.621
STA2000WRNO,2020-01-31-09-08-55,3,16,0.6975969795023816,right,both,biased-switch,61,-12,right,right,0.313
STA2000WRNO,2020-01-31-09-08-55,3,17,0.5801096380059663,left,probe,ambiguous-stable,-1,0,right,right,0.354
STA2000WRNO,2020-01-31-09-08-55,3,18,0.5658860579001097,left,both,ambiguous-stable,56,0,left,right,0.237
STA2000WRNO,2020-01-31-09-08-55,3,19,0.5603219041224103,right,probe,biased-switch,-1,-6,right,right,0.31
STA2000WRNO,2020-01-31-09-08-55,3,20,0.6449832352242042,right,both,biased-switch,64,-6,right,right,0.247
STA2000WRNO,2020-01-31-09-08-55,3,21,0.6833657006581456,left,probe,biased-switch,-1,0,right,right,0.38
STA2000WRNO,2020-01-31-09-08-55,3,22,0.5337890222943723,left,both,biased-switch,59,0,right,left,0.223
STA2000WRNO,2020-01-31-09-08-55,3,23,0.5027350000288204,left,probe,ambiguous-switch,-1,6,left,left,0.259
STA2000WRNO,2020-01-31-09-08-55,3,24,0.5484483728043418,left,both,ambiguous-switch,59,6,left,left,0.247
STA2000WRNO,2020-01-31-09-08-55,3,25,0.6832092329604076,right,probe,ambiguous-switch,-1,-18,right,right,0.318
STA2000WRNO,2020-01-31-09-08-55,3,26,0.553126995649345,right,both,ambiguous-switch,61,-18,right,right,0.272
STA2000WRNO,2020-01-31-09-08-55,3,27,0.6676116730901365,right,probe,ambiguous-stable,-1,-18,right,right,0.342
STA2000WRNO,2020-01-31-09-08-55,3,28,0.612322375692259,right,both,ambiguous-stable,66,-18,left,right,0.369
STA2000WRNO,2020-01-31-09-08-55,3,29,0.5686317642486289,right,probe,ambiguous-switch,-1,3,right,right,0.36
STA2000WRNO,2020-01-31-09-08-55,3,30,0.5575680218479716,right,both,ambiguous-switch,55,3,right,right,0.255
STA2000WRNO,2020-01-31-09-08-55,3,31,0.5422493169387712,right,probe,biased-switch,-1,-18,right,right,0.324
STA2000WRNO,2020-01-31-09-08-55,3,32,0.5938920735694491,right,both,biased-switch,64,-18,right,right,0.217
STA2000WRNO,2020-01-31-09-08-55,3,33,0.6158988213427821,left,probe,ambiguous-switch,-1,12,right,right,0.472
STA2000WRNO,2020-01-31-09-08-55,3,34,0.6758484305672334,left,both,ambiguous-switch,61,12,right,right,0.329
STA2000WRNO,2020-01-31-09-08-55,3,35,0.5066666870646318,left,probe,biased-switch,-1,3,right,right,2.057
STA2000WRNO,2020-01-31-09-08-55,3,36,0.5446591006613956,left,both,biased-switch,59,3,right,left,0.292
STA2000WRNO,2020-01-31-09-08-55,3,37,0.6142096343106054,left,probe,ambiguous-switch,-1,18,left,left,0.269
STA2000WRNO,2020-01-31-09-08-55,3,38,0.6828955079264517,left,both,ambiguous-switch,55,18,left,left,0.274
STA2000WRNO,2020-01-31-09-08-55,3,39,0.6816942680521607,left,probe,ambiguous-switch,-1,-6,left,left,0.298
STA2000WRNO,2020-01-31-09-08-55,3,40,0.6258736583322281,left,both,ambiguous-switch,57,-6,left,left,0.26
STA2000WRNO,2020-01-31-09-08-55,3,41,0.5329315092480319,right,probe,ambiguous-stable,-1,-12,right,right,0.395
STA2000WRNO,2020-01-31-09-08-55,3,42,0.5380781332065191,right,both,ambiguous-stable,54,-12,left,right,0.263
STA2000WRNO,2020-01-31-09-08-55,3,43,0.6726165302521323,left,probe,biased-switch,-1,18,left,left,0.23
STA2000WRNO,2020-01-31-09-08-55,3,44,0.6034044890042205,left,both,biased-switch,64,18,left,left,0.221
STA2000WRNO,2020-01-31-09-08-55,3,45,0.5948338403151064,right,probe,ambiguous-stable,-1,6,right,right,0.32
STA2000WRNO,2020-01-31-09-08-55,3,46,0.5324670619673029,right,both,ambiguous-stable,58,6,left,right,0.184
STA2000WRNO,2020-01-31-09-08-55,3,47,0.5922719660872227,right,probe,ambiguous-switch,-1,-12,right,right,0.288
STA2000WRNO,2020-01-31-09-08-55,3,48,0.6406379733391014,right,both,ambiguous-switch,63,-12,right,right,0.277
STA2000WRNO,2020-01-31-09-08-55,3,49,0.6410819411083432,right,probe,ambiguous-stable,-1,12,right,right,0.286
STA2000WRNO,2020-01-31-09-08-55,3,50,0.6065643428529904,right,both,ambiguous-stable,64,12,left,right,0.222
STA2000WRNO,2020-01-31-09-08-55,3,51,0.6103558065435544,left,probe,ambiguous-switch,-1,-3,left,left,0.355
STA2000WRNO,2020-01-31-09-08-55,3,52,0.6469746506154135,left,both,ambiguous-switch,64,-3,left,left,0.222
STA2000WRNO,2020-01-31-09-08-55,3,53,0.522551856558908,right,probe,biased-switch,-1,6,right,right,0.291
STA2000WRNO,2020-01-31-09-08-55,3,54,0.5731393983240085,right,both,biased-switch,61,6,right,left,0.034
STA2000WRNO,2020-01-31-09-08-55,3,55,0.5022858161276708,right,probe,biased-switch,-1,12,left,left,2.964
STA2000WRNO,2020-01-31-09-08-55,3,56,0.6409697223366632,right,both,biased-switch,66,12,left,right,0.235
STA2000WRNO,2020-01-31-09-08-55,3,57,0.5957212945970334,right,probe,ambiguous-stable,-1,-3,right,right,0.24
STA2000WRNO,2020-01-31-09-08-55,3,58,0.5060081636228618,right,both,ambiguous-stable,56,-3,left,right,0.21
STA2000WRNO,2020-01-31-09-08-55,3,59,0.5303650685464171,left,probe,biased-switch,-1,24,left,left,0.244
STA2000WRNO,2020-01-31-09-08-55,3,60,0.5033164824543076,left,both,biased-switch,59,24,left,left,0.211
STA2000WRNO,2020-01-31-09-08-55,4,1,0.6589341439098585,right,probe,ambiguous-stable,-1,24,left,left,0.299
STA2000WRNO,2020-01-31-09-08-55,4,2,0.6471311202494922,right,both,ambiguous-stable,58,24,right,left,0.267
STA2000WRNO,2020-01-31-09-08-55,4,3,0.5833468667894889,left,probe,biased-switch,-1,-3,left,left,0.285
STA2000WRNO,2020-01-31-09-08-55,4,4,0.5424257773437726,left,both,biased-switch,59,-3,left,left,0.223
STA2000WRNO,2020-01-31-09-08-55,4,5,0.5093751454205182,left,probe,biased-switch,-1,18,left,left,0.407
STA2000WRNO,2020-01-31-09-08-55,4,6,0.5312739533147391,left,both,biased-switch,66,18,left,left,0.226
STA2000WRNO,2020-01-31-09-08-55,4,7,0.6883764518765938,right,probe,ambiguous-switch,-1,-18,left,left,0.265
STA2000WRNO,2020-01-31-09-08-55,4,8,0.5096120980088822,right,both,ambiguous-switch,65,-18,left,left,0.709
STA2000WRNO,2020-01-31-09-08-55,4,9,0.6359538061764197,right,probe,ambiguous-switch,-1,-6,left,left,0.342
STA2000WRNO,2020-01-31-09-08-55,4,10,0.6337205835552624,right,both,ambiguous-switch,56,-6,left,left,0.309
STA2000WRNO,2020-01-31-09-08-55,4,11,0.6284707543618926,right,probe,biased-switch,-1,3,left,left,0.271
STA2000WRNO,2020-01-31-09-08-55,4,12,0.691700251756334,right,both,biased-switch,63,3,left,right,0.247
STA2000WRNO,2020-01-31-09-08-55,4,13,0.6496490017385085,left,probe,biased-switch,-1,12,left,left,0.265
STA2000WRNO,2020-01-31-09-08-55,4,14,0.6923306159343265,left,both,biased-switch,60,12,left,left,0.31
STA2000WRNO,2020-01-31-09-08-55,4,15,0.6678559901459822,right,probe,biased-switch,-1,-18,right,right,0.368
STA2000WRNO,2020-01-31-09-08-55,4,16,0.5714912427984554,right,both,biased-switch,56,-18,right,left,0.404
STA2000WRNO,2020-01-31-09-08-55,4,17,0.5331215163067338,left,probe,ambiguous-switch,-1,0,left,left,0.426
STA2000WRNO,2020-01-31-09-08-55,4,18,0.599099717144597,left,both,ambiguous-switch,58,0,left,left,1.011
STA2000WRNO,2020-01-31-09-08-55,4,19,0.6614367192197229,left,probe,ambiguous-stable,-1,-3,left,left,0.443
STA2000WRNO,2020-01-31-09-08-55,4,20,0.5008962421684627,left,both,ambiguous-stable,65,-3,right,left,0.253
STA2000WRNO,2020-01-31-09-08-55,4,21,0.5565925620628029,left,probe,biased-switch,-1,6,left,left,0.378
STA2000WRNO,2020-01-31-09-08-55,4,22,0.6233990150035483,left,both,biased-switch,61,6,left,left,0.228
STA2000WRNO,2020-01-31-09-08-55,4,23,0.5147936269946451,right,probe,ambiguous-switch,-1,-12,left,left,0.268
STA2000WRNO,2020-01-31-09-08-55,4,24,0.5193590866939922,right,both,ambiguous-switch,63,-12,left,left,0.28
STA2000WRNO,2020-01-31-09-08-55,4,25,0.5732581956593998,left,probe,biased-switch,-1,24,left,left,0.322
STA2000WRNO,2020-01-31-09-08-55,4,26,0.5731298412811976,left,both,biased-switch,58,24,left,left,0.244
STA2000WRNO,2020-01-31-09-08-55,4,27,0.5458678465730112,right,probe,ambiguous-switch,-1,18,left,left,0.236
STA2000WRNO,2020-01-31-09-08-55,4,28,0.5085555896061527,right,both,ambiguous-switch,61,18,left,left,0.241
STA2000WRNO,2020-01-31-09-08-55,4,29,0.6505794151746748,left,probe,ambiguous-stable,-1,12,left,left,0.307
STA2000WRNO,2020-01-31-09-08-55,4,30,0.6163215812722364,left,both,ambiguous-stable,60,12,right,left,0.247
STA2000WRNO,2020-01-31-09-08-55,4,31,0.692909867873369,right,probe,biased-switch,-1,-12,left,left,0.312
STA2000WRNO,2020-01-31-09-08-55,4,32,0.5680270047176565,right,both,biased-switch,56,-12,left,left,0.233
STA2000WRNO,2020-01-31-09-08-55,4,33,0.6797731197932573,right,probe,ambiguous-switch,-1,3,left,left,0.437
STA2000WRNO,2020-01-31-09-08-55,4,34,0.6506534703348543,right,both,ambiguous-switch,64,3,left,left,0.298
STA2000WRNO,2020-01-31-09-08-55,4,35,0.6727300082764915,left,probe,ambiguous-stable,-1,-18,left,left,0.312
STA2000WRNO,2020-01-31-09-08-55,4,36,0.6857917041718465,left,both,ambiguous-stable,55,-18,right,left,0.291
STA2000WRNO,2020-01-31-09-08-55,4,37,0.5579083759750392,right,probe,ambiguous-stable,-1,18,left,left,0.397
STA2000WRNO,2020-01-31-09-08-55,4,38,0.5670132476210831,right,both,ambiguous-stable,66,18,right,left,0.282
STA2000WRNO,2020-01-31-09-08-55,4,39,0.6430388565375009,right,probe,ambiguous-switch,-1,-3,left,left,0.287
STA2000WRNO,2020-01-31-09-08-55,4,40,0.6278024498920125,right,both,ambiguous-switch,61,-3,left,left,0.238
STA2000WRNO,2020-01-31-09-08-55,4,41,0.57033386309081,left,probe,biased-switch,-1,-6,left,left,0.37
STA2000WRNO,2020-01-31-09-08-55,4,42,0.5638846145136327,left,both,biased-switch,66,-6,left,left,0.194
STA2000WRNO,2020-01-31-09-08-55,4,43,0.5928939908093295,right,probe,ambiguous-stable,-1,-12,left,left,0.471
STA2000WRNO,2020-01-31-09-08-55,4,44,0.5426207092065505,right,both,ambiguous-stable,54,-12,right,left,0.27
STA2000WRNO,2020-01-31-09-08-55,4,45,0.5727660621184477,right,probe,ambiguous-stable,-1,-6,left,left,0.3
STA2000WRNO,2020-01-31-09-08-55,4,46,0.5409047792358944,right,both,ambiguous-stable,60,-6,right,left,0.292
STA2000WRNO,2020-01-31-09-08-55,4,47,0.5499068257699672,left,probe,ambiguous-stable,-1,6,right,right,0.253
STA2000WRNO,2020-01-31-09-08-55,4,48,0.5789659078234565,left,both,ambiguous-stable,65,6,left,right,0.204
STA2000WRNO,2020-01-31-09-08-55,4,49,0.5078452777392285,right,probe,ambiguous-switch,-1,12,left,left,0.293
STA2000WRNO,2020-01-31-09-08-55,4,50,0.6372032161422616,right,both,ambiguous-switch,57,12,left,left,0.257
STA2000WRNO,2020-01-31-09-08-55,4,51,0.653030880558105,left,probe,ambiguous-switch,-1,24,left,left,0.36
STA2000WRNO,2020-01-31-09-08-55,4,52,0.5421682914876641,left,both,ambiguous-switch,65,24,left,left,0.235
STA2000WRNO,2020-01-31-09-08-55,4,53,0.5784446742745517,right,probe,ambiguous-switch,-1,6,left,left,0.287
STA2000WRNO,2020-01-31-09-08-55,4,54,0.627636441061415,right,both,ambiguous-switch,59,6,left,left,0.295
STA2000WRNO,2020-01-31-09-08-55,4,55,0.6544812448058173,left,probe,ambiguous-stable,-1,0,left,left,0.331
STA2000WRNO,2020-01-31-09-08-55,4,56,0.5093320004335122,left,both,ambiguous-stable,66,0,right,left,0.281
STA2000WRNO,2020-01-31-09-08-55,4,57,0.5823085646169102,right,probe,biased-switch,-1,0,left,left,0.389
STA2000WRNO,2020-01-31-09-08-55,4,58,0.5299889384424447,right,both,biased-switch,64,0,left,right,0.212
STA2000WRNO,2020-01-31-09-08-55,4,59,0.674882593450002,left,probe,ambiguous-stable,-1,3,left,left,0.256
STA2000WRNO,2020-01-31-09-08-55,4,60,0.6994786466877249,left,both,ambiguous-stable,64,3,right,left,0.212
STA2000WRNO,2020-01-31-09-08-55,5,1,0.606153509668305,left,probe,ambiguous-switch,-1,3,left,left,0.258
STA2000WRNO,2020-01-31-09-08-55,5,2,0.5548326655487023,left,both,ambiguous-switch,65,3,left,left,0.232
STA2000WRNO,2020-01-31-09-08-55,5,3,0.5481433294206022,left,probe,ambiguous-switch,-1,24,left,left,0.265
STA2000WRNO,2020-01-31-09-08-55,5,4,0.6726697716549013,left,both,ambiguous-switch,58,24,left,left,0.311
STA2000WRNO,2020-01-31-09-08-55,5,5,0.5838962903164244,right,probe,ambiguous-switch,-1,18,left,left,0.321
STA2000WRNO,2020-01-31-09-08-55,5,6,0.5574498650399557,right,both,ambiguous-switch,61,18,left,left,0.239
STA2000WRNO,2020-01-31-09-08-55,5,7,0.6441139223304587,left,probe,ambiguous-stable,-1,0,left,left,0.251
STA2000WRNO,2020-01-31-09-08-55,5,8,0.66781061174425,left,both,ambiguous-stable,56,0,right,left,0.202
STA2000WRNO,2020-01-31-09-08-55,5,9,0.5177994214940466,left,probe,biased-switch,-1,-6,left,left,0.256
STA2000WRNO,2020-01-31-09-08-55,5,10,0.5649012990328344,left,both,biased-switch,59,-6,left,left,0.235
STA2000WRNO,2020-01-31-09-08-55,5,11,0.6577872065697076,right,probe,ambiguous-stable,-1,-6,left,left,0.315
STA2000WRNO,2020-01-31-09-08-55,5,12,0.6638803550633632,right,both,ambiguous-stable,59,-6,right,right,0.276
STA2000WRNO,2020-01-31-09-08-55,5,13,0.6153122954021085,left,probe,ambiguous-stable,-1,6,left,left,0.283
STA2000WRNO,2020-01-31-09-08-55,5,14,0.6019081948800156,left,both,ambiguous-stable,62,6,right,left,0.257
STA2000WRNO,2020-01-31-09-08-55,5,15,0.6129026213808658,right,probe,biased-switch,-1,-12,right,right,0.282
STA2000WRNO,2020-01-31-09-08-55,5,16,0.6951822746780352,right,both,biased-switch,60,-12,right,right,0.238
STA2000WRNO,2020-01-31-09-08-55,5,17,0.5576735189315553,left,probe,ambiguous-stable,-1,-12,left,left,0.303
STA2000WRNO,2020-01-31-09-08-55,5,18,0.6472386270964188,left,both,ambiguous-stable,54,-12,right,left,0.231
STA2000WRNO,2020-01-31-09-08-55,5,19,0.6039625154912264,left,probe,biased-switch,-1,12,left,left,0.263
STA2000WRNO,2020-01-31-09-08-55,5,20,0.5277218148123648,left,both,biased-switch,59,12,left,left,0.27
STA2000WRNO,2020-01-31-09-08-55,5,21,0.6605233435709083,left,probe,biased-switch,-1,0,left,left,0.362
STA2000WRNO,2020-01-31-09-08-55,5,22,0.5047755470660352,left,both,biased-switch,62,0,left,left,0.251
STA2000WRNO,2020-01-31-09-08-55,5,23,0.5334582479078495,right,probe,ambiguous-stable,-1,24,left,left,0.371
STA2000WRNO,2020-01-31-09-08-55,5,24,0.6658290688332493,right,both,ambiguous-stable,61,24,right,right,0.389
STA2000WRNO,2020-01-31-09-08-55,5,25,0.5987163562214574,right,probe,ambiguous-stable,-1,12,right,right,0.341
STA2000WRNO,2020-01-31-09-08-55,5,26,0.6119373315526837,right,both,ambiguous-stable,66,12,left,right,0.224
STA2000WRNO,2020-01-31-09-08-55,5,27,0.643155805612473,right,probe,ambiguous-switch,-1,-6,right,right,0.307
STA2000WRNO,2020-01-31-09-08-55,5,28,0.5583323559344199,right,both,ambiguous-switch,66,-6,right,right,0.257
STA2000WRNO,2020-01-31-09-08-55,5,29,0.6778942610429398,right,probe,ambiguous-switch,-1,0,right,right,0.342
STA2000WRNO,2020-01-31-09-08-55,5,30,0.6663597084909543,right,both,ambiguous-switch,56,0,right,right,0.301
STA2000WRNO,2020-01-31-09-08-55,5,31,0.671891908089005,left,probe,ambiguous-switch,-1,-12,right,right,0.269
STA2000WRNO,2020-01-31-09-08-55,5,32,0.5105186752441296,left,both,ambiguous-switch,63,-12,right,right,0.197
STA2000WRNO,2020-01-31-09-08-55,5,33,0.5936774696835686,left,probe,biased-switch,-1,24,right,right,0.262
STA2000WRNO,2020-01-31-09-08-55,5,34,0.561566311044253,left,both,biased-switch,63,24,right,right,0.257
STA2000WRNO,2020-01-31-09-08-55,5,35,0.644799084906121,left,probe,ambiguous-stable,-1,3,right,right,0.259
STA2000WRNO,2020-01-31-09-08-55,5,36,0.6480596271316147,left,both,ambiguous-stable,66,3,left,right,0.208
STA2000WRNO,2020-01-31-09-08-55,5,37,0.6723095294001272,left,probe,biased-switch,-1,18,right,right,0.308
STA2000WRNO,2020-01-31-09-08-55,5,38,0.549068796665286,left,both,biased-switch,65,18,right,right,0.289
STA2000WRNO,2020-01-31-09-08-55,5,39,0.6434866544154276,left,probe,ambiguous-switch,-1,-18,right,right,0.357
STA2000WRNO,2020-01-31-09-08-55,5,40,0.6252632506164403,left,both,ambiguous-switch,65,-18,right,right,0.233
STA2000WRNO,2020-01-31-09-08-55,5,41,0.6632287095595608,left,probe,ambiguous-stable,-1,-3,right,right,0.241
STA2000WRNO,2020-01-31-09-08-55,5,42,0.6048143552644378,left,both,ambiguous-stable,66,-3,left,right,0.2
STA2000WRNO,2020-01-31-09-08-55,5,43,0.6764993580116042,right,probe,ambiguous-switch,-1,6,right,right,0.315
STA2000WRNO,2020-01-31-09-08-55,5,44,0.5409408867637788,right,both,ambiguous-switch,59,6,right,right,0.211
STA2000WRNO,2020-01-31-09-08-55,5,45,0.6784710636631558,right,probe,ambiguous-stable,-1,18,right,right,0.838
STA2000WRNO,2020-01-31-09-08-55,5,46,0.6113451580893239,right,both,ambiguous-stable,57,18,left,right,0.298
STA2000WRNO,2020-01-31-09-08-55,5,47,0.6569863600499116,left,probe,ambiguous-switch,-1,12,right,right,0.367
STA2000WRNO,2020-01-31-09-08-55,5,48,0.5545791172847973,left,both,ambiguous-switch,62,12,right,right,0.256
STA2000WRNO,2020-01-31-09-08-55,5,49,0.6810124710512433,right,probe,biased-switch,-1,-18,right,right,0.332
STA2000WRNO,2020-01-31-09-08-55,5,50,0.6861531013801349,right,both,biased-switch,58,-18,right,right,0.319
STA2000WRNO,2020-01-31-09-08-55,5,51,0.65388053330429,left,probe,biased-switch,-1,6,right,right,0.406
STA2000WRNO,2020-01-31-09-08-55,5,52,0.5638811562588497,left,both,biased-switch,60,6,right,left,0.303
STA2000WRNO,2020-01-31-09-08-55,5,53,0.6841437795796949,right,probe,ambiguous-stable,-1,-18,right,right,0.284
STA2000WRNO,2020-01-31-09-08-55,5,54,0.6274676093776675,right,both,ambiguous-stable,63,-18,left,right,0.3
STA2000WRNO,2020-01-31-09-08-55,5,55,0.534855396281315,right,probe,biased-switch,-1,3,right,right,0.391
STA2000WRNO,2020-01-31-09-08-55,5,56,0.6065373761074647,right,both,biased-switch,56,3,right,right,0.224
STA2000WRNO,2020-01-31-09-08-55,5,57,0.5289488560232574,left,probe,ambiguous-switch,-1,-3,right,right,0.77
STA2000WRNO,2020-01-31-09-08-55,5,58,0.6164141292998814,left,both,ambiguous-switch,63,-3,right,right,0.24
STA2000WRNO,2020-01-31-09-08-55,5,59,0.6295669268608878,left,probe,biased-switch,-1,-3,right,right,0.358
STA2000WRNO,2020-01-31-09-08-55,5,60,0.6809501539893297,left,both,biased-switch,56,-3,right,right,0.603
STA2000WRNO,2020-01-31-09-08-55,6,1,0.6860629627416531,left,probe,ambiguous-switch,-1,0,right,right,0.413
STA2000WRNO,2020-01-31-09-08-55,6,2,0.6959386911736889,left,both,ambiguous-switch,55,0,right,left,0.222
STA2000WRNO,2020-01-31-09-08-55,6,3,0.5166189670621004,left,probe,ambiguous-stable,-1,-18,left,left,0.262
STA2000WRNO,2020-01-31-09-08-55,6,4,0.6306444880450216,left,both,ambiguous-stable,62,-18,right,right,0.128
STA2000WRNO,2020-01-31-09-08-55,6,5,0.5979408160157088,left,probe,biased-switch,-1,-12,left,left,0.347
STA2000WRNO,2020-01-31-09-08-55,6,6,0.609455765436724,left,both,biased-switch,58,-12,left,left,0.291
STA2000WRNO,2020-01-31-09-08-55,6,7,0.5981941821096255,left,probe,ambiguous-switch,-1,-18,left,left,0.288
STA2000WRNO,2020-01-31-09-08-55,6,8,0.5550349408238844,left,both,ambiguous-switch,61,-18,left,left,0.256
STA2000WRNO,2020-01-31-09-08-55,6,9,0.5576740428536289,right,probe,ambiguous-stable,-1,24,left,left,0.342
STA2000WRNO,2020-01-31-09-08-55,6,10,0.548034470122573,right,both,ambiguous-stable,63,24,right,left,0.267
STA2000WRNO,2020-01-31-09-08-55,6,11,0.672225721284727,right,probe,biased-switch,-1,18,left,left,0.244
STA2000WRNO,2020-01-31-09-08-55,6,12,0.5657750261230678,right,both,biased-switch,64,18,left,left,0.268
STA2000WRNO,2020-01-31-09-08-55,6,13,0.6005970500915369,left,probe,ambiguous-switch,-1,-12,left,left,0.35
STA2000WRNO,2020-01-31-09-08-55,6,14,0.5179956343488095,left,both,ambiguous-switch,59,-12,left,left,0.253
STA2000WRNO,2020-01-31-09-08-55,6,15,0.5592823778435677,left,probe,ambiguous-stable,-1,0,left,left,0.349
STA2000WRNO,2020-01-31-09-08-55,6,16,0.511314491771867,left,both,ambiguous-stable,56,0,right,left,0.255
STA2000WRNO,2020-01-31-09-08-55,6,17,0.5704707801426235,left,probe,ambiguous-stable,-1,-12,left,left,0.405
STA2000WRNO,2020-01-31-09-08-55,6,18,0.6424586515497236,left,both,ambiguous-stable,55,-12,right,left,0.238
STA2000WRNO,2020-01-31-09-08-55,6,19,0.5328039333953978,right,probe,biased-switch,-1,-6,right,right,0.346
STA2000WRNO,2020-01-31-09-08-55,6,20,0.5892638983226709,right,both,biased-switch,58,-6,right,right,0.229
STA2000WRNO,2020-01-31-09-08-55,6,21,0.6278599227680329,right,probe,ambiguous-switch,-1,-3,right,right,0.313
STA2000WRNO,2020-01-31-09-08-55,6,22,0.5883825429188351,right,both,ambiguous-switch,62,-3,right,right,0.257
STA2000WRNO,2020-01-31-09-08-55,6,23,0.5564935349133637,right,probe,biased-switch,-1,24,right,right,0.301
STA2000WRNO,2020-01-31-09-08-55,6,24,0.5792672663468309,right,both,biased-switch,65,24,right,right,0.285
STA2000WRNO,2020-01-31-09-08-55,6,25,0.6267171745972917,left,probe,ambiguous-switch,-1,24,right,right,0.311
STA2000WRNO,2020-01-31-09-08-55,6,26,0.6997016503860158,left,both,ambiguous-switch,61,24,right,left,2.279
STA2000WRNO,2020-01-31-09-08-55,6,27,0.64504308373666,right,probe,biased-switch,-1,6,right,right,0.351
STA2000WRNO,2020-01-31-09-08-55,6,28,0.5586751204031165,right,both,biased-switch,56,6,right,right,0.268
STA2000WRNO,2020-01-31-09-08-55,6,29,0.615379916839852,right,probe,ambiguous-stable,-1,-6,right,right,0.498
STA2000WRNO,2020-01-31-09-08-55,6,30,0.6855609932505139,right,both,ambiguous-stable,62,-6,left,right,0.3
STA2000WRNO,2020-01-31-09-08-55,6,31,0.6056913511181388,left,probe,ambiguous-switch,-1,12,left,left,0.31
STA2000WRNO,2020-01-31-09-08-55,6,32,0.5785280796585573,left,both,ambiguous-switch,59,12,left,left,0.191
STA2000WRNO,2020-01-31-09-08-55,6,33,0.5606947848166687,left,probe,ambiguous-switch,-1,-6,left,left,0.31
STA2000WRNO,2020-01-31-09-08-55,6,34,0.6282842703403754,left,both,ambiguous-switch,56,-6,left,left,0.252
STA2000WRNO,2020-01-31-09-08-55,6,35,0.6388472088463196,left,probe,ambiguous-stable,-1,3,left,left,0.289
STA2000WRNO,2020-01-31-09-08-55,6,36,0.5917913209220845,left,both,ambiguous-stable,64,3,right,left,0.214
STA2000WRNO,2020-01-31-09-08-55,6,37,0.6387276078793049,left,probe,ambiguous-switch,-1,18,left,left,0.246
STA2000WRNO,2020-01-31-09-08-55,6,38,0.5271814560915887,left,both,ambiguous-switch,63,18,left,left,0.228
STA2000WRNO,2020-01-31-09-08-55,6,39,0.6679284595176151,left,probe,ambiguous-stable,-1,-3,left,left,0.408
STA2000WRNO,2020-01-31-09-08-55,6,40,0.5533048446616379,left,both,ambiguous-stable,59,-3,right,left,0.392
STA2000WRNO,2020-01-31-09-08-55,6,41,0.6009604191607403,right,probe,ambiguous-stable,-1,18,right,right,0.432
STA2000WRNO,2020-01-31-09-08-55,6,42,0.5668416538996863,right,both,ambiguous-stable,60,18,left,right,0.326
STA2000WRNO,2020-01-31-09-08-55,6,43,0.5064026544819298,right,probe,biased-switch,-1,-3,right,right,0.42
STA2000WRNO,2020-01-31-09-08-55,6,44,0.5186240585309828,right,both,biased-switch,57,-3,right,right,0.346
STA2000WRNO,2020-01-31-09-08-55,6,45,0.6027591412626495,left,probe,biased-switch,-1,12,left,left,0.442
STA2000WRNO,2020-01-31-09-08-55,6,46,0.6493117728032785,left,both,biased-switch,61,12,left,left,0.236
STA2000WRNO,2020-01-31-09-08-55,6,47,0.5941854339830214,left,probe,ambiguous-switch,-1,3,left,left,0.273
STA2000WRNO,2020-01-31-09-08-55,6,48,0.6582993321241704,left,both,ambiguous-switch,64,3,left,left,0.275
STA2000WRNO,2020-01-31-09-08-55,6,49,0.5167088540947415,right,probe,biased-switch,-1,-18,right,right,0.348
STA2000WRNO,2020-01-31-09-08-55,6,50,0.5016202066923188,right,both,biased-switch,55,-18,right,right,0.309
STA2000WRNO,2020-01-31-09-08-55,6,51,0.5603203178821075,right,probe,biased-switch,-1,0,right,right,0.345
STA2000WRNO,2020-01-31-09-08-55,6,52,0.6075779752030414,right,both,biased-switch,64,0,right,right,0.272
STA2000WRNO,2020-01-31-09-08-55,6,53,0.6087510925617686,right,probe,ambiguous-stable,-1,12,right,right,0.404
STA2000WRNO,2020-01-31-09-08-55,6,54,0.5671650233194907,right,both,ambiguous-stable,58,12,left,right,0.276
STA2000WRNO,2020-01-31-09-08-55,6,55,0.5849400416813293,right,probe,ambiguous-switch,-1,6,right,right,0.279
STA2000WRNO,2020-01-31-09-08-55,6,56,0.5480731916548178,right,both,ambiguous-switch,56,6,right,right,0.259
STA2000WRNO,2020-01-31-09-08-55,6,57,0.6124757852889273,right,probe,biased-switch,-1,3,right,right,0.335
STA2000WRNO,2020-01-31-09-08-55,6,58,0.6456028744549711,right,both,biased-switch,63,3,right,right,0.312
STA2000WRNO,2020-01-31-09-08-55,6,59,0.6939564032937621,left,probe,ambiguous-stable,-1,6,right,right,0.352
STA2000WRNO,2020-01-31-09-08-55,6,60,0.6623637205542636,left,both,ambiguous-stable,58,6,left,right,0.282
STA2000WRNO,2020-01-31-09-08-55,7,1,0.5268304343376942,left,probe,ambiguous-switch,-1,-18,right,right,0.329
STA2000WRNO,2020-01-31-09-08-55,7,2,0.6295088292927175,left,both,ambiguous-switch,65,-18,right,right,0.3
STA2000WRNO,2020-01-31-09-08-55,7,3,0.6350128236042967,right,probe,ambiguous-stable,-1,18,right,right,0.258
STA2000WRNO,2020-01-31-09-08-55,7,4,0.5184926995863758,right,both,ambiguous-stable,55,18,left,right,0.223
STA2000WRNO,2020-01-31-09-08-55,7,5,0.6910799942478298,left,probe,ambiguous-stable,-1,-12,right,right,0.432
STA2000WRNO,2020-01-31-09-08-55,7,6,0.5075438380862628,left,both,ambiguous-stable,56,-12,left,right,0.222
STA2000WRNO,2020-01-31-09-08-55,7,7,0.5936714527762207,left,probe,biased-switch,-1,18,right,right,0.244
STA2000WRNO,2020-01-31-09-08-55,7,8,0.5084959671015161,left,both,biased-switch,61,18,right,right,0.686
STA2000WRNO,2020-01-31-09-08-55,7,9,0.5052412796420732,left,probe,biased-switch,-1,-3,right,right,0.489
STA2000WRNO,2020-01-31-09-08-55,7,10,0.6956455708792109,left,both,biased-switch,59,-3,right,right,0.266
STA2000WRNO,2020-01-31-09-08-55,7,11,0.5289636144662678,right,probe,biased-switch,-1,24,right,right,0.403
STA2000WRNO,2020-01-31-09-08-55,7,12,0.5155041012713616,right,both,biased-switch,62,24,right,right,0.269
STA2000WRNO,2020-01-31-09-08-55,7,13,0.5907309252049968,right,probe,ambiguous-stable,-1,6,right,right,0.29
STA2000WRNO,2020-01-31-09-08-55,7,14,0.5987441568242414,right,both,ambiguous-stable,59,6,left,right,0.289
STA2000WRNO,2020-01-31-09-08-55,7,15,0.5654000969073176,left,probe,ambiguous-switch,-1,12,right,right,0.359
STA2000WRNO,2020-01-31-09-08-55,7,16,0.5146169406222717,left,both,ambiguous-switch,64,12,right,left,0.254
STA2000WRNO,2020-01-31-09-08-55,7,17,0.5826410601769724,right,probe,ambiguous-stable,-1,12,right,right,0.347
STA2000WRNO,2020-01-31-09-08-55,7,18,0.5691494998573486,right,both,ambiguous-stable,60,12,left,right,0.231
STA2000WRNO,2020-01-31-09-08-55,7,19,0.5153335683641669,left,probe,biased-switch,-1,12,left,left,0.25
STA2000WRNO,2020-01-31-09-08-55,7,20,0.6001174193156305,left,both,biased-switch,55,12,left,left,0.244
STA2000WRNO,2020-01-31-09-08-55,7,21,0.6906475715990165,left,probe,ambiguous-switch,-1,6,left,left,0.359
STA2000WRNO,2020-01-31-09-08-55,7,22,0.5540636632205395,left,both,ambiguous-switch,62,6,left,right,0.228
STA2000WRNO,2020-01-31-09-08-55,7,23,0.5879157224240539,left,probe,ambiguous-stable,-1,3,right,right,0.261
STA2000WRNO,2020-01-31-09-08-55,7,24,0.6201593873593363,left,both,ambiguous-stable,56,3,left,right,0.25
STA2000WRNO,2020-01-31-09-08-55,7,25,0.6707568499980481,left,probe,biased-switch,-1,-12,right,right,0.265
STA2000WRNO,2020-01-31-09-08-55,7,26,0.5072583204008916,left,both,biased-switch,61,-12,right,right,0.252
STA2000WRNO,2020-01-31-09-08-55,7,27,0.5599789361815659,left,probe,ambiguous-switch,-1,-3,right,right,0.297
STA2000WRNO,2020-01-31-09-08-55,7,28,0.6662188002529192,left,both,ambiguous-switch,58,-3,right,right,0.234
STA2000WRNO,2020-01-31-09-08-55,7,29,0.638873767656785,right,probe,biased-switch,-1,3,right,right,0.374
STA2000WRNO,2020-01-31-09-08-55,7,30,0.6401097980867704,right,both,biased-switch,54,3,right,left,0.246
STA2000WRNO,2020-01-31-09-08-55,7,31,0.6248837701724197,left,probe,ambiguous-switch,-1,3,right,right,0.298
STA2000WRNO,2020-01-31-09-08-55,7,32,0.610967227313379,left,both,ambiguous-switch,61,3,right,right,0.228
STA2000WRNO,2020-01-31-09-08-55,7,33,0.6120300447281362,left,probe,ambiguous-stable,-1,-6,right,right,0.292
STA2000WRNO,2020-01-31-09-08-55,7,34,0.6013856154815725,left,both,ambiguous-stable,65,-6,left,right,0.273
STA2000WRNO,2020-01-31-09-08-55,7,35,0.5901781643920029,right,probe,biased-switch,-1,-6,left,left,0.314
STA2000WRNO,2020-01-31-09-08-55,7,36,0.6129998701103898,right,both,biased-switch,58,-6,left,left,0.227
STA2000WRNO,2020-01-31-09-08-55,7,37,0.6515375096867808,right,probe,ambiguous-stable,-1,-3,left,left,0.558
STA2000WRNO,2020-01-31-09-08-55,7,38,0.6949083369313904,right,both,ambiguous-stable,57,-3,right,left,0.233
STA2000WRNO,2020-01-31-09-08-55,7,39,0.6016965017197634,right,probe,biased-switch,-1,-18,left,left,0.273
STA2000WRNO,2020-01-31-09-08-55,7,40,0.6863117710229011,right,both,biased-switch,65,-18,left,left,0.233
STA2000WRNO,2020-01-31-09-08-55,7,41,0.6034027631622492,right,probe,ambiguous-switch,-1,-12,left,left,0.254
STA2000WRNO,2020-01-31-09-08-55,7,42,0.5960550633873851,right,both,ambiguous-switch,60,-12,left,left,0.169
STA2000WRNO,2020-01-31-09-08-55,7,43,0.5061624180091915,left,probe,ambiguous-stable,-1,24,left,left,0.906
STA2000WRNO,2020-01-31-09-08-55,7,44,0.5774848386632895,left,both,ambiguous-stable,62,24,right,left,0.223
STA2000WRNO,2020-01-31-09-08-55,7,45,0.5724509764641106,right,probe,biased-switch,-1,0,left,left,0.298
STA2000WRNO,2020-01-31-09-08-55,7,46,0.590937696114589,right,both,biased-switch,65,0,left,right,0.256
STA2000WRNO,2020-01-31-09-08-55,7,47,0.6017790143527871,left,probe,biased-switch,-1,6,left,left,0.274
STA2000WRNO,2020-01-31-09-08-55,7,48,0.6572739716437577,left,both,biased-switch,62,6,left,left,0.231
STA2000WRNO,2020-01-31-09-08-55,7,49,0.5813985573286119,right,probe,ambiguous-switch,-1,24,left,left,0.471
STA2000WRNO,2020-01-31-09-08-55,7,50,0.6333130243702206,right,both,ambiguous-switch,64,24,left,left,0.22
STA2000WRNO,2020-01-31-09-08-55,7,51,0.540405350040615,right,probe,ambiguous-stable,-1,0,left,left,0.24
STA2000WRNO,2020-01-31-09-08-55,7,52,0.6113270585578047,right,both,ambiguous-stable,58,0,right,left,0.231
STA2000WRNO,2020-01-31-09-08-55,7,53,0.6714362267313468,left,probe,ambiguous-stable,-1,-18,left,left,0.261
STA2000WRNO,2020-01-31-09-08-55,7,54,0.5594539392021316,left,both,ambiguous-stable,65,-18,right,left,0.207
STA2000WRNO,2020-01-31-09-08-55,7,55,0.5088752022895833,left,probe,ambiguous-switch,-1,0,left,left,0.272
STA2000WRNO,2020-01-31-09-08-55,7,56,0.6591625260076603,left,both,ambiguous-switch,61,0,left,left,0.248
STA2000WRNO,2020-01-31-09-08-55,7,57,0.680748086747542,right,probe,ambiguous-switch,-1,-6,left,left,0.258
STA2000WRNO,2020-01-31-09-08-55,7,58,0.571303123394797,right,both,ambiguous-switch,61,-6,left,left,0.18
STA2000WRNO,2020-01-31-09-08-55,7,59,0.6859259735368346,left,probe,ambiguous-switch,-1,18,left,left,0.223
STA2000WRNO,2020-01-31-09-08-55,7,60,0.6682381958340852,left,both,ambiguous-switch,59,18,left,left,0.286
STA2000WRNO,2020-01-31-09-08-55,8,1,0.5846734294098888,right,probe,biased-switch,-1,-3,left,left,0.23
STA2000WRNO,2020-01-31-09-08-55,8,2,0.5626550058036186,right,both,biased-switch,55,-3,left,left,0.265
STA2000WRNO,2020-01-31-09-08-55,8,3,0.5363509871728959,left,probe,ambiguous-switch,-1,-6,left,left,0.226
STA2000WRNO,2020-01-31-09-08-55,8,4,0.5897464141513065,left,both,ambiguous-switch,61,-6,left,left,0.21
STA2000WRNO,2020-01-31-09-08-55,8,5,0.6266088209149775,left,probe,biased-switch,-1,18,left,left,0.241
STA2000WRNO,2020-01-31-09-08-55,8,6,0.6680549049642222,left,both,biased-switch,66,18,left,left,0.232
STA2000WRNO,2020-01-31-09-08-55,8,7,0.6774157597438968,right,probe,ambiguous-stable,-1,-6,left,left,0.27
STA2000WRNO,2020-01-31-09-08-55,8,8,0.5978027393958788,right,both,ambiguous-stable,55,-6,right,left,0.246
STA2000WRNO,2020-01-31-09-08-55,8,9,0.5026686442274921,left,probe,ambiguous-switch,-1,-3,left,left,0.263
STA2000WRNO,2020-01-31-09-08-55,8,10,0.6172398978541064,left,both,ambiguous-switch,62,-3,left,left,0.221
STA2000WRNO,2020-01-31-09-08-55,8,11,0.6546343026901186,left,probe,biased-switch,-1,-6,left,left,0.228
STA2000WRNO,2020-01-31-09-08-55,8,12,0.5096048120321659,left,both,biased-switch,61,-6,left,left,0.215
STA2000WRNO,2020-01-31-09-08-55,8,13,0.6617375423674521,right,probe,biased-switch,-1,12,left,left,0.266
STA2000WRNO,2020-01-31-09-08-55,8,14,0.5489459648651795,right,both,biased-switch,56,12,left,left,0.245
STA2000WRNO,2020-01-31-09-08-55,8,15,0.5509970691541946,right,probe,biased-switch,-1,0,left,left,0.246
STA2000WRNO,2020-01-31-09-08-55,8,16,0.5899788501148983,right,both,biased-switch,65,0,left,right,0.21
STA2000WRNO,2020-01-31-09-08-55,8,17,0.6510225966065115,right,probe,ambiguous-switch,-1,12,left,left,0.238
STA2000WRNO,2020-01-31-09-08-55,8,18,0.5987623621636731,right,both,ambiguous-switch,58,12,left,left,0.202
STA2000WRNO,2020-01-31-09-08-55,8,19,0.5658275302972642,right,probe,ambiguous-stable,-1,6,left,left,0.308
STA2000WRNO,2020-01-31-09-08-55,8,20,0.6811850225631108,right,both,ambiguous-stable,56,6,right,left,0.108
STA2000WRNO,2020-01-31-09-08-55,8,21,0.5606696557689708,left,probe,ambiguous-stable,-1,24,left,left,0.234
STA2000WRNO,2020-01-31-09-08-55,8,22,0.5832224231383781,left,both,ambiguous-stable,56,24,right,left,0.204
STA2000WRNO,2020-01-31-09-08-55,8,23,0.6717627588818371,right,probe,ambiguous-stable,-1,-3,left,left,0.266
STA2000WRNO,2020-01-31-09-08-55,8,24,0.6052056778571767,right,both,ambiguous-stable,55,-3,right,right,0.217
STA2000WRNO,2020-01-31-09-08-55,8,25,0.6774737823529666,left,probe,biased-switch,-1,-18,right,right,0.248
STA2000WRNO,2020-01-31-09-08-55,8,26,0.5252177001586216,left,both,biased-switch,64,-18,right,right,0.024
STA2000WRNO,2020-01-31-09-08-55,8,27,0.5070486041200786,right,probe,biased-switch,-1,6,right,right,0.325
STA2000WRNO,2020-01-31-09-08-55,8,28,0.5074688030827377,right,both,biased-switch,55,6,right,right,0.218
STA2000WRNO,2020-01-31-09-08-55,8,29,0.6356345506989673,right,probe,ambiguous-stable,-1,0,right,right,0.278
STA2000WRNO,2020-01-31-09-08-55,8,30,0.6890639042949438,right,both,ambiguous-stable,56,0,left,right,0.22
STA2000WRNO,2020-01-31-09-08-55,8,31,0.6815690236563144,left,probe,biased-switch,-1,-12,right,right,0.261
STA2000WRNO,2020-01-31-09-08-55,8,32,0.6873056893513357,left,both,biased-switch,61,-12,right,right,0.243
STA2000WRNO,2020-01-31-09-08-55,8,33,0.5713695490893878,left,probe,ambiguous-stable,-1,12,right,right,0.246
STA2000WRNO,2020-01-31-09-08-55,8,34,0.5719378469949621,left,both,ambiguous-stable,58,12,left,right,0.208
STA2000WRNO,2020-01-31-09-08-55,8,35,0.5650693325420172,left,probe,ambiguous-switch,-1,-18,right,right,0.271
STA2000WRNO,2020-01-31-09-08-55,8,36,0.5755180030463657,left,both,ambiguous-switch,63,-18,right,right,0.237
STA2000WRNO,2020-01-31-09-08-55,8,37,0.6888664313295159,left,probe,ambiguous-switch,-1,18,right,right,0.235
STA2000WRNO,2020-01-31-09-08-55,8,38,0.6251941050133949,left,both,ambiguous-switch,62,18,right,right,0.247
STA2000WRNO,2020-01-31-09-08-55,8,39,0.5008785552639736,left,probe,ambiguous-stable,-1,3,right,right,0.422
STA2000WRNO,2020-01-31-09-08-55,8,40,0.6403052315945299,left,both,ambiguous-stable,58,3,left,right,0.221
STA2000WRNO,2020-01-31-09-08-55,8,41,0.6471570280931261,right,probe,ambiguous-switch,-1,-12,right,right,0.284
STA2000WRNO,2020-01-31-09-08-55,8,42,0.5953316943404601,right,both,ambiguous-switch,66,-12,right,right,0.211
STA2000WRNO,2020-01-31-09-08-55,8,43,0.5953388876767561,left,probe,biased-switch,-1,24,right,right,0.391
STA2000WRNO,2020-01-31-09-08-55,8,44,0.5000893892343323,left,both,biased-switch,55,24,right,right,0.207
STA2000WRNO,2020-01-31-09-08-55,8,45,0.5744638674423413,right,probe,ambiguous-switch,-1,0,right,right,0.263
STA2000WRNO,2020-01-31-09-08-55,8,46,0.581866216524773,right,both,ambiguous-switch,65,0,right,right,0.474
STA2000WRNO,2020-01-31-09-08-55,8,47,0.6334948462358783,left,probe,ambiguous-switch,-1,24,right,right,0.327
STA2000WRNO,2020-01-31-09-08-55,8,48,0.5272123361991711,left,both,ambiguous-switch,64,24,right,right,0.268
STA2000WRNO,2020-01-31-09-08-55,8,49,0.5076007277343576,right,probe,ambiguous-switch,-1,3,right,right,0.28
STA2000WRNO,2020-01-31-09-08-55,8,50,0.581590259627663,right,both,ambiguous-switch,59,3,right,right,0.218
STA2000WRNO,2020-01-31-09-08-55,8,51,0.6257449822400477,left,probe,ambiguous-stable,-1,18,right,right,0.272
STA2000WRNO,2020-01-31-09-08-55,8,52,0.565248339749277,left,both,ambiguous-stable,60,18,left,right,0.226
STA2000WRNO,2020-01-31-09-08-55,8,53,0.661196864943297,right,probe,ambiguous-stable,-1,-18,right,right,0.244
STA2000WRNO,2020-01-31-09-08-55,8,54,0.6633356872710175,right,both,ambiguous-stable,62,-18,left,left,0.22
STA2000WRNO,2020-01-31-09-08-55,8,55,0.5731772341398894,right,probe,biased-switch,-1,3,right,right,0.308
STA2000WRNO,2020-01-31-09-08-55,8,56,0.5482151653709213,right,both,biased-switch,65,3,right,left,0.232
STA2000WRNO,2020-01-31-09-08-55,8,57,0.6832912772189061,right,probe,ambiguous-stable,-1,-12,right,right,0.279
STA2000WRNO,2020-01-31-09-08-55,8,58,0.5921769387601943,right,both,ambiguous-stable,59,-12,left,right,0.237
STA2000WRNO,2020-01-31-09-08-55,8,59,0.6587836001550921,right,probe,ambiguous-switch,-1,6,right,right,0.303
STA2000WRNO,2020-01-31-09-08-55,8,60,0.5821536639646454,right,both,ambiguous-switch,62,6,right,right,0.246
STA2000WRNO,2020-01-31-09-08-55,9,1,0.5568994573520939,left,probe,biased-switch,-1,3,right,right,0.277
STA2000WRNO,2020-01-31-09-08-55,9,2,0.6112065916502177,left,both,biased-switch,56,3,right,left,0.239
STA2000WRNO,2020-01-31-09-08-55,9,3,0.5275781298215351,right,probe,ambiguous-stable,-1,-3,right,right,0.265
STA2000WRNO,2020-01-31-09-08-55,9,4,0.6710818794353597,right,both,ambiguous-stable,63,-3,left,right,0.207
STA2000WRNO,2020-01-31-09-08-55,9,5,0.6122748642260661,right,probe,biased-switch,-1,-3,right,right,0.291
STA2000WRNO,2020-01-31-09-08-55,9,6,0.6681288222605786,right,both,biased-switch,57,-3,right,right,0.241
STA2000WRNO,2020-01-31-09-08-55,9,7,0.548201968565686,left,probe,ambiguous-switch,-1,-12,right,right,0.273
STA2000WRNO,2020-01-31-09-08-55,9,8,0.5363959264572267,left,both,ambiguous-switch,61,-12,right,right,0.256
STA2000WRNO,2020-01-31-09-08-55,9,9,0.6218627001013731,right,probe,ambiguous-switch,-1,18,right,right,0.334
STA2000WRNO,2020-01-31-09-08-55,9,10,0.5919251774524381,right,both,ambiguous-switch,62,18,right,right,0.197
STA2000WRNO,2020-01-31-09-08-55,9,11,0.6184854743311432,right,probe,ambiguous-stable,-1,12,right,right,0.339
STA2000WRNO,2020-01-31-09-08-55,9,12,0.6278217580898933,right,both,ambiguous-stable,58,12,left,right,0.223
STA2000WRNO,2020-01-31-09-08-55,9,13,0.5126643625306706,right,probe,ambiguous-switch,-1,3,right,right,0.355
STA2000WRNO,2020-01-31-09-08-55,9,14,0.6961330553675655,right,both,ambiguous-switch,61,3,right,right,0.257
STA2000WRNO,2020-01-31-09-08-55,9,15,0.5216902268959218,right,probe,ambiguous-switch,-1,24,right,right,0.449
STA2000WRNO,2020-01-31-09-08-55,9,16,0.6186145841269606,right,both,ambiguous-switch,60,24,right,right,0.327
STA2000WRNO,2020-01-31-09-08-55,9,17,0.5028590270626715,left,probe,ambiguous-stable,-1,-6,right,right,0.299
STA2000WRNO,2020-01-31-09-08-55,9,18,0.5254154590371746,left,both,ambiguous-stable,62,-6,left,right,0.301
STA2000WRNO,2020-01-31-09-08-55,9,19,0.6156562800690702,right,probe,ambiguous-stable,-1,3,right,right,0.299
STA2000WRNO,2020-01-31-09-08-55,9,20,0.5928225398899263,right,both,ambiguous-stable,60,3,left,right,0.207
STA2000WRNO,2020-01-31-09-08-55,9,21,0.6966052918332388,right,probe,ambiguous-switch,-1,12,right,right,0.219
STA2000WRNO,2020-01-31-09-08-55,9,22,0.6548546647312007,right,both,ambiguous-switch,64,12,right,right,0.188
STA2000WRNO,2020-01-31-09-08-55,9,23,0.623274242210844,right,probe,ambiguous-stable,-1,-18,right,right,0.287
STA2000WRNO,2020-01-31-09-08-55,9,24,0.5283712625502033,right,both,ambiguous-stable,66,-18,left,right,0.236
STA2000WRNO,2020-01-31-09-08-55,9,25,0.5584400187036817,left,probe,ambiguous-stable,-1,-12,left,left,0.265
STA2000WRNO,2020-01-31-09-08-55,9,26,0.6897588088441836,left,both,ambiguous-stable,55,-12,right,left,0.232
STA2000WRNO,2020-01-31-09-08-55,9,27,0.5744411263746347,right,probe,ambiguous-switch,-1,0,right,right,0.262
STA2000WRNO,2020-01-31-09-08-55,9,28,0.5642609268105618,right,both,ambiguous-switch,58,0,right,right,0.228
STA2000WRNO,2020-01-31-09-08-55,9,29,0.6953801816069953,left,probe,ambiguous-stable,-1,0,left,left,0.334
STA2000WRNO,2020-01-31-09-08-55,9,30,0.5785173535449722,left,both,ambiguous-stable,57,0,right,left,0.308
STA2000WRNO,2020-01-31-09-08-55,9,31,0.6321666055870775,right,probe,biased-switch,-1,18,right,right,0.313
STA2000WRNO,2020-01-31-09-08-55,9,32,0.5550049613000505,right,both,biased-switch,62,18,right,right,0.242
STA2000WRNO,2020-01-31-09-08-55,9,33,0.6410036246036752,right,probe,biased-switch,-1,24,right,right,0.228
STA2000WRNO,2020-01-31-09-08-55,9,34,0.5739674786233023,right,both,biased-switch,66,24,right,right,0.223
STA2000WRNO,2020-01-31-09-08-55,9,35,0.6699839522261569,right,probe,biased-switch,-1,6,right,right,0.235
STA2000WRNO,2020-01-31-09-08-55,9,36,0.679723605402623,right,both,biased-switch,65,6,right,right,0.221
STA2000WRNO,2020-01-31-09-08-55,9,37,0.6842640448107654,left,probe,ambiguous-switch,-1,6,right,right,0.299
STA2000WRNO,2020-01-31-09-08-55,9,38,0.6762858202591,left,both,ambiguous-switch,56,6,right,left,0.223
STA2000WRNO,2020-01-31-09-08-55,9,39,0.559663119048003,right,probe,biased-switch,-1,12,right,right,0.297
STA2000WRNO,2020-01-31-09-08-55,9,40,0.6540405571631934,right,both,biased-switch,60,12,right,right,0.164
STA2000WRNO,2020-01-31-09-08-55,9,41,0.6187069597077853,right,probe,biased-switch,-1,0,right,right,0.245
STA2000WRNO,2020-01-31-09-08-55,9,42,0.5648269253135528,right,both,biased-switch,61,0,right,right,0.245
STA2000WRNO,2020-01-31-09-08-55,9,43,0.5877089036239598,left,probe,biased-switch,-1,-6,left,left,0.248
STA2000WRNO,2020-01-31-09-08-55,9,44,0.581512404040214,left,both,biased-switch,55,-6,left,left,0.192
STA2000WRNO,2020-01-31-09-08-55,9,45,0.5728187622185499,left,probe,ambiguous-stable,-1,6,left,left,0.223
STA2000WRNO,2020-01-31-09-08-55,9,46,0.6413829385302856,left,both,ambiguous-stable,63,6,right,left,0.203
STA2000WRNO,2020-01-31-09-08-55,9,47,0.6533826485228398,right,probe,ambiguous-switch,-1,-6,right,right,0.239
STA2000WRNO,2020-01-31-09-08-55,9,48,0.6576159884457997,right,both,ambiguous-switch,58,-6,right,right,0.858
STA2000WRNO,2020-01-31-09-08-55,9,49,0.6831851356754864,right,probe,biased-switch,-1,-18,right,right,0.311
STA2000WRNO,2020-01-31-09-08-55,9,50,0.5725718320771699,right,both,biased-switch,59,-18,right,right,0.213
STA2000WRNO,2020-01-31-09-08-55,9,51,0.522785572101275,right,probe,ambiguous-switch,-1,-3,right,right,0.221
STA2000WRNO,2020-01-31-09-08-55,9,52,0.6731760185619257,right,both,ambiguous-switch,56,-3,right,right,0.218
STA2000WRNO,2020-01-31-09-08-55,9,53,0.5699851268483668,right,probe,biased-switch,-1,-12,right,right,0.303
STA2000WRNO,2020-01-31-09-08-55,9,54,0.5749803445643364,right,both,biased-switch,61,-12,right,right,0.226
STA2000WRNO,2020-01-31-09-08-55,9,55,0.6198452222793701,left,probe,ambiguous-switch,-1,-18,right,right,0.474
STA2000WRNO,2020-01-31-09-08-55,9,56,0.6202593487548762,left,both,ambiguous-switch,61,-18,right,right,0.209
STA2000WRNO,2020-01-31-09-08-55,9,57,0.6435183475108146,right,probe,ambiguous-stable,-1,18,right,right,0.245
STA2000WRNO,2020-01-31-09-08-55,9,58,0.578983474544023,right,both,ambiguous-stable,64,18,left,right,0.245
STA2000WRNO,2020-01-31-09-08-55,9,59,0.6132899968501351,left,probe,ambiguous-stable,-1,24,right,right,0.203
STA2000WRNO,2020-01-31-09-08-55,9,60,0.5442210114708524,left,both,ambiguous-stable,54,24,left,right,0.324
STA2000WRNO,2020-01-31-09-08-55,10,1,0.5061983337638407,left,probe,biased-switch,-1,6,right,right,0.567
STA2000WRNO,2020-01-31-09-08-55,10,2,0.699747881817887,left,both,biased-switch,64,6,right,right,0.216
STA2000WRNO,2020-01-31-09-08-55,10,3,0.5791011503860373,left,probe,ambiguous-switch,-1,6,right,right,0.247
STA2000WRNO,2020-01-31-09-08-55,10,4,0.5825966230104416,left,both,ambiguous-switch,61,6,right,right,0.175
STA2000WRNO,2020-01-31-09-08-55,10,5,0.5479575940974435,right,probe,ambiguous-switch,-1,18,right,right,0.297
STA2000WRNO,2020-01-31-09-08-55,10,6,0.6388893445470308,right,both,ambiguous-switch,62,18,right,right,0.215
STA2000WRNO,2020-01-31-09-08-55,10,7,0.6677561308381139,right,probe,biased-switch,-1,-3,right,right,0.216
STA2000WRNO,2020-01-31-09-08-55,10,8,0.5391712550747962,right,both,biased-switch,62,-3,right,right,0.251
STA2000WRNO,2020-01-31-09-08-55,10,9,0.5897081957092116,right,probe,biased-switch,-1,18,right,right,0.25
STA2000WRNO,2020-01-31-09-08-55,10,10,0.5420396352317849,right,both,biased-switch,64,18,right,right,0.166
STA2000WRNO,2020-01-31-09-08-55,10,11,0.5100823153919418,left,probe,ambiguous-stable,-1,24,right,right,0.251
STA2000WRNO,2020-01-31-09-08-55,10,12,0.5752162148428813,left,both,ambiguous-stable,60,24,left,right,0.197
STA2000WRNO,2020-01-31-09-08-55,10,13,0.5608391414086434,right,probe,ambiguous-switch,-1,3,right,right,0.24
STA2000WRNO,2020-01-31-09-08-55,10,14,0.5289045727332303,right,both,ambiguous-switch,65,3,right,left,0.082
STA2000WRNO,2020-01-31-09-08-55,10,15,0.6841530105357648,left,probe,ambiguous-switch,-1,0,right,right,0.302
STA2000WRNO,2020-01-31-09-08-55,10,16,0.5536331303498248,left,both,ambiguous-switch,63,0,right,right,0.288
STA2000WRNO,2020-01-31-09-08-55,10,17,0.6669997465729508,right,probe,ambiguous-stable,-1,-18,right,right,0.333
STA2000WRNO,2020-01-31-09-08-55,10,18,0.6783348749063592,right,both,ambiguous-stable,57,-18,left,left,0.205
STA2000WRNO,2020-01-31-09-08-55,10,19,0.613288927684472,right,probe,ambiguous-stable,-1,0,left,left,0.179
STA2000WRNO,2020-01-31-09-08-55,10,20,0.5015147807672883,right,both,ambiguous-stable,63,0,right,left,0.991
STA2000WRNO,2020-01-31-09-08-55,10,21,0.5960380611182778,left,probe,biased-switch,-1,-18,right,right,0.288
STA2000WRNO,2020-01-31-09-08-55,10,22,0.5405719553491528,left,both,biased-switch,64,-18,right,right,0.218
STA2000WRNO,2020-01-31-09-08-55,10,23,0.6852007535643316,right,probe,ambiguous-stable,-1,3,right,right,0.293
STA2000WRNO,2020-01-31-09-08-55,10,24,0.6119566754561876,right,both,ambiguous-stable,65,3,left,left,0.286
STA2000WRNO,2020-01-31-09-08-55,10,25,0.6940554640639811,right,probe,ambiguous-stable,-1,6,left,left,0.231
STA2000WRNO,2020-01-31-09-08-55,10,26,0.6345108799450487,right,both,ambiguous-stable,66,6,right,left,0.197
STA2000WRNO,2020-01-31-09-08-55,10,27,0.6496385745419816,right,probe,ambiguous-switch,-1,-12,left,left,0.218
STA2000WRNO,2020-01-31-09-08-55,10,28,0.5253776901358361,right,both,ambiguous-switch,64,-12,left,left,0.184
STA2000WRNO,2020-01-31-09-08-55,10,29,0.5218114219366337,right,probe,biased-switch,-1,0,left,left,0.64
STA2000WRNO,2020-01-31-09-08-55,10,30,0.579172277589118,right,both,biased-switch,57,0,left,left,0.566
STA2000WRNO,2020-01-31-09-08-55,10,31,0.564702177395638,right,probe,biased-switch,-1,-12,left,left,0.403
STA2000WRNO,2020-01-31-09-08-55,10,32,0.5672551144237223,right,both,biased-switch,61,-12,left,left,0.218
STA2000WRNO,2020-01-31-09-08-55,10,33,0.5095830021272476,left,probe,biased-switch,-1,3,left,left,0.394
STA2000WRNO,2020-01-31-09-08-55,10,34,0.554897161472796,left,both,biased-switch,61,3,left,left,0.223
STA2000WRNO,2020-01-31-09-08-55,10,35,0.5122051814109659,right,probe,ambiguous-switch,-1,-18,left,left,0.238
STA2000WRNO,2020-01-31-09-08-55,10,36,0.6540870580218573,right,both,ambiguous-switch,60,-18,left,left,0.214
STA2000WRNO,2020-01-31-09-08-55,10,37,0.5369052273180276,left,probe,ambiguous-stable,-1,-3,left,left,0.365
STA2000WRNO,2020-01-31-09-08-55,10,38,0.6423095102370942,left,both,ambiguous-stable,59,-3,right,left,0.222
STA2000WRNO,2020-01-31-09-08-55,10,39,0.5188040721293035,left,probe,biased-switch,-1,12,left,left,0.2
STA2000WRNO,2020-01-31-09-08-55,10,40,0.6447250810221327,left,both,biased-switch,55,12,left,left,0.221
STA2000WRNO,2020-01-31-09-08-55,10,41,0.6488045112625711,right,probe,biased-switch,-1,24,left,left,0.211
STA2000WRNO,2020-01-31-09-08-55,10,42,0.6530949037373269,right,both,biased-switch,60,24,left,left,0.773
STA2000WRNO,2020-01-31-09-08-55,10,43,0.531163208129364,left,probe,ambiguous-stable,-1,18,left,left,0.401
STA2000WRNO,2020-01-31-09-08-55,10,44,0.5381572066944069,left,both,ambiguous-stable,63,18,right,left,0.224
STA2000WRNO,2020-01-31-09-08-55,10,45,0.5010056853253111,right,probe,biased-switch,-1,-6,left,left,0.31
STA2000WRNO,2020-01-31-09-08-55,10,46,0.6428339521737787,right,both,biased-switch,66,-6,left,left,0.23
STA2000WRNO,2020-01-31-09-08-55,10,47,0.5764514577444255,left,probe,ambiguous-stable,-1,-12,left,left,0.341
STA2000WRNO,2020-01-31-09-08-55,10,48,0.5000117278661982,left,both,ambiguous-stable,54,-12,right,left,0.226
STA2000WRNO,2020-01-31-09-08-55,10,49,0.595111125196303,right,probe,ambiguous-stable,-1,12,left,left,0.266
STA2000WRNO,2020-01-31-09-08-55,10,50,0.5766567345773617,right,both,ambiguous-stable,54,12,right,left,0.226
STA2000WRNO,2020-01-31-09-08-55,10,51,0.6874306815189652,left,probe,ambiguous-switch,-1,24,left,left,0.336
STA2000WRNO,2020-01-31-09-08-55,10,52,0.6688215738326635,left,both,ambiguous-switch,65,24,left,left,0.234
STA2000WRNO,2020-01-31-09-08-55,10,53,0.5885644485925382,left,probe,ambiguous-switch,-1,12,left,left,0.682
STA2000WRNO,2020-01-31-09-08-55,10,54,0.6860469008225227,left,both,ambiguous-switch,57,12,left,left,0.429
STA2000WRNO,2020-01-31-09-08-55,10,55,0.5637503322472188,right,probe,ambiguous-switch,-1,-6,left,left,0.266
STA2000WRNO,2020-01-31-09-08-55,10,56,0.6041012270755918,right,both,ambiguous-switch,56,-6,left,left,0.216
STA2000WRNO,2020-01-31-09-08-55,10,57,0.6400924371230895,left,probe,ambiguous-stable,-1,-6,left,left,0.225
STA2000WRNO,2020-01-31-09-08-55,10,58,0.5752445623980312,left,both,ambiguous-stable,56,-6,right,left,0.267
STA2000WRNO,2020-01-31-09-08-55,10,59,0.6762380116475248,right,probe,ambiguous-switch,-1,-3,left,left,0.24
STA2000WRNO,2020-01-31-09-08-55,10,60,0.5197260639627849,right,both,ambiguous-switch,61,-3,left,left,0.209
