Participant,Session,Block,Trial,OnsetDelay,ProbeLocation,WhatIsReported,Condition,TriggerTime,ProbeSOA,PrimeDirection,Response,RT
SMB1998WRNO,2020-02-05-16-25-55,1,1,0.5961168654718747,right,probe,biased-switch,-1,12,left,left,0.795
SMB1998WRNO,2020-02-05-16-25-55,1,2,0.6895506092600998,right,both,biased-switch,55,12,left,right,0.214
SMB1998WRNO,2020-02-05-16-25-55,1,3,0.6063483035073047,left,probe,ambiguous-switch,-1,6,right,right,0.21
SMB1998WRNO,2020-02-05-16-25-55,1,4,0.6152394097150211,left,both,ambiguous-switch,66,6,right,right,0.177
SMB1998WRNO,2020-02-05-16-25-55,1,5,0.6913216001336208,right,probe,ambiguous-switch,-1,-18,right,right,0.228
SMB1998WRNO,2020-02-05-16-25-55,1,6,0.5088871801501028,right,both,ambiguous-switch,63,-18,right,right,0.013
SMB1998WRNO,2020-02-05-16-25-55,1,7,0.6929863407107809,right,probe,biased-switch,-1,18,right,right,2.354
SMB1998WRNO,2020-02-05-16-25-55,1,8,0.5770125850502439,right,both,biased-switch,65,18,right,right,0.204
SMB1998WRNO,2020-02-05-16-25-55,1,9,0.5195298629908885,left,probe,biased-switch,-1,-6,right,right,0.229
SMB1998WRNO,2020-02-05-16-25-55,1,10,0.5169072550542407,left,both,biased-switch,61,-6,right,right,0.2
SMB1998WRNO,2020-02-05-16-25-55,1,11,0.670449968512677,right,probe,biased-switch,-1,3,right,right,0.231
SMB1998WRNO,2020-02-05-16-25-55,1,12,0.5483956803314884,right,both,biased-switch,54,3,right,left,0.417
SMB1998WRNO,2020-02-05-16-25-55,1,13,0.5063939870988862,right,probe,biased-switch,-1,-3,right,right,0.42
SMB1998WRNO,2020-02-05-16-25-55,1,14,0.6054539399702283,right,both,biased-switch,56,-3,right,left,0.188
SMB1998WRNO,2020-02-05-16-25-55,1,15,0.5945567727774526,left,probe,biased-switch,-1,0,right,right,0.2
SMB1998WRNO,2020-02-05-16-25-55,1,16,0.5406930807059999,left,both,biased-switch,58,0,right,left,0.195
SMB1998WRNO,2020-02-05-16-25-55,1,17,0.6837533637823558,right,probe,ambiguous-switch,-1,-12,right,right,0.177
SMB1998WRNO,2020-02-05-16-25-55,1,18,0.5876204655589596,right,both,ambiguous-switch,55,-12,right,right,0.185
SMB1998WRNO,2020-02-05-16-25-55,1,19,0.5870142443269603,left,probe,biased-switch,-1,-12,right,right,0.216
SMB1998WRNO,2020-02-05-16-25-55,1,20,0.5470326637543874,left,both,biased-switch,56,-12,right,right,0.241
SMB1998WRNO,2020-02-05-16-25-55,1,21,0.6213255543859831,right,probe,ambiguous-switch,-1,-3,right,right,0.238
SMB1998WRNO,2020-02-05-16-25-55,1,22,0.6342595315480243,right,both,ambiguous-switch,59,-3,right,right,0.204
SMB1998WRNO,2020-02-05-16-25-55,1,23,0.5881721177019561,right,probe,ambiguous-switch,-1,24,right,right,0.255
SMB1998WRNO,2020-02-05-16-25-55,1,24,0.5468327783463791,right,both,ambiguous-switch,59,24,right,left,0.139
SMB1998WRNO,2020-02-05-16-25-55,1,25,0.5918609781377163,left,probe,ambiguous-switch,-1,0,right,right,0.351
SMB1998WRNO,2020-02-05-16-25-55,1,26,0.6928456656372989,left,both,ambiguous-switch,59,0,right,right,0.13
SMB1998WRNO,2020-02-05-16-25-55,1,27,0.5718286147186398,left,probe,ambiguous-switch,-1,3,right,right,0.21
SMB1998WRNO,2020-02-05-16-25-55,1,28,0.6618654218479026,left,both,ambiguous-switch,54,3,right,left,0.044
SMB1998WRNO,2020-02-05-16-25-55,1,29,0.6574389957216342,right,probe,biased-switch,-1,24,right,right,0.223
SMB1998WRNO,2020-02-05-16-25-55,1,30,0.6042506171173738,right,both,biased-switch,55,24,right,right,0.184
SMB1998WRNO,2020-02-05-16-25-55,1,31,0.6141785152632289,right,probe,ambiguous-switch,-1,12,right,right,0.267
SMB1998WRNO,2020-02-05-16-25-55,1,32,0.6100399729101428,right,both,ambiguous-switch,55,12,right,right,0.174
SMB1998WRNO,2020-02-05-16-25-55,1,33,0.5514713423560574,left,probe,ambiguous-switch,-1,-6,right,right,0.209
SMB1998WRNO,2020-02-05-16-25-55,1,34,0.523396022094904,left,both,ambiguous-switch,56,-6,right,right,0.23
SMB1998WRNO,2020-02-05-16-25-55,1,35,0.6996585702478666,left,probe,biased-switch,-1,6,right,right,0.214
SMB1998WRNO,2020-02-05-16-25-55,1,36,0.656388657457761,left,both,biased-switch,57,6,right,left,0.234
SMB1998WRNO,2020-02-05-16-25-55,1,37,0.5476407822254465,left,probe,biased-switch,-1,-18,right,right,0.197
SMB1998WRNO,2020-02-05-16-25-55,1,38,0.5542052467514779,left,both,biased-switch,58,-18,right,right,0.217
SMB1998WRNO,2020-02-05-16-25-55,1,39,0.6495683298205432,right,probe,ambiguous-switch,-1,18,right,right,0.093
SMB1998WRNO,2020-02-05-16-25-55,1,40,0.5995840011843704,right,both,ambiguous-switch,65,18,right,right,1.244
SMB1998WRNO,2020-02-05-16-25-55,1,41,0.5859340894359331,right,probe,biased-switch,-1,12,right,right,0.232
SMB1998WRNO,2020-02-05-16-25-55,1,42,0.6556397963352764,right,both,biased-switch,56,12,right,left,0.888
SMB1998WRNO,2020-02-05-16-25-55,1,43,0.641066124654397,left,probe,ambiguous-switch,-1,6,right,right,0.191
SMB1998WRNO,2020-02-05-16-25-55,1,44,0.5282256830095653,left,both,ambiguous-switch,58,6,right,right,0.066
SMB1998WRNO,2020-02-05-16-25-55,1,45,0.6802084704610126,right,probe,ambiguous-switch,-1,-18,right,right,0.205
SMB1998WRNO,2020-02-05-16-25-55,1,46,0.5533469291196114,right,both,ambiguous-switch,59,-18,right,left,0.264
SMB1998WRNO,2020-02-05-16-25-55,1,47,0.5775325011467698,left,probe,biased-switch,-1,18,right,right,0.22
SMB1998WRNO,2020-02-05-16-25-55,1,48,0.6660371918853178,left,both,biased-switch,62,18,right,right,0.163
SMB1998WRNO,2020-02-05-16-25-55,1,49,0.6169127382979561,left,probe,biased-switch,-1,-6,right,right,0.213
SMB1998WRNO,2020-02-05-16-25-55,1,50,0.5325559755661933,left,both,biased-switch,55,-6,right,right,0.23
SMB1998WRNO,2020-02-05-16-25-55,1,51,0.6714366642788447,left,probe,biased-switch,-1,3,right,right,0.164
SMB1998WRNO,2020-02-05-16-25-55,1,52,0.5485025535183553,left,both,biased-switch,60,3,right,left,0.188
SMB1998WRNO,2020-02-05-16-25-55,1,53,0.5892385100503614,left,probe,biased-switch,-1,-3,right,right,0.446
SMB1998WRNO,2020-02-05-16-25-55,1,54,0.539571159400407,left,both,biased-switch,55,-3,right,right,0.171
SMB1998WRNO,2020-02-05-16-25-55,1,55,0.5969139496303318,left,probe,biased-switch,-1,0,right,right,0.19
SMB1998WRNO,2020-02-05-16-25-55,1,56,0.529709369635824,left,both,biased-switch,59,0,right,left,0.185
SMB1998WRNO,2020-02-05-16-25-55,1,57,0.6139137146738982,left,probe,ambiguous-switch,-1,-12,right,right,0.222
SMB1998WRNO,2020-02-05-16-25-55,1,58,0.6425075561117056,left,both,ambiguous-switch,56,-12,right,right,0.97
SMB1998WRNO,2020-02-05-16-25-55,1,59,0.511597754653128,left,probe,biased-switch,-1,-12,right,right,0.191
SMB1998WRNO,2020-02-05-16-25-55,1,60,0.6789686283788833,left,both,biased-switch,62,-12,right,right,0.195
SMB1998WRNO,2020-02-05-16-25-55,1,61,0.6832798055708004,left,probe,ambiguous-switch,-1,-3,right,right,0.112
SMB1998WRNO,2020-02-05-16-25-55,1,62,0.6108052342979593,left,both,ambiguous-switch,62,-3,right,right,1.14
SMB1998WRNO,2020-02-05-16-25-55,1,63,0.5770340873871472,right,probe,ambiguous-switch,-1,24,right,right,0.257
SMB1998WRNO,2020-02-05-16-25-55,1,64,0.6241416033171344,right,both,ambiguous-switch,65,24,right,left,0.172
SMB1998WRNO,2020-02-05-16-25-55,1,65,0.6636625228693114,left,probe,ambiguous-switch,-1,0,right,right,0.325
SMB1998WRNO,2020-02-05-16-25-55,1,66,0.6729576063236528,left,both,ambiguous-switch,63,0,right,left,0.219
SMB1998WRNO,2020-02-05-16-25-55,1,67,0.658028278726331,left,probe,ambiguous-switch,-1,3,left,left,0.422
SMB1998WRNO,2020-02-05-16-25-55,1,68,0.6579252928529581,left,both,ambiguous-switch,64,3,left,right,0.377
SMB1998WRNO,2020-02-05-16-25-55,1,69,0.5784181256669556,left,probe,biased-switch,-1,24,right,right,0.19
SMB1998WRNO,2020-02-05-16-25-55,1,70,0.6887575644433762,left,both,biased-switch,58,24,right,left,0.191
SMB1998WRNO,2020-02-05-16-25-55,1,71,0.5454398194896619,left,probe,ambiguous-switch,-1,12,right,right,1.14
SMB1998WRNO,2020-02-05-16-25-55,1,72,0.6202574262834936,left,both,ambiguous-switch,61,12,right,right,0.205
SMB1998WRNO,2020-02-05-16-25-55,1,73,0.566237488839194,left,probe,ambiguous-switch,-1,-6,right,right,0.138
SMB1998WRNO,2020-02-05-16-25-55,1,74,0.5103768440087626,left,both,ambiguous-switch,56,-6,right,left,0.226
SMB1998WRNO,2020-02-05-16-25-55,1,75,0.5755330536403043,right,probe,biased-switch,-1,6,right,right,0.101
SMB1998WRNO,2020-02-05-16-25-55,1,76,0.6097209254058578,right,both,biased-switch,62,6,right,left,0.098
SMB1998WRNO,2020-02-05-16-25-55,1,77,0.5178219957304748,left,probe,biased-switch,-1,-18,right,right,0.217
SMB1998WRNO,2020-02-05-16-25-55,1,78,0.5777417727496007,left,both,biased-switch,61,-18,right,right,0.228
SMB1998WRNO,2020-02-05-16-25-55,1,79,0.5562287726344659,left,probe,ambiguous-switch,-1,18,left,left,0.18
SMB1998WRNO,2020-02-05-16-25-55,1,80,0.6584137385041406,left,both,ambiguous-switch,65,18,left,right,0.179
SMB1998WRNO,2020-02-05-16-25-55,2,1,0.5648025440734484,right,probe,ambiguous-switch,-1,6,left,left,0.236
SMB1998WRNO,2020-02-05-16-25-55,2,2,0.6823407572871778,right,both,ambiguous-switch,55,6,left,right,0.207
SMB1998WRNO,2020-02-05-16-25-55,2,3,0.5941943650416736,right,probe,ambiguous-switch,-1,-12,left,left,0.171
SMB1998WRNO,2020-02-05-16-25-55,2,4,0.5139861873866235,right,both,ambiguous-switch,64,-12,left,left,0.181
SMB1998WRNO,2020-02-05-16-25-55,2,5,0.641566580340655,left,probe,biased-switch,-1,-12,left,left,0.247
SMB1998WRNO,2020-02-05-16-25-55,2,6,0.5799674813874408,left,both,biased-switch,60,-12,left,left,0.19
SMB1998WRNO,2020-02-05-16-25-55,2,7,0.6700775639718519,left,probe,ambiguous-switch,-1,0,left,left,0.412
SMB1998WRNO,2020-02-05-16-25-55,2,8,0.526048756048952,left,both,ambiguous-switch,61,0,left,left,0.208
SMB1998WRNO,2020-02-05-16-25-55,2,9,0.6918711072001794,left,probe,ambiguous-switch,-1,-3,left,left,0.371
SMB1998WRNO,2020-02-05-16-25-55,2,10,0.6141636400152045,left,both,ambiguous-switch,60,-3,left,right,0.157
SMB1998WRNO,2020-02-05-16-25-55,2,11,0.6215927992525925,right,probe,biased-switch,-1,18,left,left,0.223
SMB1998WRNO,2020-02-05-16-25-55,2,12,0.572123088883859,right,both,biased-switch,54,18,left,left,0.205
SMB1998WRNO,2020-02-05-16-25-55,2,13,0.5194863156504015,right,probe,ambiguous-switch,-1,12,left,left,0.203
SMB1998WRNO,2020-02-05-16-25-55,2,14,0.6926209790890268,right,both,ambiguous-switch,60,12,left,right,0.218
SMB1998WRNO,2020-02-05-16-25-55,2,15,0.5905181226610938,right,probe,biased-switch,-1,12,left,left,0.305
SMB1998WRNO,2020-02-05-16-25-55,2,16,0.5190167713358484,right,both,biased-switch,59,12,left,right,0.2
SMB1998WRNO,2020-02-05-16-25-55,2,17,0.6232879405214953,left,probe,ambiguous-switch,-1,-6,left,left,0.301
SMB1998WRNO,2020-02-05-16-25-55,2,18,0.6084942282377718,left,both,ambiguous-switch,61,-6,left,right,0.473
SMB1998WRNO,2020-02-05-16-25-55,2,19,0.6585920186775185,left,probe,ambiguous-switch,-1,-18,right,right,0.229
SMB1998WRNO,2020-02-05-16-25-55,2,20,0.5225516333250747,left,both,ambiguous-switch,63,-18,right,right,0.223
SMB1998WRNO,2020-02-05-16-25-55,2,21,0.6580803905062654,right,probe,ambiguous-switch,-1,24,left,left,0.235
SMB1998WRNO,2020-02-05-16-25-55,2,22,0.6244249892197673,right,both,ambiguous-switch,56,24,left,right,0.06
SMB1998WRNO,2020-02-05-16-25-55,2,23,0.5716275124161536,left,probe,biased-switch,-1,3,left,left,0.224
SMB1998WRNO,2020-02-05-16-25-55,2,24,0.5179350516451267,left,both,biased-switch,58,3,left,right,0.214
SMB1998WRNO,2020-02-05-16-25-55,2,25,0.640485375119282,left,probe,biased-switch,-1,0,left,left,0.27
SMB1998WRNO,2020-02-05-16-25-55,2,26,0.6538390864404682,left,both,biased-switch,63,0,left,right,0.077
SMB1998WRNO,2020-02-05-16-25-55,2,27,0.5647407679091134,left,probe,ambiguous-switch,-1,3,left,left,0.238
SMB1998WRNO,2020-02-05-16-25-55,2,28,0.5756698058228591,left,both,ambiguous-switch,58,3,left,left,0.119
SMB1998WRNO,2020-02-05-16-25-55,2,29,0.5180835247703546,right,probe,biased-switch,-1,6,left,left,0.197
SMB1998WRNO,2020-02-05-16-25-55,2,30,0.5869398140667024,right,both,biased-switch,55,6,left,left,0.207
SMB1998WRNO,2020-02-05-16-25-55,2,31,0.689813283958934,right,probe,biased-switch,-1,24,left,left,0.416
SMB1998WRNO,2020-02-05-16-25-55,2,32,0.6054944945029364,right,both,biased-switch,60,24,left,left,0.249
SMB1998WRNO,2020-02-05-16-25-55,2,33,0.6418022649909734,right,probe,ambiguous-switch,-1,18,left,left,0.216
SMB1998WRNO,2020-02-05-16-25-55,2,34,0.5345745406301865,right,both,ambiguous-switch,60,18,left,right,0.438
SMB1998WRNO,2020-02-05-16-25-55,2,35,0.6034503328733825,left,probe,biased-switch,-1,-18,left,left,0.219
SMB1998WRNO,2020-02-05-16-25-55,2,36,0.6305212654669273,left,both,biased-switch,58,-18,left,left,0.131
SMB1998WRNO,2020-02-05-16-25-55,2,37,0.5957226344992619,left,probe,biased-switch,-1,-6,left,left,0.193
SMB1998WRNO,2020-02-05-16-25-55,2,38,0.6384720380875566,left,both,biased-switch,62,-6,left,left,1.052
SMB1998WRNO,2020-02-05-16-25-55,2,39,0.6893453451189604,right,probe,biased-switch,-1,-3,left,left,0.201
SMB1998WRNO,2020-02-05-16-25-55,2,40,0.5381069387310116,right,both,biased-switch,62,-3,left,right,0.24
SMB1998WRNO,2020-02-05-16-25-55,2,41,0.6313108041693443,right,probe,ambiguous-switch,-1,6,left,left,0.211
SMB1998WRNO,2020-02-05-16-25-55,2,42,0.5529592128107248,right,both,ambiguous-switch,65,6,left,right,0.187
SMB1998WRNO,2020-02-05-16-25-55,2,43,0.5216049731756951,right,probe,ambiguous-switch,-1,-12,left,left,0.111
SMB1998WRNO,2020-02-05-16-25-55,2,44,0.6891006522399508,right,both,ambiguous-switch,59,-12,left,left,0.231
SMB1998WRNO,2020-02-05-16-25-55,2,45,0.5120131802563631,left,probe,biased-switch,-1,-12,left,left,0.432
SMB1998WRNO,2020-02-05-16-25-55,2,46,0.5372566509161234,left,both,biased-switch,57,-12,left,left,0.262
SMB1998WRNO,2020-02-05-16-25-55,2,47,0.6797812279766832,left,probe,ambiguous-switch,-1,0,left,left,0.207
SMB1998WRNO,2020-02-05-16-25-55,2,48,0.6176838706814793,left,both,ambiguous-switch,55,0,left,left,0.087
SMB1998WRNO,2020-02-05-16-25-55,2,49,0.6334881818742628,right,probe,ambiguous-switch,-1,-3,left,left,0.191
SMB1998WRNO,2020-02-05-16-25-55,2,50,0.6034901766381087,right,both,ambiguous-switch,61,-3,left,left,2.404
SMB1998WRNO,2020-02-05-16-25-55,2,51,0.5363576430165459,left,probe,biased-switch,-1,18,left,left,0.099
SMB1998WRNO,2020-02-05-16-25-55,2,52,0.6130218635525739,left,both,biased-switch,63,18,left,left,0.168
SMB1998WRNO,2020-02-05-16-25-55,2,53,0.6091906227886804,left,probe,ambiguous-switch,-1,12,left,left,0.234
SMB1998WRNO,2020-02-05-16-25-55,2,54,0.6059699624829555,left,both,ambiguous-switch,54,12,left,left,0.21
SMB1998WRNO,2020-02-05-16-25-55,2,55,0.521953331426962,right,probe,biased-switch,-1,12,left,left,0.165
SMB1998WRNO,2020-02-05-16-25-55,2,56,0.5018563150518198,right,both,biased-switch,57,12,left,left,0.205
SMB1998WRNO,2020-02-05-16-25-55,2,57,0.5000758701234371,left,probe,ambiguous-switch,-1,-6,left,left,0.303
SMB1998WRNO,2020-02-05-16-25-55,2,58,0.6535956381060883,left,both,ambiguous-switch,57,-6,left,left,1.164
SMB1998WRNO,2020-02-05-16-25-55,2,59,0.6850705395293083,right,probe,ambiguous-switch,-1,-18,left,left,0.316
SMB1998WRNO,2020-02-05-16-25-55,2,60,0.5514121345877405,right,both,ambiguous-switch,63,-18,left,left,0.24
SMB1998WRNO,2020-02-05-16-25-55,2,61,0.6161158005728244,right,probe,ambiguous-switch,-1,24,left,left,0.26
SMB1998WRNO,2020-02-05-16-25-55,2,62,0.5107669221256457,right,both,ambiguous-switch,64,24,left,right,0.185
SMB1998WRNO,2020-02-05-16-25-55,2,63,0.5537827647979986,left,probe,biased-switch,-1,3,left,left,0.181
SMB1998WRNO,2020-02-05-16-25-55,2,64,0.5643903162133759,left,both,biased-switch,55,3,left,right,0.188
SMB1998WRNO,2020-02-05-16-25-55,2,65,0.5911875938999662,right,probe,biased-switch,-1,0,left,left,0.232
SMB1998WRNO,2020-02-05-16-25-55,2,66,0.5129830881657682,right,both,biased-switch,62,0,left,right,0.215
SMB1998WRNO,2020-02-05-16-25-55,2,67,0.5682802462554286,right,probe,ambiguous-switch,-1,3,left,left,0.197
SMB1998WRNO,2020-02-05-16-25-55,2,68,0.5149151548359495,right,both,ambiguous-switch,64,3,left,right,0.165
SMB1998WRNO,2020-02-05-16-25-55,2,69,0.5190857893395032,right,probe,biased-switch,-1,6,left,left,0.229
SMB1998WRNO,2020-02-05-16-25-55,2,70,0.5807793807933826,right,both,biased-switch,60,6,left,right,1.169
SMB1998WRNO,2020-02-05-16-25-55,2,71,0.6323610414810978,left,probe,biased-switch,-1,24,left,left,0.333
SMB1998WRNO,2020-02-05-16-25-55,2,72,0.5773014140894974,left,both,biased-switch,55,24,left,left,0.241
SMB1998WRNO,2020-02-05-16-25-55,2,73,0.5651617471602653,left,probe,ambiguous-switch,-1,18,left,left,0.238
SMB1998WRNO,2020-02-05-16-25-55,2,74,0.5967911282517464,left,both,ambiguous-switch,65,18,left,right,0.215
SMB1998WRNO,2020-02-05-16-25-55,2,75,0.5575344458024722,left,probe,biased-switch,-1,-18,left,left,1.404
SMB1998WRNO,2020-02-05-16-25-55,2,76,0.530867903915737,left,both,biased-switch,64,-18,left,right,0.039
SMB1998WRNO,2020-02-05-16-25-55,2,77,0.5315829916194041,right,probe,biased-switch,-1,-6,left,left,0.087
SMB1998WRNO,2020-02-05-16-25-55,2,78,0.5492867010016758,right,both,biased-switch,57,-6,left,right,0.202
SMB1998WRNO,2020-02-05-16-25-55,2,79,0.5225777941456256,left,probe,biased-switch,-1,-3,left,left,0.211
SMB1998WRNO,2020-02-05-16-25-55,2,80,0.6900607740975281,left,both,biased-switch,57,-3,left,right,0.164
SMB1998WRNO,2020-02-05-16-25-55,3,1,0.5560903989558701,right,probe,biased-switch,-1,-3,right,right,0.391
SMB1998WRNO,2020-02-05-16-25-55,3,2,0.5566412246282062,right,both,biased-switch,64,-3,right,left,0.02
SMB1998WRNO,2020-02-05-16-25-55,3,3,0.6778142699401674,left,probe,ambiguous-switch,-1,6,left,left,0.228
SMB1998WRNO,2020-02-05-16-25-55,3,4,0.6166153506153895,left,both,ambiguous-switch,60,6,left,right,0.126
SMB1998WRNO,2020-02-05-16-25-55,3,5,0.6039459068213943,left,probe,ambiguous-switch,-1,-18,right,right,0.212
SMB1998WRNO,2020-02-05-16-25-55,3,6,0.6135671535148014,left,both,ambiguous-switch,56,-18,right,right,0.221
SMB1998WRNO,2020-02-05-16-25-55,3,7,0.6615558927095936,left,probe,biased-switch,-1,-12,right,right,0.238
SMB1998WRNO,2020-02-05-16-25-55,3,8,0.5812575976783462,left,both,biased-switch,56,-12,right,right,0.196
SMB1998WRNO,2020-02-05-16-25-55,3,9,0.5608862853625648,left,probe,biased-switch,-1,6,right,right,0.305
SMB1998WRNO,2020-02-05-16-25-55,3,10,0.6780705842104304,left,both,biased-switch,58,6,right,left,0.209
SMB1998WRNO,2020-02-05-16-25-55,3,11,0.6812780390308448,right,probe,ambiguous-switch,-1,18,right,right,0.161
SMB1998WRNO,2020-02-05-16-25-55,3,12,0.6207628247470919,right,both,ambiguous-switch,60,18,right,right,0.255
SMB1998WRNO,2020-02-05-16-25-55,3,13,0.5060721064586136,right,probe,biased-switch,-1,24,right,right,0.166
SMB1998WRNO,2020-02-05-16-25-55,3,14,0.6846604261684854,right,both,biased-switch,61,24,right,right,0.213
SMB1998WRNO,2020-02-05-16-25-55,3,15,0.5071787097014661,right,probe,ambiguous-switch,-1,-12,right,right,0.285
SMB1998WRNO,2020-02-05-16-25-55,3,16,0.5242358652595265,right,both,ambiguous-switch,62,-12,right,right,0.498
SMB1998WRNO,2020-02-05-16-25-55,3,17,0.6287325794993841,left,probe,biased-switch,-1,3,right,right,0.203
SMB1998WRNO,2020-02-05-16-25-55,3,18,0.6065832370468416,left,both,biased-switch,63,3,right,left,0.218
SMB1998WRNO,2020-02-05-16-25-55,3,19,0.6672472887862708,right,probe,ambiguous-switch,-1,12,right,right,0.148
SMB1998WRNO,2020-02-05-16-25-55,3,20,0.5384339334300082,right,both,ambiguous-switch,59,12,right,right,0.211
SMB1998WRNO,2020-02-05-16-25-55,3,21,0.5858769501457785,left,probe,biased-switch,-1,-6,right,right,0.273
SMB1998WRNO,2020-02-05-16-25-55,3,22,0.5211880973865312,left,both,biased-switch,61,-6,right,right,0.217
SMB1998WRNO,2020-02-05-16-25-55,3,23,0.5271633063907312,right,probe,ambiguous-switch,-1,-3,right,right,0.079
SMB1998WRNO,2020-02-05-16-25-55,3,24,0.5425963497959994,right,both,ambiguous-switch,55,-3,right,right,0.083
SMB1998WRNO,2020-02-05-16-25-55,3,25,0.5322621672885199,right,probe,ambiguous-switch,-1,3,right,right,0.181
SMB1998WRNO,2020-02-05-16-25-55,3,26,0.535207069851922,right,both,ambiguous-switch,66,3,right,right,0.136
SMB1998WRNO,2020-02-05-16-25-55,3,27,0.5791947040030623,left,probe,biased-switch,-1,0,right,right,0.209
SMB1998WRNO,2020-02-05-16-25-55,3,28,0.5389975974660622,left,both,biased-switch,66,0,right,left,0.137
SMB1998WRNO,2020-02-05-16-25-55,3,29,0.5973408380655952,left,probe,biased-switch,-1,12,right,right,0.249
SMB1998WRNO,2020-02-05-16-25-55,3,30,0.5602560910732506,left,both,biased-switch,58,12,right,right,0.235
SMB1998WRNO,2020-02-05-16-25-55,3,31,0.668393014967324,left,probe,biased-switch,-1,-18,right,right,0.151
SMB1998WRNO,2020-02-05-16-25-55,3,32,0.5269069018126564,left,both,biased-switch,54,-18,right,right,0.172
SMB1998WRNO,2020-02-05-16-25-55,3,33,0.6918425858183896,right,probe,ambiguous-switch,-1,0,right,right,0.373
SMB1998WRNO,2020-02-05-16-25-55,3,34,0.5936552629116565,right,both,ambiguous-switch,59,0,right,right,0.167
SMB1998WRNO,2020-02-05-16-25-55,3,35,0.6351945496246526,left,probe,ambiguous-switch,-1,-6,right,right,0.265
SMB1998WRNO,2020-02-05-16-25-55,3,36,0.6379294284812966,left,both,ambiguous-switch,58,-6,right,right,2.03
SMB1998WRNO,2020-02-05-16-25-55,3,37,0.6952031917308599,left,probe,biased-switch,-1,18,right,right,0.236
SMB1998WRNO,2020-02-05-16-25-55,3,38,0.5612604865755115,left,both,biased-switch,60,18,right,right,0.161
SMB1998WRNO,2020-02-05-16-25-55,3,39,0.5890264220174983,left,probe,ambiguous-switch,-1,24,right,right,0.26
SMB1998WRNO,2020-02-05-16-25-55,3,40,0.684303831034496,left,both,ambiguous-switch,55,24,right,right,0.213
SMB1998WRNO,2020-02-05-16-25-55,3,41,0.632077158308981,left,probe,biased-switch,-1,-3,right,right,0.216
SMB1998WRNO,2020-02-05-16-25-55,3,42,0.5595651798764896,left,both,biased-switch,63,-3,right,right,0.198
SMB1998WRNO,2020-02-05-16-25-55,3,43,0.5890570994721843,left,probe,ambiguous-switch,-1,6,right,right,0.282
SMB1998WRNO,2020-02-05-16-25-55,3,44,0.6063624619634087,left,both,ambiguous-switch,56,6,right,right,2.15
SMB1998WRNO,2020-02-05-16-25-55,3,45,0.5084663919774055,right,probe,ambiguous-switch,-1,-18,right,right,0.534
SMB1998WRNO,2020-02-05-16-25-55,3,46,0.5570262207674552,right,both,ambiguous-switch,55,-18,right,right,0.3
SMB1998WRNO,2020-02-05-16-25-55,3,47,0.6800918438827145,left,probe,biased-switch,-1,-12,right,right,0.389
SMB1998WRNO,2020-02-05-16-25-55,3,48,0.5460614221239757,left,both,biased-switch,58,-12,right,left,0.322
SMB1998WRNO,2020-02-05-16-25-55,3,49,0.5833203672887811,left,probe,biased-switch,-1,6,right,right,0.178
SMB1998WRNO,2020-02-05-16-25-55,3,50,0.6538857833975888,left,both,biased-switch,55,6,right,left,0.338
SMB1998WRNO,2020-02-05-16-25-55,3,51,0.6080759836020208,left,probe,ambiguous-switch,-1,18,right,right,0.609
SMB1998WRNO,2020-02-05-16-25-55,3,52,0.6230046930241961,left,both,ambiguous-switch,58,18,right,left,1.639
SMB1998WRNO,2020-02-05-16-25-55,3,53,0.6756949026463431,left,probe,biased-switch,-1,24,left,left,0.219
SMB1998WRNO,2020-02-05-16-25-55,3,54,0.6155627074218314,left,both,biased-switch,63,24,left,right,0.15
SMB1998WRNO,2020-02-05-16-25-55,3,55,0.6610712587584895,left,probe,ambiguous-switch,-1,-12,right,right,0.225
SMB1998WRNO,2020-02-05-16-25-55,3,56,0.6625868123313701,left,both,ambiguous-switch,59,-12,right,right,0.23
SMB1998WRNO,2020-02-05-16-25-55,3,57,0.5926390622556285,left,probe,biased-switch,-1,3,right,right,0.18
SMB1998WRNO,2020-02-05-16-25-55,3,58,0.6369540161709975,left,both,biased-switch,66,3,right,left,0.223
SMB1998WRNO,2020-02-05-16-25-55,3,59,0.6741054611175947,right,probe,ambiguous-switch,-1,12,right,right,0.215
SMB1998WRNO,2020-02-05-16-25-55,3,60,0.6445162898617369,right,both,ambiguous-switch,65,12,right,right,0.174
SMB1998WRNO,2020-02-05-16-25-55,3,61,0.5050513404460814,right,probe,biased-switch,-1,-6,right,right,0.061
SMB1998WRNO,2020-02-05-16-25-55,3,62,0.6748487427055748,right,both,biased-switch,59,-6,right,right,0.184
SMB1998WRNO,2020-02-05-16-25-55,3,63,0.6485891006610233,left,probe,ambiguous-switch,-1,-3,right,right,0.451
SMB1998WRNO,2020-02-05-16-25-55,3,64,0.5689815126024413,left,both,ambiguous-switch,54,-3,right,right,0.218
SMB1998WRNO,2020-02-05-16-25-55,3,65,0.588497576530309,right,probe,ambiguous-switch,-1,3,right,right,0.27
SMB1998WRNO,2020-02-05-16-25-55,3,66,0.5897419153332026,right,both,ambiguous-switch,60,3,right,right,0.18
SMB1998WRNO,2020-02-05-16-25-55,3,67,0.6385344387637404,left,probe,biased-switch,-1,0,right,right,1.514
SMB1998WRNO,2020-02-05-16-25-55,3,68,0.5163291849403081,left,both,biased-switch,59,0,right,right,0.238
SMB1998WRNO,2020-02-05-16-25-55,3,69,0.548353059222317,right,probe,biased-switch,-1,12,right,right,2.378
SMB1998WRNO,2020-02-05-16-25-55,3,70,0.6802609871117262,right,both,biased-switch,60,12,right,right,0.052
SMB1998WRNO,2020-02-05-16-25-55,3,71,0.5578822326829632,right,probe,biased-switch,-1,-18,right,right,0.197
SMB1998WRNO,2020-02-05-16-25-55,3,72,0.5730796170265704,right,both,biased-switch,59,-18,right,right,0.05
SMB1998WRNO,2020-02-05-16-25-55,3,73,0.6750380266575604,left,probe,ambiguous-switch,-1,0,right,right,0.161
SMB1998WRNO,2020-02-05-16-25-55,3,74,0.6252417767397347,left,both,ambiguous-switch,59,0,right,right,0.061
SMB1998WRNO,2020-02-05-16-25-55,3,75,0.5003449087150701,right,probe,ambiguous-switch,-1,-6,right,right,0.241
SMB1998WRNO,2020-02-05-16-25-55,3,76,0.5344321880993528,right,both,ambiguous-switch,56,-6,right,right,0.263
SMB1998WRNO,2020-02-05-16-25-55,3,77,0.6081255041376763,right,probe,biased-switch,-1,18,right,right,0.17
SMB1998WRNO,2020-02-05-16-25-55,3,78,0.6382602568525622,right,both,biased-switch,65,18,right,right,0.266
SMB1998WRNO,2020-02-05-16-25-55,3,79,0.5601696611023396,left,probe,ambiguous-switch,-1,24,right,right,0.392
SMB1998WRNO,2020-02-05-16-25-55,3,80,0.6823057438913482,left,both,ambiguous-switch,62,24,right,right,0.261
SMB1998WRNO,2020-02-05-16-25-55,4,1,0.5673046047124781,right,probe,biased-switch,-1,18,right,right,0.194
SMB1998WRNO,2020-02-05-16-25-55,4,2,0.6904495183248842,right,both,biased-switch,59,18,right,right,0.122
SMB1998WRNO,2020-02-05-16-25-55,4,3,0.6895116369865869,left,probe,ambiguous-switch,-1,18,right,right,0.39
SMB1998WRNO,2020-02-05-16-25-55,4,4,0.637914488527324,left,both,ambiguous-switch,59,18,right,right,0.197
SMB1998WRNO,2020-02-05-16-25-55,4,5,0.5217824255074921,left,probe,biased-switch,-1,6,right,right,0.212
SMB1998WRNO,2020-02-05-16-25-55,4,6,0.5892405511878533,left,both,biased-switch,62,6,right,left,0.086
SMB1998WRNO,2020-02-05-16-25-55,4,7,0.6979982807663834,right,probe,biased-switch,-1,24,right,right,0.104
SMB1998WRNO,2020-02-05-16-25-55,4,8,0.6311320890000758,right,both,biased-switch,58,24,right,left,0.698
SMB1998WRNO,2020-02-05-16-25-55,4,9,0.6145263930512125,left,probe,biased-switch,-1,-6,right,right,0.598
SMB1998WRNO,2020-02-05-16-25-55,4,10,0.517189605945052,left,both,biased-switch,65,-6,right,right,0.164
SMB1998WRNO,2020-02-05-16-25-55,4,11,0.6115602099106009,left,probe,biased-switch,-1,0,right,right,0.196
SMB1998WRNO,2020-02-05-16-25-55,4,12,0.5744512362794864,left,both,biased-switch,55,0,right,left,0.271
SMB1998WRNO,2020-02-05-16-25-55,4,13,0.6244455949547872,left,probe,biased-switch,-1,12,right,right,0.433
SMB1998WRNO,2020-02-05-16-25-55,4,14,0.6416237718531613,left,both,biased-switch,57,12,right,left,0.079
SMB1998WRNO,2020-02-05-16-25-55,4,15,0.6590034980423143,left,probe,ambiguous-switch,-1,-6,right,right,0.736
SMB1998WRNO,2020-02-05-16-25-55,4,16,0.5254423518161478,left,both,ambiguous-switch,55,-6,right,right,0.224
SMB1998WRNO,2020-02-05-16-25-55,4,17,0.5796743559931805,right,probe,ambiguous-switch,-1,-18,right,right,0.233
SMB1998WRNO,2020-02-05-16-25-55,4,18,0.5362086220400322,right,both,ambiguous-switch,64,-18,right,right,0.21
SMB1998WRNO,2020-02-05-16-25-55,4,19,0.6327845481345189,right,probe,ambiguous-switch,-1,-3,right,right,0.223
SMB1998WRNO,2020-02-05-16-25-55,4,20,0.5680240919676953,right,both,ambiguous-switch,55,-3,right,right,0.094
SMB1998WRNO,2020-02-05-16-25-55,4,21,0.5296652804640664,right,probe,ambiguous-switch,-1,12,left,left,0.259
SMB1998WRNO,2020-02-05-16-25-55,4,22,0.6053830584832082,right,both,ambiguous-switch,63,12,left,right,0.301
SMB1998WRNO,2020-02-05-16-25-55,4,23,0.5168690625208348,left,probe,biased-switch,-1,-3,left,left,0.241
SMB1998WRNO,2020-02-05-16-25-55,4,24,0.6542601182562922,left,both,biased-switch,61,-3,left,right,0.199
SMB1998WRNO,2020-02-05-16-25-55,4,25,0.543082668072142,right,probe,biased-switch,-1,-18,left,left,0.238
SMB1998WRNO,2020-02-05-16-25-55,4,26,0.6298976032674855,right,both,biased-switch,56,-18,left,left,0.207
SMB1998WRNO,2020-02-05-16-25-55,4,27,0.5853074125943556,right,probe,ambiguous-switch,-1,0,left,left,0.389
SMB1998WRNO,2020-02-05-16-25-55,4,28,0.592309265586403,right,both,ambiguous-switch,59,0,left,right,0.139
SMB1998WRNO,2020-02-05-16-25-55,4,29,0.6984447533638198,left,probe,ambiguous-switch,-1,24,right,right,0.328
SMB1998WRNO,2020-02-05-16-25-55,4,30,0.605007554624862,left,both,ambiguous-switch,63,24,right,left,0.179
SMB1998WRNO,2020-02-05-16-25-55,4,31,0.5971138807720667,left,probe,ambiguous-switch,-1,6,left,left,0.226
SMB1998WRNO,2020-02-05-16-25-55,4,32,0.6090483550475033,left,both,ambiguous-switch,64,6,left,right,0.112
SMB1998WRNO,2020-02-05-16-25-55,4,33,0.6738692890423732,left,probe,biased-switch,-1,-12,left,left,0.267
SMB1998WRNO,2020-02-05-16-25-55,4,34,0.6568496929344401,left,both,biased-switch,59,-12,left,right,0.012
SMB1998WRNO,2020-02-05-16-25-55,4,35,0.518401892370372,left,probe,ambiguous-switch,-1,-12,left,left,0.2
SMB1998WRNO,2020-02-05-16-25-55,4,36,0.5374104626058376,left,both,ambiguous-switch,65,-12,left,left,0.239
SMB1998WRNO,2020-02-05-16-25-55,4,37,0.6894701156815078,right,probe,ambiguous-switch,-1,3,right,right,0.455
SMB1998WRNO,2020-02-05-16-25-55,4,38,0.653491448588999,right,both,ambiguous-switch,59,3,right,left,0.051
SMB1998WRNO,2020-02-05-16-25-55,4,39,0.5779341305860591,right,probe,biased-switch,-1,3,left,left,0.191
SMB1998WRNO,2020-02-05-16-25-55,4,40,0.5573309804594734,right,both,biased-switch,61,3,left,right,0.101
SMB1998WRNO,2020-02-05-16-25-55,4,41,0.6678079341086425,right,probe,biased-switch,-1,18,right,right,0.219
SMB1998WRNO,2020-02-05-16-25-55,4,42,0.6056584507671261,right,both,biased-switch,54,18,right,left,0.209
SMB1998WRNO,2020-02-05-16-25-55,4,43,0.627538628938648,left,probe,ambiguous-switch,-1,18,left,left,0.437
SMB1998WRNO,2020-02-05-16-25-55,4,44,0.6978022415125869,left,both,ambiguous-switch,59,18,left,right,0.267
SMB1998WRNO,2020-02-05-16-25-55,4,45,0.6667802588124829,left,probe,biased-switch,-1,6,right,right,0.349
SMB1998WRNO,2020-02-05-16-25-55,4,46,0.6945916440123063,left,both,biased-switch,58,6,right,left,0.232
SMB1998WRNO,2020-02-05-16-25-55,4,47,0.6047154437146186,right,probe,biased-switch,-1,24,right,right,0.272
SMB1998WRNO,2020-02-05-16-25-55,4,48,0.6827439327023711,right,both,biased-switch,59,24,right,right,0.217
SMB1998WRNO,2020-02-05-16-25-55,4,49,0.6552187919105822,left,probe,biased-switch,-1,-6,right,right,0.501
SMB1998WRNO,2020-02-05-16-25-55,4,50,0.5393257033540048,left,both,biased-switch,61,-6,right,right,0.276
SMB1998WRNO,2020-02-05-16-25-55,4,51,0.5612082581935699,right,probe,biased-switch,-1,0,right,right,0.296
SMB1998WRNO,2020-02-05-16-25-55,4,52,0.5811492247990622,right,both,biased-switch,62,0,right,left,0.104
SMB1998WRNO,2020-02-05-16-25-55,4,53,0.6103685045949748,left,probe,biased-switch,-1,12,right,right,0.226
SMB1998WRNO,2020-02-05-16-25-55,4,54,0.6443381862282331,left,both,biased-switch,55,12,right,right,0.145
SMB1998WRNO,2020-02-05-16-25-55,4,55,0.5311357288313165,right,probe,ambiguous-switch,-1,-6,right,right,0.232
SMB1998WRNO,2020-02-05-16-25-55,4,56,0.6122214144828036,right,both,ambiguous-switch,65,-6,right,left,0.214
SMB1998WRNO,2020-02-05-16-25-55,4,57,0.5664519738112437,left,probe,ambiguous-switch,-1,-18,right,right,0.408
SMB1998WRNO,2020-02-05-16-25-55,4,58,0.5356671667212635,left,both,ambiguous-switch,64,-18,right,right,0.104
SMB1998WRNO,2020-02-05-16-25-55,4,59,0.676694253918443,left,probe,ambiguous-switch,-1,-3,right,right,0.238
SMB1998WRNO,2020-02-05-16-25-55,4,60,0.5027457500409238,left,both,ambiguous-switch,64,-3,right,right,0.243
SMB1998WRNO,2020-02-05-16-25-55,4,61,0.6424728926665935,left,probe,ambiguous-switch,-1,12,right,right,0.252
SMB1998WRNO,2020-02-05-16-25-55,4,62,0.583635718849751,left,both,ambiguous-switch,63,12,right,left,0.096
SMB1998WRNO,2020-02-05-16-25-55,4,63,0.6463446812751834,right,probe,biased-switch,-1,-3,right,right,1.816
SMB1998WRNO,2020-02-05-16-25-55,4,64,0.5063993919158095,right,both,biased-switch,64,-3,right,left,1.249
SMB1998WRNO,2020-02-05-16-25-55,4,65,0.5340749412606073,right,probe,biased-switch,-1,-18,left,left,0.496
SMB1998WRNO,2020-02-05-16-25-55,4,66,0.6373211279114365,right,both,biased-switch,58,-18,left,right,0.225
SMB1998WRNO,2020-02-05-16-25-55,4,67,0.5628736627780125,right,probe,ambiguous-switch,-1,0,left,left,0.201
SMB1998WRNO,2020-02-05-16-25-55,4,68,0.6156992416541213,right,both,ambiguous-switch,57,0,left,right,0.236
SMB1998WRNO,2020-02-05-16-25-55,4,69,0.6358320806832704,left,probe,ambiguous-switch,-1,24,right,right,0.252
SMB1998WRNO,2020-02-05-16-25-55,4,70,0.5294796497162685,left,both,ambiguous-switch,54,24,right,right,0.25
SMB1998WRNO,2020-02-05-16-25-55,4,71,0.591634736777028,left,probe,ambiguous-switch,-1,6,right,right,0.612
SMB1998WRNO,2020-02-05-16-25-55,4,72,0.5492714644899714,left,both,ambiguous-switch,54,6,right,left,0.229
SMB1998WRNO,2020-02-05-16-25-55,4,73,0.6437431893552843,left,probe,biased-switch,-1,-12,right,right,0.235
SMB1998WRNO,2020-02-05-16-25-55,4,74,0.6426848111505771,left,both,biased-switch,56,-12,right,left,0.244
SMB1998WRNO,2020-02-05-16-25-55,4,75,0.5609471388333367,left,probe,ambiguous-switch,-1,-12,left,left,0.398
SMB1998WRNO,2020-02-05-16-25-55,4,76,0.5989680341251213,left,both,ambiguous-switch,64,-12,left,left,0.17
SMB1998WRNO,2020-02-05-16-25-55,4,77,0.6726739275572791,right,probe,ambiguous-switch,-1,3,left,left,0.177
SMB1998WRNO,2020-02-05-16-25-55,4,78,0.6038747277683935,right,both,ambiguous-switch,62,3,left,right,0.179
SMB1998WRNO,2020-02-05-16-25-55,4,79,0.5973995508118122,left,probe,biased-switch,-1,3,left,left,0.227
SMB1998WRNO,2020-02-05-16-25-55,4,80,0.5220396817919786,left,both,biased-switch,57,3,left,right,0.256
SMB1998WRNO,2020-02-05-16-25-55,5,1,0.5358086449193004,right,probe,ambiguous-switch,-1,24,left,left,0.208
SMB1998WRNO,2020-02-05-16-25-55,5,2,0.5623933307933031,right,both,ambiguous-switch,60,24,left,left,0.173
SMB1998WRNO,2020-02-05-16-25-55,5,3,0.5127207178571423,left,probe,ambiguous-switch,-1,-6,left,left,0.301
SMB1998WRNO,2020-02-05-16-25-55,5,4,0.6027278398453034,left,both,ambiguous-switch,61,-6,left,left,0.079
SMB1998WRNO,2020-02-05-16-25-55,5,5,0.6503946246365895,left,probe,ambiguous-switch,-1,3,left,left,0.213
SMB1998WRNO,2020-02-05-16-25-55,5,6,0.5698354075270222,left,both,ambiguous-switch,54,3,left,right,0.141
SMB1998WRNO,2020-02-05-16-25-55,5,7,0.5206001899101851,left,probe,biased-switch,-1,18,left,left,0.313
SMB1998WRNO,2020-02-05-16-25-55,5,8,0.5865439333778525,left,both,biased-switch,61,18,left,left,0.132
SMB1998WRNO,2020-02-05-16-25-55,5,9,0.6460226939197085,left,probe,biased-switch,-1,-12,right,right,0.175
SMB1998WRNO,2020-02-05-16-25-55,5,10,0.5584778360241393,left,both,biased-switch,57,-12,right,left,0.074
SMB1998WRNO,2020-02-05-16-25-55,5,11,0.679921451746353,left,probe,ambiguous-switch,-1,18,left,left,0.247
SMB1998WRNO,2020-02-05-16-25-55,5,12,0.5447258829238157,left,both,ambiguous-switch,62,18,left,right,0.092
SMB1998WRNO,2020-02-05-16-25-55,5,13,0.670682998108101,right,probe,biased-switch,-1,24,left,left,0.54
SMB1998WRNO,2020-02-05-16-25-55,5,14,0.6293449614656472,right,both,biased-switch,66,24,left,left,0.161
SMB1998WRNO,2020-02-05-16-25-55,5,15,0.6715462922896015,right,probe,biased-switch,-1,-3,left,left,0.105
SMB1998WRNO,2020-02-05-16-25-55,5,16,0.5540683811426245,right,both,biased-switch,66,-3,left,right,0.101
SMB1998WRNO,2020-02-05-16-25-55,5,17,0.5996114300191528,left,probe,biased-switch,-1,-6,left,left,0.358
SMB1998WRNO,2020-02-05-16-25-55,5,18,0.5557027414766547,left,both,biased-switch,66,-6,left,left,0.216
SMB1998WRNO,2020-02-05-16-25-55,5,19,0.5502832212930221,left,probe,ambiguous-switch,-1,6,left,left,0.259
SMB1998WRNO,2020-02-05-16-25-55,5,20,0.6163842003452196,left,both,ambiguous-switch,64,6,left,left,0.075
SMB1998WRNO,2020-02-05-16-25-55,5,21,0.5127971341156714,left,probe,ambiguous-switch,-1,-3,left,left,0.36
SMB1998WRNO,2020-02-05-16-25-55,5,22,0.6400825292295345,left,both,ambiguous-switch,61,-3,left,left,1.288
SMB1998WRNO,2020-02-05-16-25-55,5,23,0.6115323267365781,right,probe,biased-switch,-1,6,left,left,0.231
SMB1998WRNO,2020-02-05-16-25-55,5,24,0.5267428211353378,right,both,biased-switch,64,6,left,right,0.181
SMB1998WRNO,2020-02-05-16-25-55,5,25,0.6307290023980464,right,probe,biased-switch,-1,-18,left,left,0.209
SMB1998WRNO,2020-02-05-16-25-55,5,26,0.6242770830326195,right,both,biased-switch,59,-18,left,left,0.214
SMB1998WRNO,2020-02-05-16-25-55,5,27,0.6012177119927851,right,probe,biased-switch,-1,3,left,left,0.181
SMB1998WRNO,2020-02-05-16-25-55,5,28,0.6886405458905221,right,both,biased-switch,55,3,left,left,0.028
SMB1998WRNO,2020-02-05-16-25-55,5,29,0.5830821913520582,right,probe,ambiguous-switch,-1,0,left,left,2.027
SMB1998WRNO,2020-02-05-16-25-55,5,30,0.5348837238437802,right,both,ambiguous-switch,59,0,left,left,2.058
SMB1998WRNO,2020-02-05-16-25-55,5,31,0.6898746475856562,left,probe,ambiguous-switch,-1,-18,left,left,0.323
SMB1998WRNO,2020-02-05-16-25-55,5,32,0.6374546628693373,left,both,ambiguous-switch,59,-18,left,left,0.343
SMB1998WRNO,2020-02-05-16-25-55,5,33,0.5297056582614114,left,probe,biased-switch,-1,0,left,left,0.405
SMB1998WRNO,2020-02-05-16-25-55,5,34,0.5973599409421421,left,both,biased-switch,59,0,left,left,0.206
SMB1998WRNO,2020-02-05-16-25-55,5,35,0.6974247316027533,left,probe,ambiguous-switch,-1,12,left,left,0.215
SMB1998WRNO,2020-02-05-16-25-55,5,36,0.5105099118917935,left,both,ambiguous-switch,62,12,left,left,0.202
SMB1998WRNO,2020-02-05-16-25-55,5,37,0.554579906878621,right,probe,ambiguous-switch,-1,-12,left,left,0.257
SMB1998WRNO,2020-02-05-16-25-55,5,38,0.5970574446281938,right,both,ambiguous-switch,64,-12,left,right,0.213
SMB1998WRNO,2020-02-05-16-25-55,5,39,0.5278137251776712,left,probe,biased-switch,-1,12,left,left,0.155
SMB1998WRNO,2020-02-05-16-25-55,5,40,0.5944573276249215,left,both,biased-switch,59,12,left,left,0.258
SMB1998WRNO,2020-02-05-16-25-55,5,41,0.6891013191398745,left,probe,ambiguous-switch,-1,24,left,left,0.241
SMB1998WRNO,2020-02-05-16-25-55,5,42,0.544795545542236,left,both,ambiguous-switch,57,24,left,left,0.157
SMB1998WRNO,2020-02-05-16-25-55,5,43,0.505579413788338,right,probe,ambiguous-switch,-1,-6,left,left,0.009
SMB1998WRNO,2020-02-05-16-25-55,5,44,0.5025182710808451,right,both,ambiguous-switch,58,-6,left,left,0.232
SMB1998WRNO,2020-02-05-16-25-55,5,45,0.5128161744388865,left,probe,ambiguous-switch,-1,3,left,left,0.268
SMB1998WRNO,2020-02-05-16-25-55,5,46,0.6921904590874394,left,both,ambiguous-switch,64,3,left,left,0.218
SMB1998WRNO,2020-02-05-16-25-55,5,47,0.558573356379025,right,probe,biased-switch,-1,18,left,left,0.368
SMB1998WRNO,2020-02-05-16-25-55,5,48,0.5765455320860471,right,both,biased-switch,55,18,left,left,0.14
SMB1998WRNO,2020-02-05-16-25-55,5,49,0.5076618158641744,right,probe,biased-switch,-1,-12,left,left,0.35
SMB1998WRNO,2020-02-05-16-25-55,5,50,0.6175560411823756,right,both,biased-switch,65,-12,left,left,0.425
SMB1998WRNO,2020-02-05-16-25-55,5,51,0.6640170063685089,right,probe,ambiguous-switch,-1,18,left,left,0.316
SMB1998WRNO,2020-02-05-16-25-55,5,52,0.6409825916700924,right,both,ambiguous-switch,66,18,left,left,1.741
SMB1998WRNO,2020-02-05-16-25-55,5,53,0.6449390223283115,right,probe,biased-switch,-1,24,left,left,0.725
SMB1998WRNO,2020-02-05-16-25-55,5,54,0.6084503632141588,right,both,biased-switch,60,24,left,left,0.197
SMB1998WRNO,2020-02-05-16-25-55,5,55,0.6589857281089891,left,probe,biased-switch,-1,-3,right,right,0.581
SMB1998WRNO,2020-02-05-16-25-55,5,56,0.6985144960499097,left,both,biased-switch,63,-3,right,left,0.127
SMB1998WRNO,2020-02-05-16-25-55,5,57,0.5547916403768279,right,probe,biased-switch,-1,-6,left,left,0.179
SMB1998WRNO,2020-02-05-16-25-55,5,58,0.5366884135377202,right,both,biased-switch,65,-6,left,left,0.213
SMB1998WRNO,2020-02-05-16-25-55,5,59,0.6489884275683486,left,probe,ambiguous-switch,-1,6,left,left,0.291
SMB1998WRNO,2020-02-05-16-25-55,5,60,0.5701286112057293,left,both,ambiguous-switch,65,6,left,right,0.175
SMB1998WRNO,2020-02-05-16-25-55,5,61,0.5536399048618363,right,probe,ambiguous-switch,-1,-3,left,left,0.172
SMB1998WRNO,2020-02-05-16-25-55,5,62,0.6785311862540887,right,both,ambiguous-switch,60,-3,left,left,0.105
SMB1998WRNO,2020-02-05-16-25-55,5,63,0.5998271211152509,left,probe,biased-switch,-1,6,left,left,0.258
SMB1998WRNO,2020-02-05-16-25-55,5,64,0.5017771952762017,left,both,biased-switch,56,6,left,right,1.83
SMB1998WRNO,2020-02-05-16-25-55,5,65,0.5080916743274795,right,probe,biased-switch,-1,-18,left,left,0.581
SMB1998WRNO,2020-02-05-16-25-55,5,66,0.6420159956801755,right,both,biased-switch,62,-18,left,left,0.104
SMB1998WRNO,2020-02-05-16-25-55,5,67,0.6580590040182395,left,probe,biased-switch,-1,3,left,left,0.217
SMB1998WRNO,2020-02-05-16-25-55,5,68,0.574969295767422,left,both,biased-switch,58,3,left,left,0.243
SMB1998WRNO,2020-02-05-16-25-55,5,69,0.5483632542841015,right,probe,ambiguous-switch,-1,0,left,left,0.283
SMB1998WRNO,2020-02-05-16-25-55,5,70,0.5201971340755825,right,both,ambiguous-switch,58,0,left,right,0.253
SMB1998WRNO,2020-02-05-16-25-55,5,71,0.6742174496521478,right,probe,ambiguous-switch,-1,-18,left,left,0.2
SMB1998WRNO,2020-02-05-16-25-55,5,72,0.515205615385121,right,both,ambiguous-switch,62,-18,left,left,0.136
SMB1998WRNO,2020-02-05-16-25-55,5,73,0.5354171017449327,right,probe,biased-switch,-1,0,left,left,0.178
SMB1998WRNO,2020-02-05-16-25-55,5,74,0.5980502602559602,right,both,biased-switch,64,0,left,right,0.19
SMB1998WRNO,2020-02-05-16-25-55,5,75,0.56531051647481,left,probe,ambiguous-switch,-1,12,right,right,0.241
SMB1998WRNO,2020-02-05-16-25-55,5,76,0.6314837697179467,left,both,ambiguous-switch,60,12,right,left,0.197
SMB1998WRNO,2020-02-05-16-25-55,5,77,0.5379983386661342,right,probe,ambiguous-switch,-1,-12,left,left,0.139
SMB1998WRNO,2020-02-05-16-25-55,5,78,0.6431989503708232,right,both,ambiguous-switch,58,-12,left,right,0.166
SMB1998WRNO,2020-02-05-16-25-55,5,79,0.6977356075020872,right,probe,biased-switch,-1,12,left,left,0.194
SMB1998WRNO,2020-02-05-16-25-55,5,80,0.5230828903692532,right,both,biased-switch,63,12,left,left,0.083
SMB1998WRNO,2020-02-05-16-25-55,6,1,0.595886006812857,left,probe,biased-switch,-1,12,left,left,0.259
SMB1998WRNO,2020-02-05-16-25-55,6,2,0.5157401974627936,left,both,biased-switch,57,12,left,right,0.167
SMB1998WRNO,2020-02-05-16-25-55,6,3,0.608232017087844,right,probe,biased-switch,-1,-6,left,left,0.205
SMB1998WRNO,2020-02-05-16-25-55,6,4,0.6529799139414016,right,both,biased-switch,66,-6,left,right,0.11
SMB1998WRNO,2020-02-05-16-25-55,6,5,0.646419830419449,left,probe,ambiguous-switch,-1,-3,left,left,0.197
SMB1998WRNO,2020-02-05-16-25-55,6,6,0.5527496151178168,left,both,ambiguous-switch,59,-3,left,right,0.073
SMB1998WRNO,2020-02-05-16-25-55,6,7,0.6006448370190642,left,probe,ambiguous-switch,-1,-6,left,left,0.221
SMB1998WRNO,2020-02-05-16-25-55,6,8,0.5296311772218429,left,both,ambiguous-switch,62,-6,left,right,0.038
SMB1998WRNO,2020-02-05-16-25-55,6,9,0.6426514178526734,right,probe,ambiguous-switch,-1,-18,left,left,0.175
SMB1998WRNO,2020-02-05-16-25-55,6,10,0.6945194048990417,right,both,ambiguous-switch,59,-18,left,right,1.109
SMB1998WRNO,2020-02-05-16-25-55,6,11,0.6262614995419135,right,probe,ambiguous-switch,-1,12,right,right,0.217
SMB1998WRNO,2020-02-05-16-25-55,6,12,0.5161930199327777,right,both,ambiguous-switch,58,12,right,right,0.179
SMB1998WRNO,2020-02-05-16-25-55,6,13,0.5834725752764031,right,probe,ambiguous-switch,-1,-12,right,right,0.29
SMB1998WRNO,2020-02-05-16-25-55,6,14,0.5829029976315132,right,both,ambiguous-switch,61,-12,right,left,0.008
SMB1998WRNO,2020-02-05-16-25-55,6,15,0.6607003546955503,left,probe,biased-switch,-1,-12,right,right,0.173
SMB1998WRNO,2020-02-05-16-25-55,6,16,0.5246948925208789,left,both,biased-switch,63,-12,right,right,0.034
SMB1998WRNO,2020-02-05-16-25-55,6,17,0.5763379086000009,left,probe,biased-switch,-1,0,right,right,0.187
SMB1998WRNO,2020-02-05-16-25-55,6,18,0.6580886822073377,left,both,biased-switch,63,0,right,right,0.206
SMB1998WRNO,2020-02-05-16-25-55,6,19,0.5037489895475022,left,probe,biased-switch,-1,18,right,right,0.287
SMB1998WRNO,2020-02-05-16-25-55,6,20,0.5017701722348348,left,both,biased-switch,57,18,right,right,0.192
SMB1998WRNO,2020-02-05-16-25-55,6,21,0.602946724940377,left,probe,ambiguous-switch,-1,3,right,right,0.189
SMB1998WRNO,2020-02-05-16-25-55,6,22,0.549382596863394,left,both,ambiguous-switch,58,3,right,left,0.207
SMB1998WRNO,2020-02-05-16-25-55,6,23,0.6155072111977957,right,probe,ambiguous-switch,-1,0,right,right,0.177
SMB1998WRNO,2020-02-05-16-25-55,6,24,0.6445049016149371,right,both,ambiguous-switch,63,0,right,right,0.246
SMB1998WRNO,2020-02-05-16-25-55,6,25,0.5766653674430363,left,probe,biased-switch,-1,24,right,right,0.223
SMB1998WRNO,2020-02-05-16-25-55,6,26,0.6696632786305711,left,both,biased-switch,58,24,right,right,0.172
SMB1998WRNO,2020-02-05-16-25-55,6,27,0.647709824104432,left,probe,biased-switch,-1,3,right,right,0.327
SMB1998WRNO,2020-02-05-16-25-55,6,28,0.6710097044548877,left,both,biased-switch,58,3,right,left,0.143
SMB1998WRNO,2020-02-05-16-25-55,6,29,0.6080504757166182,right,probe,biased-switch,-1,6,right,right,0.298
SMB1998WRNO,2020-02-05-16-25-55,6,30,0.5069542786031072,right,both,biased-switch,63,6,right,right,0.213
SMB1998WRNO,2020-02-05-16-25-55,6,31,0.5000369608217787,right,probe,biased-switch,-1,-3,right,right,0.261
SMB1998WRNO,2020-02-05-16-25-55,6,32,0.5132061069153491,right,both,biased-switch,63,-3,right,right,0.064
SMB1998WRNO,2020-02-05-16-25-55,6,33,0.5161820347354618,right,probe,ambiguous-switch,-1,18,right,right,0.108
SMB1998WRNO,2020-02-05-16-25-55,6,34,0.5230353934657517,right,both,ambiguous-switch,54,18,right,right,0.128
SMB1998WRNO,2020-02-05-16-25-55,6,35,0.6748014183829372,left,probe,ambiguous-switch,-1,6,right,right,0.186
SMB1998WRNO,2020-02-05-16-25-55,6,36,0.6850501743485943,left,both,ambiguous-switch,61,6,right,left,0.2
SMB1998WRNO,2020-02-05-16-25-55,6,37,0.5130543453811036,right,probe,biased-switch,-1,-18,right,right,0.192
SMB1998WRNO,2020-02-05-16-25-55,6,38,0.6923893474931326,right,both,biased-switch,59,-18,right,right,0.002
SMB1998WRNO,2020-02-05-16-25-55,6,39,0.5869811697542421,right,probe,ambiguous-switch,-1,24,right,right,0.17
SMB1998WRNO,2020-02-05-16-25-55,6,40,0.5582831240042193,right,both,ambiguous-switch,54,24,right,right,0.174
SMB1998WRNO,2020-02-05-16-25-55,6,41,0.6705803623275478,right,probe,biased-switch,-1,12,right,right,0.196
SMB1998WRNO,2020-02-05-16-25-55,6,42,0.5061364204687625,right,both,biased-switch,65,12,right,right,0.422
SMB1998WRNO,2020-02-05-16-25-55,6,43,0.6786901867601758,left,probe,biased-switch,-1,-6,right,right,0.276
SMB1998WRNO,2020-02-05-16-25-55,6,44,0.627655880763998,left,both,biased-switch,60,-6,right,right,0.251
SMB1998WRNO,2020-02-05-16-25-55,6,45,0.560645176669403,right,probe,ambiguous-switch,-1,-3,right,right,0.017
SMB1998WRNO,2020-02-05-16-25-55,6,46,0.64670267877744,right,both,ambiguous-switch,63,-3,right,right,0.046
SMB1998WRNO,2020-02-05-16-25-55,6,47,0.6703971285404395,right,probe,ambiguous-switch,-1,-6,right,right,0.114
SMB1998WRNO,2020-02-05-16-25-55,6,48,0.5300896433955046,right,both,ambiguous-switch,66,-6,right,right,1.504
SMB1998WRNO,2020-02-05-16-25-55,6,49,0.6860101297399187,right,probe,ambiguous-switch,-1,-18,right,right,0.259
SMB1998WRNO,2020-02-05-16-25-55,6,50,0.5890634120633734,right,both,ambiguous-switch,58,-18,right,right,0.371
SMB1998WRNO,2020-02-05-16-25-55,6,51,0.653527419223522,left,probe,ambiguous-switch,-1,12,right,right,0.543
SMB1998WRNO,2020-02-05-16-25-55,6,52,0.5190235762491602,left,both,ambiguous-switch,56,12,right,right,0.15
SMB1998WRNO,2020-02-05-16-25-55,6,53,0.5313862317250236,left,probe,ambiguous-switch,-1,-12,right,right,0.175
SMB1998WRNO,2020-02-05-16-25-55,6,54,0.5020430783580295,left,both,ambiguous-switch,62,-12,right,right,0.161
SMB1998WRNO,2020-02-05-16-25-55,6,55,0.55287483791177,left,probe,biased-switch,-1,-12,right,right,0.246
SMB1998WRNO,2020-02-05-16-25-55,6,56,0.5925577258316526,left,both,biased-switch,60,-12,right,right,0.039
SMB1998WRNO,2020-02-05-16-25-55,6,57,0.5305432850796854,left,probe,biased-switch,-1,0,right,right,0.294
SMB1998WRNO,2020-02-05-16-25-55,6,58,0.5728502659513388,left,both,biased-switch,56,0,right,right,0.294
SMB1998WRNO,2020-02-05-16-25-55,6,59,0.537974402778417,right,probe,biased-switch,-1,18,right,right,0.2
SMB1998WRNO,2020-02-05-16-25-55,6,60,0.5316433633748817,right,both,biased-switch,58,18,right,right,0.058
SMB1998WRNO,2020-02-05-16-25-55,6,61,0.6365353794138466,left,probe,ambiguous-switch,-1,3,right,right,0.253
SMB1998WRNO,2020-02-05-16-25-55,6,62,0.6353101383672943,left,both,ambiguous-switch,58,3,right,right,0.159
SMB1998WRNO,2020-02-05-16-25-55,6,63,0.6821515476458087,left,probe,ambiguous-switch,-1,0,right,right,0.175
SMB1998WRNO,2020-02-05-16-25-55,6,64,0.6437557299840826,left,both,ambiguous-switch,62,0,right,right,0.185
SMB1998WRNO,2020-02-05-16-25-55,6,65,0.5045282562510672,left,probe,biased-switch,-1,24,right,right,0.364
SMB1998WRNO,2020-02-05-16-25-55,6,66,0.6487850833562043,left,both,biased-switch,65,24,right,right,0.184
SMB1998WRNO,2020-02-05-16-25-55,6,67,0.5482090011671087,right,probe,biased-switch,-1,3,right,right,0.302
SMB1998WRNO,2020-02-05-16-25-55,6,68,0.6450953162445582,right,both,biased-switch,64,3,right,right,0.257
SMB1998WRNO,2020-02-05-16-25-55,6,69,0.6727204666991888,left,probe,biased-switch,-1,6,right,right,0.25
SMB1998WRNO,2020-02-05-16-25-55,6,70,0.6429892092699578,left,both,biased-switch,55,6,right,right,0.26
SMB1998WRNO,2020-02-05-16-25-55,6,71,0.6869716758005355,right,probe,biased-switch,-1,-3,right,right,0.337
SMB1998WRNO,2020-02-05-16-25-55,6,72,0.6266321910410291,right,both,biased-switch,62,-3,right,right,0.165
SMB1998WRNO,2020-02-05-16-25-55,6,73,0.5017273180127889,left,probe,ambiguous-switch,-1,18,right,right,0.223
SMB1998WRNO,2020-02-05-16-25-55,6,74,0.6666558107338028,left,both,ambiguous-switch,65,18,right,right,0.167
SMB1998WRNO,2020-02-05-16-25-55,6,75,0.6081831171993328,left,probe,ambiguous-switch,-1,6,right,right,0.311
SMB1998WRNO,2020-02-05-16-25-55,6,76,0.5376396096391888,left,both,ambiguous-switch,65,6,right,right,0.2
SMB1998WRNO,2020-02-05-16-25-55,6,77,0.6376273334456092,left,probe,biased-switch,-1,-18,right,right,0.071
SMB1998WRNO,2020-02-05-16-25-55,6,78,0.6577228449105089,left,both,biased-switch,63,-18,right,right,1.722
SMB1998WRNO,2020-02-05-16-25-55,6,79,0.6382091407427942,left,probe,ambiguous-switch,-1,24,right,right,0.398
SMB1998WRNO,2020-02-05-16-25-55,6,80,0.528613028223538,left,both,ambiguous-switch,57,24,right,right,0.234
SMB1998WRNO,2020-02-05-16-25-55,7,1,0.6327063791666308,left,probe,biased-switch,-1,18,right,right,0.256
SMB1998WRNO,2020-02-05-16-25-55,7,2,0.5726176633411942,left,both,biased-switch,61,18,right,right,0.235
SMB1998WRNO,2020-02-05-16-25-55,7,3,0.5453349265408551,left,probe,biased-switch,-1,0,right,right,0.253
SMB1998WRNO,2020-02-05-16-25-55,7,4,0.6345178683460686,left,both,biased-switch,62,0,right,right,0.099
SMB1998WRNO,2020-02-05-16-25-55,7,5,0.5272373876512318,right,probe,ambiguous-switch,-1,-18,right,right,0.178
SMB1998WRNO,2020-02-05-16-25-55,7,6,0.6536634714987195,right,both,ambiguous-switch,65,-18,right,right,0.38
SMB1998WRNO,2020-02-05-16-25-55,7,7,0.5313744006329081,right,probe,biased-switch,-1,-3,right,right,0.276
SMB1998WRNO,2020-02-05-16-25-55,7,8,0.659282215942226,right,both,biased-switch,59,-3,right,left,0.188
SMB1998WRNO,2020-02-05-16-25-55,7,9,0.5414738322387783,left,probe,biased-switch,-1,6,right,right,0.246
SMB1998WRNO,2020-02-05-16-25-55,7,10,0.5926917147887139,left,both,biased-switch,62,6,right,left,0.19
SMB1998WRNO,2020-02-05-16-25-55,7,11,0.632945340637413,left,probe,biased-switch,-1,-18,right,right,0.17
SMB1998WRNO,2020-02-05-16-25-55,7,12,0.6211799690545371,left,both,biased-switch,57,-18,right,right,0.088
SMB1998WRNO,2020-02-05-16-25-55,7,13,0.5912291569548664,left,probe,ambiguous-switch,-1,18,right,right,0.193
SMB1998WRNO,2020-02-05-16-25-55,7,14,0.5865078217289561,left,both,ambiguous-switch,66,18,right,right,0.881
SMB1998WRNO,2020-02-05-16-25-55,7,15,0.5352981712361118,right,probe,ambiguous-switch,-1,-6,right,right,0.323
SMB1998WRNO,2020-02-05-16-25-55,7,16,0.6814422294712851,right,both,ambiguous-switch,61,-6,right,right,0.114
SMB1998WRNO,2020-02-05-16-25-55,7,17,0.5516255323591377,right,probe,ambiguous-switch,-1,24,right,right,0.375
SMB1998WRNO,2020-02-05-16-25-55,7,18,0.6942808631419006,right,both,ambiguous-switch,59,24,right,right,0.269
SMB1998WRNO,2020-02-05-16-25-55,7,19,0.6006276324361112,right,probe,ambiguous-switch,-1,3,right,right,0.31
SMB1998WRNO,2020-02-05-16-25-55,7,20,0.565045027805533,right,both,ambiguous-switch,57,3,right,left,0.103
SMB1998WRNO,2020-02-05-16-25-55,7,21,0.6076937033839904,left,probe,biased-switch,-1,3,right,right,0.188
SMB1998WRNO,2020-02-05-16-25-55,7,22,0.6716972374422083,left,both,biased-switch,64,3,right,left,0.232
SMB1998WRNO,2020-02-05-16-25-55,7,23,0.6105901902617452,left,probe,biased-switch,-1,12,left,left,0.943
SMB1998WRNO,2020-02-05-16-25-55,7,24,0.6452410623877236,left,both,biased-switch,59,12,left,right,0.112
SMB1998WRNO,2020-02-05-16-25-55,7,25,0.6037336388673364,left,probe,biased-switch,-1,-6,right,right,0.433
SMB1998WRNO,2020-02-05-16-25-55,7,26,0.6431688028140851,left,both,biased-switch,63,-6,right,right,0.124
SMB1998WRNO,2020-02-05-16-25-55,7,27,0.512952299704788,left,probe,ambiguous-switch,-1,-12,right,right,0.163
SMB1998WRNO,2020-02-05-16-25-55,7,28,0.5409185172685725,left,both,ambiguous-switch,58,-12,right,right,0.204
SMB1998WRNO,2020-02-05-16-25-55,7,29,0.551491348565263,left,probe,ambiguous-switch,-1,0,right,right,0.174
SMB1998WRNO,2020-02-05-16-25-55,7,30,0.5448392649153025,left,both,ambiguous-switch,62,0,right,left,0.196
SMB1998WRNO,2020-02-05-16-25-55,7,31,0.6174503762010114,left,probe,ambiguous-switch,-1,-3,left,left,0.191
SMB1998WRNO,2020-02-05-16-25-55,7,32,0.5227261671227871,left,both,ambiguous-switch,58,-3,left,left,0.201
SMB1998WRNO,2020-02-05-16-25-55,7,33,0.502685394423646,left,probe,ambiguous-switch,-1,12,right,right,0.171
SMB1998WRNO,2020-02-05-16-25-55,7,34,0.6590550025305953,left,both,ambiguous-switch,57,12,right,left,0.143
SMB1998WRNO,2020-02-05-16-25-55,7,35,0.5933271790166939,right,probe,biased-switch,-1,24,left,left,0.313
SMB1998WRNO,2020-02-05-16-25-55,7,36,0.5982186544762597,right,both,biased-switch,58,24,left,left,0.218
SMB1998WRNO,2020-02-05-16-25-55,7,37,0.5285081092413715,right,probe,biased-switch,-1,-12,left,left,0.191
SMB1998WRNO,2020-02-05-16-25-55,7,38,0.6032655030359676,right,both,biased-switch,58,-12,left,left,0.104
SMB1998WRNO,2020-02-05-16-25-55,7,39,0.630287239958342,left,probe,ambiguous-switch,-1,6,left,left,0.465
SMB1998WRNO,2020-02-05-16-25-55,7,40,0.67219562012704,left,both,ambiguous-switch,64,6,left,left,0.108
SMB1998WRNO,2020-02-05-16-25-55,7,41,0.5878922736729868,right,probe,biased-switch,-1,18,left,left,0.185
SMB1998WRNO,2020-02-05-16-25-55,7,42,0.5717032256687408,right,both,biased-switch,66,18,left,left,0.191
SMB1998WRNO,2020-02-05-16-25-55,7,43,0.6440573129471862,left,probe,biased-switch,-1,0,left,left,0.089
SMB1998WRNO,2020-02-05-16-25-55,7,44,0.6468697590948382,left,both,biased-switch,55,0,left,right,0.178
SMB1998WRNO,2020-02-05-16-25-55,7,45,0.5988017970958183,right,probe,ambiguous-switch,-1,-18,left,left,1.491
SMB1998WRNO,2020-02-05-16-25-55,7,46,0.5188678845923724,right,both,ambiguous-switch,56,-18,left,left,0.344
SMB1998WRNO,2020-02-05-16-25-55,7,47,0.5154781109901271,left,probe,biased-switch,-1,-3,right,right,0.28
SMB1998WRNO,2020-02-05-16-25-55,7,48,0.6247466345558835,left,both,biased-switch,60,-3,right,left,0.174
SMB1998WRNO,2020-02-05-16-25-55,7,49,0.5651797575983122,right,probe,biased-switch,-1,6,left,left,0.15
SMB1998WRNO,2020-02-05-16-25-55,7,50,0.64141867948865,right,both,biased-switch,59,6,left,right,0.17
SMB1998WRNO,2020-02-05-16-25-55,7,51,0.6331210837752408,right,probe,biased-switch,-1,-18,right,right,0.211
SMB1998WRNO,2020-02-05-16-25-55,7,52,0.6951540399060603,right,both,biased-switch,64,-18,right,left,0.057
SMB1998WRNO,2020-02-05-16-25-55,7,53,0.6438744438887044,left,probe,ambiguous-switch,-1,18,left,left,0.317
SMB1998WRNO,2020-02-05-16-25-55,7,54,0.5785051732984868,left,both,ambiguous-switch,62,18,left,right,0.238
SMB1998WRNO,2020-02-05-16-25-55,7,55,0.6870340645575075,right,probe,ambiguous-switch,-1,-6,left,left,0.216
SMB1998WRNO,2020-02-05-16-25-55,7,56,0.6254131315226651,right,both,ambiguous-switch,64,-6,left,left,0.247
SMB1998WRNO,2020-02-05-16-25-55,7,57,0.5477497349612508,right,probe,ambiguous-switch,-1,24,left,left,0.361
SMB1998WRNO,2020-02-05-16-25-55,7,58,0.6171334536590808,right,both,ambiguous-switch,54,24,left,left,0.208
SMB1998WRNO,2020-02-05-16-25-55,7,59,0.6355294792784565,left,probe,ambiguous-switch,-1,3,left,left,0.494
SMB1998WRNO,2020-02-05-16-25-55,7,60,0.5349170647402206,left,both,ambiguous-switch,60,3,left,right,0.037
SMB1998WRNO,2020-02-05-16-25-55,7,61,0.6379743174338011,right,probe,biased-switch,-1,3,left,left,0.159
SMB1998WRNO,2020-02-05-16-25-55,7,62,0.5776632268655004,right,both,biased-switch,61,3,left,right,0.261
SMB1998WRNO,2020-02-05-16-25-55,7,63,0.6643421805945157,left,probe,biased-switch,-1,12,left,left,0.296
SMB1998WRNO,2020-02-05-16-25-55,7,64,0.636104056072978,left,both,biased-switch,60,12,left,left,0.28
SMB1998WRNO,2020-02-05-16-25-55,7,65,0.5644512630326322,right,probe,biased-switch,-1,-6,left,left,0.228
SMB1998WRNO,2020-02-05-16-25-55,7,66,0.6430007753113159,right,both,biased-switch,56,-6,left,right,0.127
SMB1998WRNO,2020-02-05-16-25-55,7,67,0.6145946869144859,right,probe,ambiguous-switch,-1,-12,left,left,1.339
SMB1998WRNO,2020-02-05-16-25-55,7,68,0.5646072166151422,right,both,ambiguous-switch,56,-12,left,left,0.369
SMB1998WRNO,2020-02-05-16-25-55,7,69,0.6844633485494904,right,probe,ambiguous-switch,-1,0,left,left,0.256
SMB1998WRNO,2020-02-05-16-25-55,7,70,0.6014950065976729,right,both,ambiguous-switch,55,0,left,left,0.352
SMB1998WRNO,2020-02-05-16-25-55,7,71,0.6406406185293314,right,probe,ambiguous-switch,-1,-3,left,left,0.294
SMB1998WRNO,2020-02-05-16-25-55,7,72,0.6807288734941965,right,both,ambiguous-switch,65,-3,left,left,0.226
SMB1998WRNO,2020-02-05-16-25-55,7,73,0.5532543535665368,left,probe,ambiguous-switch,-1,12,left,left,0.54
SMB1998WRNO,2020-02-05-16-25-55,7,74,0.6190004845322172,left,both,ambiguous-switch,60,12,left,right,0.298
SMB1998WRNO,2020-02-05-16-25-55,7,75,0.5094646094376691,right,probe,biased-switch,-1,24,left,left,0.336
SMB1998WRNO,2020-02-05-16-25-55,7,76,0.6372564882660272,right,both,biased-switch,56,24,left,left,0.24
SMB1998WRNO,2020-02-05-16-25-55,7,77,0.6341833836855131,right,probe,biased-switch,-1,-12,left,left,0.215
SMB1998WRNO,2020-02-05-16-25-55,7,78,0.5448092176795083,right,both,biased-switch,65,-12,left,left,0.137
SMB1998WRNO,2020-02-05-16-25-55,7,79,0.6377882930585888,left,probe,ambiguous-switch,-1,6,left,left,0.232
SMB1998WRNO,2020-02-05-16-25-55,7,80,0.5480733641523661,left,both,ambiguous-switch,65,6,left,right,0.259
SMB1998WRNO,2020-02-05-16-25-55,8,1,0.604038327896461,right,probe,biased-switch,-1,18,right,right,0.268
SMB1998WRNO,2020-02-05-16-25-55,8,2,0.653022241148875,right,both,biased-switch,63,18,right,left,0.108
SMB1998WRNO,2020-02-05-16-25-55,8,3,0.6203127983981299,left,probe,ambiguous-switch,-1,0,right,right,0.072
SMB1998WRNO,2020-02-05-16-25-55,8,4,0.589728994306026,left,both,ambiguous-switch,55,0,right,left,0.095
SMB1998WRNO,2020-02-05-16-25-55,8,5,0.6851624419491771,left,probe,biased-switch,-1,6,left,left,0.189
SMB1998WRNO,2020-02-05-16-25-55,8,6,0.5368513033911946,left,both,biased-switch,57,6,left,right,0.196
SMB1998WRNO,2020-02-05-16-25-55,8,7,0.5639857830992916,right,probe,biased-switch,-1,-18,left,left,0.281
SMB1998WRNO,2020-02-05-16-25-55,8,8,0.6419227175370895,right,both,biased-switch,61,-18,left,left,0.21
SMB1998WRNO,2020-02-05-16-25-55,8,9,0.5427175227147676,left,probe,ambiguous-switch,-1,-3,left,left,0.273
SMB1998WRNO,2020-02-05-16-25-55,8,10,0.5927103361128094,left,both,ambiguous-switch,55,-3,left,left,0.178
SMB1998WRNO,2020-02-05-16-25-55,8,11,0.5242892849568748,right,probe,ambiguous-switch,-1,18,left,left,0.309
SMB1998WRNO,2020-02-05-16-25-55,8,12,0.6476891585192579,right,both,ambiguous-switch,63,18,left,right,0.144
SMB1998WRNO,2020-02-05-16-25-55,8,13,0.699169732018802,right,probe,biased-switch,-1,-3,left,left,0.281
SMB1998WRNO,2020-02-05-16-25-55,8,14,0.568510217237461,right,both,biased-switch,57,-3,left,right,0.249
SMB1998WRNO,2020-02-05-16-25-55,8,15,0.5010243692569777,left,probe,ambiguous-switch,-1,24,left,left,0.58
SMB1998WRNO,2020-02-05-16-25-55,8,16,0.5140867660979505,left,both,ambiguous-switch,54,24,left,right,0.238
SMB1998WRNO,2020-02-05-16-25-55,8,17,0.5840878163727353,right,probe,biased-switch,-1,3,right,right,0.297
SMB1998WRNO,2020-02-05-16-25-55,8,18,0.6563836031603999,right,both,biased-switch,66,3,right,left,1.861
SMB1998WRNO,2020-02-05-16-25-55,8,19,0.6152958013891539,left,probe,ambiguous-switch,-1,-12,right,right,0.226
SMB1998WRNO,2020-02-05-16-25-55,8,20,0.5995243820667848,left,both,ambiguous-switch,59,-12,right,right,0.148
SMB1998WRNO,2020-02-05-16-25-55,8,21,0.6619431539084539,right,probe,ambiguous-switch,-1,-18,left,left,0.22
SMB1998WRNO,2020-02-05-16-25-55,8,22,0.581869417530993,right,both,ambiguous-switch,54,-18,left,right,0.079
SMB1998WRNO,2020-02-05-16-25-55,8,23,0.6357073111175484,right,probe,biased-switch,-1,0,left,left,0.387
SMB1998WRNO,2020-02-05-16-25-55,8,24,0.5860279584573034,right,both,biased-switch,65,0,left,right,0.211
SMB1998WRNO,2020-02-05-16-25-55,8,25,0.5041598041422327,left,probe,biased-switch,-1,24,right,right,0.786
SMB1998WRNO,2020-02-05-16-25-55,8,26,0.6359370448092657,left,both,biased-switch,57,24,right,left,0.322
SMB1998WRNO,2020-02-05-16-25-55,8,27,0.6836577984201021,right,probe,biased-switch,-1,-12,left,left,0.613
SMB1998WRNO,2020-02-05-16-25-55,8,28,0.6904095509454871,right,both,biased-switch,58,-12,left,right,0.073
SMB1998WRNO,2020-02-05-16-25-55,8,29,0.6177012724031575,left,probe,ambiguous-switch,-1,-6,left,left,0.78
SMB1998WRNO,2020-02-05-16-25-55,8,30,0.5115356668152131,left,both,ambiguous-switch,64,-6,left,left,0.46
SMB1998WRNO,2020-02-05-16-25-55,8,31,0.6002047148834401,left,probe,ambiguous-switch,-1,3,left,left,0.685
SMB1998WRNO,2020-02-05-16-25-55,8,32,0.5214070683401364,left,both,ambiguous-switch,55,3,left,left,0.243
SMB1998WRNO,2020-02-05-16-25-55,8,33,0.6198719692944833,right,probe,ambiguous-switch,-1,6,left,left,0.252
SMB1998WRNO,2020-02-05-16-25-55,8,34,0.5037774364081736,right,both,ambiguous-switch,54,6,left,right,1.39
SMB1998WRNO,2020-02-05-16-25-55,8,35,0.5488298712534121,right,probe,ambiguous-switch,-1,12,left,left,0.361
SMB1998WRNO,2020-02-05-16-25-55,8,36,0.5759333604441985,right,both,ambiguous-switch,54,12,left,right,0.231
SMB1998WRNO,2020-02-05-16-25-55,8,37,0.5583104496030172,left,probe,biased-switch,-1,12,left,left,0.157
SMB1998WRNO,2020-02-05-16-25-55,8,38,0.6777204089985379,left,both,biased-switch,59,12,left,right,1.068
SMB1998WRNO,2020-02-05-16-25-55,8,39,0.6761206450469589,right,probe,biased-switch,-1,-6,left,left,0.208
SMB1998WRNO,2020-02-05-16-25-55,8,40,0.6711105042300948,right,both,biased-switch,59,-6,left,left,0.205
SMB1998WRNO,2020-02-05-16-25-55,8,41,0.6780287626139485,right,probe,biased-switch,-1,18,left,left,0.268
SMB1998WRNO,2020-02-05-16-25-55,8,42,0.5357690491326471,right,both,biased-switch,66,18,left,right,0.17
SMB1998WRNO,2020-02-05-16-25-55,8,43,0.5042729052627435,right,probe,ambiguous-switch,-1,0,right,right,0.289
SMB1998WRNO,2020-02-05-16-25-55,8,44,0.665027012039138,right,both,ambiguous-switch,59,0,right,left,0.1
SMB1998WRNO,2020-02-05-16-25-55,8,45,0.5643649577671674,right,probe,biased-switch,-1,6,right,right,0.168
SMB1998WRNO,2020-02-05-16-25-55,8,46,0.5072720754998159,right,both,biased-switch,59,6,right,left,0.106
SMB1998WRNO,2020-02-05-16-25-55,8,47,0.587420074368489,right,probe,biased-switch,-1,-18,right,right,0.192
SMB1998WRNO,2020-02-05-16-25-55,8,48,0.5587198572664034,right,both,biased-switch,58,-18,right,left,0.177
SMB1998WRNO,2020-02-05-16-25-55,8,49,0.5467492763341504,right,probe,ambiguous-switch,-1,-3,left,left,0.144
SMB1998WRNO,2020-02-05-16-25-55,8,50,0.646693889363245,right,both,ambiguous-switch,55,-3,left,left,0.017
SMB1998WRNO,2020-02-05-16-25-55,8,51,0.6360733270293847,right,probe,ambiguous-switch,-1,18,left,left,0.176
SMB1998WRNO,2020-02-05-16-25-55,8,52,0.50920788111528,right,both,ambiguous-switch,61,18,left,left,0.156
SMB1998WRNO,2020-02-05-16-25-55,8,53,0.5950512435395663,right,probe,biased-switch,-1,-3,left,left,0.265
SMB1998WRNO,2020-02-05-16-25-55,8,54,0.6547913748056835,right,both,biased-switch,54,-3,left,right,0.159
SMB1998WRNO,2020-02-05-16-25-55,8,55,0.6244643175869508,left,probe,ambiguous-switch,-1,24,left,left,0.155
SMB1998WRNO,2020-02-05-16-25-55,8,56,0.5059594246480144,left,both,ambiguous-switch,54,24,left,left,0.074
SMB1998WRNO,2020-02-05-16-25-55,8,57,0.6529064349570373,left,probe,biased-switch,-1,3,left,left,0.133
SMB1998WRNO,2020-02-05-16-25-55,8,58,0.6940401103075838,left,both,biased-switch,59,3,left,right,0.998
SMB1998WRNO,2020-02-05-16-25-55,8,59,0.5553857990724271,left,probe,ambiguous-switch,-1,-12,left,left,0.317
SMB1998WRNO,2020-02-05-16-25-55,8,60,0.5727417759857262,left,both,ambiguous-switch,64,-12,left,right,0.193
SMB1998WRNO,2020-02-05-16-25-55,8,61,0.5502021574792023,right,probe,ambiguous-switch,-1,-18,left,left,0.009
SMB1998WRNO,2020-02-05-16-25-55,8,62,0.5909911910952306,right,both,ambiguous-switch,65,-18,left,left,0.062
SMB1998WRNO,2020-02-05-16-25-55,8,63,0.5073233276064949,right,probe,biased-switch,-1,0,left,left,0.184
SMB1998WRNO,2020-02-05-16-25-55,8,64,0.6303529858881333,right,both,biased-switch,55,0,left,right,0.165
SMB1998WRNO,2020-02-05-16-25-55,8,65,0.6346220017453548,right,probe,biased-switch,-1,24,left,left,0.213
SMB1998WRNO,2020-02-05-16-25-55,8,66,0.649234343611058,right,both,biased-switch,59,24,left,left,0.224
SMB1998WRNO,2020-02-05-16-25-55,8,67,0.592283531610998,right,probe,biased-switch,-1,-12,left,left,0.033
SMB1998WRNO,2020-02-05-16-25-55,8,68,0.587953875977569,right,both,biased-switch,61,-12,left,left,0.008
SMB1998WRNO,2020-02-05-16-25-55,8,69,0.5824196902947301,left,probe,ambiguous-switch,-1,-6,left,left,0.218
SMB1998WRNO,2020-02-05-16-25-55,8,70,0.5685491370807519,left,both,ambiguous-switch,59,-6,left,left,0.964
SMB1998WRNO,2020-02-05-16-25-55,8,71,0.6989445231024377,right,probe,ambiguous-switch,-1,3,left,left,0.053
SMB1998WRNO,2020-02-05-16-25-55,8,72,0.5479696584212932,right,both,ambiguous-switch,64,3,left,right,0.189
SMB1998WRNO,2020-02-05-16-25-55,8,73,0.5167365187196643,left,probe,ambiguous-switch,-1,6,left,left,0.222
SMB1998WRNO,2020-02-05-16-25-55,8,74,0.5409134207010698,left,both,ambiguous-switch,56,6,left,right,0.075
SMB1998WRNO,2020-02-05-16-25-55,8,75,0.6388454561051715,right,probe,ambiguous-switch,-1,12,left,left,0.179
SMB1998WRNO,2020-02-05-16-25-55,8,76,0.5259918779104642,right,both,ambiguous-switch,65,12,left,right,0.419
SMB1998WRNO,2020-02-05-16-25-55,8,77,0.6860263122676149,right,probe,biased-switch,-1,12,left,left,0.387
SMB1998WRNO,2020-02-05-16-25-55,8,78,0.6670998312005606,right,both,biased-switch,56,12,left,right,2.983
SMB1998WRNO,2020-02-05-16-25-55,8,79,0.5320045506524056,left,probe,biased-switch,-1,-6,left,left,0.331
SMB1998WRNO,2020-02-05-16-25-55,8,80,0.5670368062963763,left,both,biased-switch,59,-6,left,left,0.027
SMB1998WRNO,2020-02-05-16-25-55,9,1,0.588170381014459,left,probe,ambiguous-switch,-1,3,left,left,0.224
SMB1998WRNO,2020-02-05-16-25-55,9,2,0.6966537219655383,left,both,ambiguous-switch,54,3,left,right,0.456
SMB1998WRNO,2020-02-05-16-25-55,9,3,0.5465121483961131,right,probe,biased-switch,-1,-3,left,left,0.172
SMB1998WRNO,2020-02-05-16-25-55,9,4,0.6899405857898036,right,both,biased-switch,66,-3,left,right,0.364
SMB1998WRNO,2020-02-05-16-25-55,9,5,0.6078510327476473,right,probe,biased-switch,-1,-12,left,left,0.503
SMB1998WRNO,2020-02-05-16-25-55,9,6,0.5759064157992156,right,both,biased-switch,56,-12,left,left,0.083
SMB1998WRNO,2020-02-05-16-25-55,9,7,0.680447376547674,left,probe,biased-switch,-1,-6,left,left,0.097
SMB1998WRNO,2020-02-05-16-25-55,9,8,0.6613608345160136,left,both,biased-switch,57,-6,left,left,0.918
SMB1998WRNO,2020-02-05-16-25-55,9,9,0.6655580965003751,right,probe,biased-switch,-1,6,left,left,0.3
SMB1998WRNO,2020-02-05-16-25-55,9,10,0.6535115419885416,right,both,biased-switch,64,6,left,left,0.281
SMB1998WRNO,2020-02-05-16-25-55,9,11,0.637618374967591,right,probe,ambiguous-switch,-1,0,left,left,0.46
SMB1998WRNO,2020-02-05-16-25-55,9,12,0.6553701073594617,right,both,ambiguous-switch,62,0,left,right,0.233
SMB1998WRNO,2020-02-05-16-25-55,9,13,0.586296318458831,right,probe,ambiguous-switch,-1,18,right,right,0.28
SMB1998WRNO,2020-02-05-16-25-55,9,14,0.5456626127933291,right,both,ambiguous-switch,54,18,right,right,0.082
SMB1998WRNO,2020-02-05-16-25-55,9,15,0.6211261170819329,right,probe,ambiguous-switch,-1,12,right,right,0.277
SMB1998WRNO,2020-02-05-16-25-55,9,16,0.6480708391377044,right,both,ambiguous-switch,56,12,right,left,2.366
SMB1998WRNO,2020-02-05-16-25-55,9,17,0.5714590131680628,left,probe,ambiguous-switch,-1,-3,right,right,0.179
SMB1998WRNO,2020-02-05-16-25-55,9,18,0.5642364777321733,left,both,ambiguous-switch,56,-3,right,right,0.172
SMB1998WRNO,2020-02-05-16-25-55,9,19,0.6726218607877955,right,probe,ambiguous-switch,-1,-12,right,right,0.17
SMB1998WRNO,2020-02-05-16-25-55,9,20,0.5931524786287882,right,both,ambiguous-switch,63,-12,right,right,0.124
SMB1998WRNO,2020-02-05-16-25-55,9,21,0.6492425478748345,left,probe,ambiguous-switch,-1,6,right,right,0.23
SMB1998WRNO,2020-02-05-16-25-55,9,22,0.5184427735315773,left,both,ambiguous-switch,65,6,right,right,0.279
SMB1998WRNO,2020-02-05-16-25-55,9,23,0.501320585460798,left,probe,ambiguous-switch,-1,24,right,right,0.319
SMB1998WRNO,2020-02-05-16-25-55,9,24,0.638545756570323,left,both,ambiguous-switch,60,24,right,right,0.157
SMB1998WRNO,2020-02-05-16-25-55,9,25,0.6159316788813398,right,probe,ambiguous-switch,-1,-6,right,right,0.202
SMB1998WRNO,2020-02-05-16-25-55,9,26,0.6553234525178123,right,both,ambiguous-switch,58,-6,right,right,0.182
SMB1998WRNO,2020-02-05-16-25-55,9,27,0.5890075790422971,left,probe,ambiguous-switch,-1,-18,right,right,0.268
SMB1998WRNO,2020-02-05-16-25-55,9,28,0.6516672260321388,left,both,ambiguous-switch,63,-18,right,right,0.204
SMB1998WRNO,2020-02-05-16-25-55,9,29,0.6423102484170827,left,probe,biased-switch,-1,12,right,right,0.165
SMB1998WRNO,2020-02-05-16-25-55,9,30,0.5229771828574221,left,both,biased-switch,60,12,right,right,0.186
SMB1998WRNO,2020-02-05-16-25-55,9,31,0.594410329113116,right,probe,biased-switch,-1,-18,right,right,0.227
SMB1998WRNO,2020-02-05-16-25-55,9,32,0.6838527199755635,right,both,biased-switch,65,-18,right,right,0.223
SMB1998WRNO,2020-02-05-16-25-55,9,33,0.5357986826968684,right,probe,biased-switch,-1,3,right,right,0.207
SMB1998WRNO,2020-02-05-16-25-55,9,34,0.6504350601684636,right,both,biased-switch,56,3,right,right,0.331
SMB1998WRNO,2020-02-05-16-25-55,9,35,0.6340660820500269,left,probe,biased-switch,-1,18,right,right,0.247
SMB1998WRNO,2020-02-05-16-25-55,9,36,0.6898274713394139,left,both,biased-switch,63,18,right,right,0.201
SMB1998WRNO,2020-02-05-16-25-55,9,37,0.5221755677078312,left,probe,biased-switch,-1,24,right,right,0.244
SMB1998WRNO,2020-02-05-16-25-55,9,38,0.683704297520983,left,both,biased-switch,61,24,right,right,0.173
SMB1998WRNO,2020-02-05-16-25-55,9,39,0.6494365512579878,right,probe,biased-switch,-1,0,right,right,0.304
SMB1998WRNO,2020-02-05-16-25-55,9,40,0.5593147910142022,right,both,biased-switch,58,0,right,right,0.015
SMB1998WRNO,2020-02-05-16-25-55,9,41,0.5864376606549171,right,probe,ambiguous-switch,-1,3,right,right,0.077
SMB1998WRNO,2020-02-05-16-25-55,9,42,0.6014670608329316,right,both,ambiguous-switch,60,3,right,left,0.181
SMB1998WRNO,2020-02-05-16-25-55,9,43,0.66196838878908,left,probe,biased-switch,-1,-3,right,right,0.696
SMB1998WRNO,2020-02-05-16-25-55,9,44,0.6854233889635862,left,both,biased-switch,65,-3,right,right,0.187
SMB1998WRNO,2020-02-05-16-25-55,9,45,0.512766991831107,right,probe,biased-switch,-1,-12,right,right,0.229
SMB1998WRNO,2020-02-05-16-25-55,9,46,0.5364450171760283,right,both,biased-switch,58,-12,right,right,0.098
SMB1998WRNO,2020-02-05-16-25-55,9,47,0.5924684837294298,right,probe,biased-switch,-1,-6,right,right,0.251
SMB1998WRNO,2020-02-05-16-25-55,9,48,0.6599911281497455,right,both,biased-switch,63,-6,right,right,0.184
SMB1998WRNO,2020-02-05-16-25-55,9,49,0.5941265828392193,left,probe,biased-switch,-1,6,right,right,0.202
SMB1998WRNO,2020-02-05-16-25-55,9,50,0.6541788712386138,left,both,biased-switch,59,6,right,left,0.194
SMB1998WRNO,2020-02-05-16-25-55,9,51,0.5353212901341752,right,probe,ambiguous-switch,-1,0,right,right,0.029
SMB1998WRNO,2020-02-05-16-25-55,9,52,0.5548885987377317,right,both,ambiguous-switch,62,0,right,right,0.241
SMB1998WRNO,2020-02-05-16-25-55,9,53,0.597753959213079,right,probe,ambiguous-switch,-1,18,right,right,0.334
SMB1998WRNO,2020-02-05-16-25-55,9,54,0.6542554247436962,right,both,ambiguous-switch,61,18,right,right,0.161
SMB1998WRNO,2020-02-05-16-25-55,9,55,0.5179470733209466,left,probe,ambiguous-switch,-1,12,right,right,1.1
SMB1998WRNO,2020-02-05-16-25-55,9,56,0.5834609052138895,left,both,ambiguous-switch,54,12,right,left,0.164
SMB1998WRNO,2020-02-05-16-25-55,9,57,0.5915623393158129,left,probe,ambiguous-switch,-1,-3,right,right,0.196
SMB1998WRNO,2020-02-05-16-25-55,9,58,0.662578393045532,left,both,ambiguous-switch,64,-3,right,right,0.042
SMB1998WRNO,2020-02-05-16-25-55,9,59,0.6576620285898493,left,probe,ambiguous-switch,-1,-12,right,right,0.201
SMB1998WRNO,2020-02-05-16-25-55,9,60,0.678728918170658,left,both,ambiguous-switch,60,-12,right,right,0.148
SMB1998WRNO,2020-02-05-16-25-55,9,61,0.5822876106833226,right,probe,ambiguous-switch,-1,6,right,right,0.196
SMB1998WRNO,2020-02-05-16-25-55,9,62,0.5403586518804342,right,both,ambiguous-switch,55,6,right,left,0.467
SMB1998WRNO,2020-02-05-16-25-55,9,63,0.5756947360538633,right,probe,ambiguous-switch,-1,24,right,right,0.243
SMB1998WRNO,2020-02-05-16-25-55,9,64,0.6763802723709528,right,both,ambiguous-switch,64,24,right,right,0.278
SMB1998WRNO,2020-02-05-16-25-55,9,65,0.6890192826290461,right,probe,ambiguous-switch,-1,-6,right,right,0.236
SMB1998WRNO,2020-02-05-16-25-55,9,66,0.6124467028205753,right,both,ambiguous-switch,59,-6,right,right,0.159
SMB1998WRNO,2020-02-05-16-25-55,9,67,0.618337339979519,right,probe,ambiguous-switch,-1,-18,right,right,0.376
SMB1998WRNO,2020-02-05-16-25-55,9,68,0.520634362186972,right,both,ambiguous-switch,55,-18,right,right,2.918
SMB1998WRNO,2020-02-05-16-25-55,9,69,0.6436433039169874,right,probe,biased-switch,-1,12,right,right,0.68
SMB1998WRNO,2020-02-05-16-25-55,9,70,0.6430205339084152,right,both,biased-switch,58,12,right,right,0.156
SMB1998WRNO,2020-02-05-16-25-55,9,71,0.6450797007805397,left,probe,biased-switch,-1,-18,right,right,0.159
SMB1998WRNO,2020-02-05-16-25-55,9,72,0.5446700566456417,left,both,biased-switch,59,-18,right,right,0.296
SMB1998WRNO,2020-02-05-16-25-55,9,73,0.541860621256483,right,probe,biased-switch,-1,3,right,right,0.189
SMB1998WRNO,2020-02-05-16-25-55,9,74,0.629085725475983,right,both,biased-switch,56,3,right,left,0.167
SMB1998WRNO,2020-02-05-16-25-55,9,75,0.6065875205225122,left,probe,biased-switch,-1,18,right,right,0.238
SMB1998WRNO,2020-02-05-16-25-55,9,76,0.5268303969776755,left,both,biased-switch,56,18,right,right,1.205
SMB1998WRNO,2020-02-05-16-25-55,9,77,0.6375032196138101,left,probe,biased-switch,-1,24,right,right,0.3
SMB1998WRNO,2020-02-05-16-25-55,9,78,0.5518002371970465,left,both,biased-switch,60,24,right,right,0.202
SMB1998WRNO,2020-02-05-16-25-55,9,79,0.6942912098887183,left,probe,biased-switch,-1,0,right,right,0.365
SMB1998WRNO,2020-02-05-16-25-55,9,80,0.6122563940609749,left,both,biased-switch,54,0,right,left,0.204
SMB1998WRNO,2020-02-05-16-25-55,10,1,0.5358096207778392,right,probe,biased-switch,-1,18,right,right,0.499
SMB1998WRNO,2020-02-05-16-25-55,10,2,0.5303889386906705,right,both,biased-switch,63,18,right,right,0.196
SMB1998WRNO,2020-02-05-16-25-55,10,3,0.5117111525938226,left,probe,biased-switch,-1,3,right,right,0.165
SMB1998WRNO,2020-02-05-16-25-55,10,4,0.5737557600652439,left,both,biased-switch,63,3,right,left,0.174
SMB1998WRNO,2020-02-05-16-25-55,10,5,0.6813437854003305,right,probe,biased-switch,-1,24,right,right,0.179
SMB1998WRNO,2020-02-05-16-25-55,10,6,0.6217108137045676,right,both,biased-switch,56,24,right,right,1.94
SMB1998WRNO,2020-02-05-16-25-55,10,7,0.5707694545968309,left,probe,biased-switch,-1,-3,right,right,0.239
SMB1998WRNO,2020-02-05-16-25-55,10,8,0.6974270894263677,left,both,biased-switch,65,-3,right,right,0.183
SMB1998WRNO,2020-02-05-16-25-55,10,9,0.5519757617846911,left,probe,ambiguous-switch,-1,-18,right,right,0.247
SMB1998WRNO,2020-02-05-16-25-55,10,10,0.5355563332519886,left,both,ambiguous-switch,62,-18,right,right,0.177
SMB1998WRNO,2020-02-05-16-25-55,10,11,0.6978819361624031,left,probe,ambiguous-switch,-1,24,right,right,0.277
SMB1998WRNO,2020-02-05-16-25-55,10,12,0.6141347452764503,left,both,ambiguous-switch,64,24,right,right,0.063
SMB1998WRNO,2020-02-05-16-25-55,10,13,0.543857636176621,right,probe,biased-switch,-1,12,right,right,0.968
SMB1998WRNO,2020-02-05-16-25-55,10,14,0.6719406646456509,right,both,biased-switch,60,12,right,right,1.48
SMB1998WRNO,2020-02-05-16-25-55,10,15,0.5369323251068595,left,probe,biased-switch,-1,-12,right,right,0.368
SMB1998WRNO,2020-02-05-16-25-55,10,16,0.5020389558922117,left,both,biased-switch,63,-12,right,right,0.119
SMB1998WRNO,2020-02-05-16-25-55,10,17,0.5347508855305096,left,probe,ambiguous-switch,-1,-6,right,right,0.179
SMB1998WRNO,2020-02-05-16-25-55,10,18,0.5233983366162659,left,both,ambiguous-switch,59,-6,right,right,0.646
SMB1998WRNO,2020-02-05-16-25-55,10,19,0.576734662659946,left,probe,biased-switch,-1,0,right,right,0.288
SMB1998WRNO,2020-02-05-16-25-55,10,20,0.6635580873332867,left,both,biased-switch,61,0,right,left,0.143
SMB1998WRNO,2020-02-05-16-25-55,10,21,0.5243398547610435,left,probe,ambiguous-switch,-1,-3,right,right,0.149
SMB1998WRNO,2020-02-05-16-25-55,10,22,0.6836720914165277,left,both,ambiguous-switch,59,-3,right,right,1.171
SMB1998WRNO,2020-02-05-16-25-55,10,23,0.596268506599464,left,probe,ambiguous-switch,-1,-12,right,right,0.22
SMB1998WRNO,2020-02-05-16-25-55,10,24,0.6171374341550043,left,both,ambiguous-switch,59,-12,right,right,0.148
SMB1998WRNO,2020-02-05-16-25-55,10,25,0.5152381051529576,right,probe,ambiguous-switch,-1,0,right,right,0.415
SMB1998WRNO,2020-02-05-16-25-55,10,26,0.5873563368292394,right,both,ambiguous-switch,59,0,right,left,0.18
SMB1998WRNO,2020-02-05-16-25-55,10,27,0.5160212221701065,right,probe,biased-switch,-1,-18,right,right,0.263
SMB1998WRNO,2020-02-05-16-25-55,10,28,0.533926059143358,right,both,biased-switch,63,-18,right,right,0.247
SMB1998WRNO,2020-02-05-16-25-55,10,29,0.5566209882172639,left,probe,biased-switch,-1,6,right,right,0.345
SMB1998WRNO,2020-02-05-16-25-55,10,30,0.5599555070647528,left,both,biased-switch,58,6,right,left,0.346
SMB1998WRNO,2020-02-05-16-25-55,10,31,0.6180892735569046,right,probe,ambiguous-switch,-1,3,right,right,0.26
SMB1998WRNO,2020-02-05-16-25-55,10,32,0.6579949506067453,right,both,ambiguous-switch,62,3,right,right,0.226
SMB1998WRNO,2020-02-05-16-25-55,10,33,0.5899413163985742,left,probe,biased-switch,-1,-6,right,right,0.346
SMB1998WRNO,2020-02-05-16-25-55,10,34,0.5723729494488361,left,both,biased-switch,55,-6,right,right,0.287
SMB1998WRNO,2020-02-05-16-25-55,10,35,0.6642572215070217,right,probe,ambiguous-switch,-1,6,right,right,0.197
SMB1998WRNO,2020-02-05-16-25-55,10,36,0.660339802114275,right,both,ambiguous-switch,63,6,right,right,0.224
SMB1998WRNO,2020-02-05-16-25-55,10,37,0.5791426444165152,left,probe,ambiguous-switch,-1,12,right,right,0.216
SMB1998WRNO,2020-02-05-16-25-55,10,38,0.6641907207964394,left,both,ambiguous-switch,60,12,right,left,0.087
SMB1998WRNO,2020-02-05-16-25-55,10,39,0.503264663483856,left,probe,ambiguous-switch,-1,18,right,right,0.082
SMB1998WRNO,2020-02-05-16-25-55,10,40,0.5863611938751468,left,both,ambiguous-switch,63,18,right,right,0.009
SMB1998WRNO,2020-02-05-16-25-55,10,41,0.6469532557386961,right,probe,biased-switch,-1,18,right,right,0.203
SMB1998WRNO,2020-02-05-16-25-55,10,42,0.6701779243046273,right,both,biased-switch,59,18,right,right,0.215
SMB1998WRNO,2020-02-05-16-25-55,10,43,0.5524350334115985,right,probe,biased-switch,-1,3,right,right,0.186
SMB1998WRNO,2020-02-05-16-25-55,10,44,0.6084213459762424,right,both,biased-switch,57,3,right,left,0.172
SMB1998WRNO,2020-02-05-16-25-55,10,45,0.6818072054654088,right,probe,biased-switch,-1,24,right,right,0.164
SMB1998WRNO,2020-02-05-16-25-55,10,46,0.6467219877192008,right,both,biased-switch,56,24,right,right,0.219
SMB1998WRNO,2020-02-05-16-25-55,10,47,0.6776887318664466,left,probe,biased-switch,-1,-3,right,right,0.255
SMB1998WRNO,2020-02-05-16-25-55,10,48,0.652287162249082,left,both,biased-switch,55,-3,right,left,0.193
SMB1998WRNO,2020-02-05-16-25-55,10,49,0.5285276265338433,right,probe,ambiguous-switch,-1,-18,right,right,0.15
SMB1998WRNO,2020-02-05-16-25-55,10,50,0.6197259787450813,right,both,ambiguous-switch,64,-18,right,right,1.062
SMB1998WRNO,2020-02-05-16-25-55,10,51,0.6204457575567621,left,probe,ambiguous-switch,-1,24,right,right,0.252
SMB1998WRNO,2020-02-05-16-25-55,10,52,0.5359539393467084,left,both,ambiguous-switch,60,24,right,right,0.186
SMB1998WRNO,2020-02-05-16-25-55,10,53,0.630946295889647,left,probe,biased-switch,-1,12,right,right,0.622
SMB1998WRNO,2020-02-05-16-25-55,10,54,0.6251141474439884,left,both,biased-switch,56,12,right,left,0.447
SMB1998WRNO,2020-02-05-16-25-55,10,55,0.6062195337543729,right,probe,biased-switch,-1,-12,right,right,0.308
SMB1998WRNO,2020-02-05-16-25-55,10,56,0.699850816473766,right,both,biased-switch,61,-12,right,right,0.19
SMB1998WRNO,2020-02-05-16-25-55,10,57,0.5001215938201741,left,probe,ambiguous-switch,-1,-6,right,right,0.281
SMB1998WRNO,2020-02-05-16-25-55,10,58,0.6517143460444808,left,both,ambiguous-switch,54,-6,right,left,0.218
SMB1998WRNO,2020-02-05-16-25-55,10,59,0.5483302211431003,right,probe,biased-switch,-1,0,right,right,0.022
SMB1998WRNO,2020-02-05-16-25-55,10,60,0.5647039950781171,right,both,biased-switch,64,0,right,left,0.033
SMB1998WRNO,2020-02-05-16-25-55,10,61,0.6166022785395461,left,probe,ambiguous-switch,-1,-3,right,right,0.215
SMB1998WRNO,2020-02-05-16-25-55,10,62,0.6777444614244559,left,both,ambiguous-switch,60,-3,right,left,0.016
SMB1998WRNO,2020-02-05-16-25-55,10,63,0.5751129085372391,left,probe,ambiguous-switch,-1,-12,right,right,0.241
SMB1998WRNO,2020-02-05-16-25-55,10,64,0.6608837862569994,left,both,ambiguous-switch,59,-12,right,right,0.213
SMB1998WRNO,2020-02-05-16-25-55,10,65,0.5415832726177907,left,probe,ambiguous-switch,-1,0,left,left,0.265
SMB1998WRNO,2020-02-05-16-25-55,10,66,0.6793852785388923,left,both,ambiguous-switch,60,0,left,left,0.13
SMB1998WRNO,2020-02-05-16-25-55,10,67,0.5560210836930424,right,probe,biased-switch,-1,-18,left,left,0.102
SMB1998WRNO,2020-02-05-16-25-55,10,68,0.5512466936446412,right,both,biased-switch,55,-18,left,left,0.171
SMB1998WRNO,2020-02-05-16-25-55,10,69,0.5464907910166726,right,probe,biased-switch,-1,6,left,left,0.138
SMB1998WRNO,2020-02-05-16-25-55,10,70,0.6764982810865536,right,both,biased-switch,65,6,left,right,0.232
SMB1998WRNO,2020-02-05-16-25-55,10,71,0.5800681107443203,left,probe,ambiguous-switch,-1,3,left,left,0.187
SMB1998WRNO,2020-02-05-16-25-55,10,72,0.631712533058038,left,both,ambiguous-switch,63,3,left,left,0.236
SMB1998WRNO,2020-02-05-16-25-55,10,73,0.5312759505212157,right,probe,biased-switch,-1,-6,left,left,0.187
SMB1998WRNO,2020-02-05-16-25-55,10,74,0.6483360784355423,right,both,biased-switch,55,-6,left,left,0.179
SMB1998WRNO,2020-02-05-16-25-55,10,75,0.6787104324675453,right,probe,ambiguous-switch,-1,6,left,left,0.189
SMB1998WRNO,2020-02-05-16-25-55,10,76,0.6364379481663042,right,both,ambiguous-switch,60,6,left,right,0.25
SMB1998WRNO,2020-02-05-16-25-55,10,77,0.5659396797882688,right,probe,ambiguous-switch,-1,12,left,left,0.233
SMB1998WRNO,2020-02-05-16-25-55,10,78,0.6764877897144769,right,both,ambiguous-switch,55,12,left,right,0.192
SMB1998WRNO,2020-02-05-16-25-55,10,79,0.5144480188731124,right,probe,ambiguous-switch,-1,18,left,left,0.184
SMB1998WRNO,2020-02-05-16-25-55,10,80,0.6955001596477464,right,both,ambiguous-switch,61,18,left,right,0.166
