Participant,Session,Block,Trial,OnsetDelay,ProbeLocation,WhatIsReported,Condition,TriggerTime,ProbeSOA,PrimeDirection,Response,RT
HKG2000WRNO,2019-10-23-16-03-53,1,1,0.6258483663615939,right,probe,biased-switch,-1,-10,left,left,0.573
HKG2000WRNO,2019-10-23-16-03-53,1,2,0.6420650613646509,right,both,biased-switch,90,-10,left,left,0.424
HKG2000WRNO,2019-10-23-16-03-53,1,3,0.6789794912847524,left,probe,ambiguous-switch,-1,-20,left,left,0.322
HKG2000WRNO,2019-10-23-16-03-53,1,4,0.5314865411028583,left,both,ambiguous-switch,95,-20,left,left,0.786
HKG2000WRNO,2019-10-23-16-03-53,1,5,0.5507167454749625,right,probe,ambiguous-switch,-1,5,left,left,0.29
HKG2000WRNO,2019-10-23-16-03-53,1,6,0.5013419787845387,right,both,ambiguous-switch,109,5,left,left,2.962
HKG2000WRNO,2019-10-23-16-03-53,1,7,0.681156873717996,right,probe,ambiguous-switch,-1,40,left,left,0.294
HKG2000WRNO,2019-10-23-16-03-53,1,8,0.5871210511808335,right,both,ambiguous-switch,107,40,left,left,0.1
HKG2000WRNO,2019-10-23-16-03-53,1,9,0.5977149966977169,right,probe,biased-switch,-1,-5,left,left,0.236
HKG2000WRNO,2019-10-23-16-03-53,1,10,0.5624263995153136,right,both,biased-switch,103,-5,left,left,0.329
HKG2000WRNO,2019-10-23-16-03-53,1,11,0.52654324058043,left,probe,ambiguous-switch,-1,0,left,left,0.409
HKG2000WRNO,2019-10-23-16-03-53,1,12,0.5927577423083281,left,both,ambiguous-switch,103,0,left,left,0.263
HKG2000WRNO,2019-10-23-16-03-53,1,13,0.6267175365228106,left,probe,biased-switch,-1,10,left,left,0.349
HKG2000WRNO,2019-10-23-16-03-53,1,14,0.6230904333679586,left,both,biased-switch,97,10,left,left,0.292
HKG2000WRNO,2019-10-23-16-03-53,1,15,0.5051688900657074,right,probe,biased-switch,-1,-20,left,left,0.414
HKG2000WRNO,2019-10-23-16-03-53,1,16,0.5908861587062624,right,both,biased-switch,104,-20,left,left,0.264
HKG2000WRNO,2019-10-23-16-03-53,1,17,0.5407315996388898,left,probe,ambiguous-switch,-1,-5,left,left,0.474
HKG2000WRNO,2019-10-23-16-03-53,1,18,0.6518251129625994,left,both,ambiguous-switch,97,-5,left,left,0.264
HKG2000WRNO,2019-10-23-16-03-53,1,19,0.5886133825508025,right,probe,ambiguous-switch,-1,30,left,left,0.281
HKG2000WRNO,2019-10-23-16-03-53,1,20,0.5859105416826369,right,both,ambiguous-switch,93,30,left,left,0.283
HKG2000WRNO,2019-10-23-16-03-53,1,21,0.5538781943026931,left,probe,ambiguous-switch,-1,-10,left,left,0.705
HKG2000WRNO,2019-10-23-16-03-53,1,22,0.6242983437315702,left,both,ambiguous-switch,94,-10,left,left,0.288
HKG2000WRNO,2019-10-23-16-03-53,1,23,0.5198381327967264,right,probe,biased-switch,-1,20,left,left,0.446
HKG2000WRNO,2019-10-23-16-03-53,1,24,0.5778436870463226,right,both,biased-switch,103,20,left,left,0.291
HKG2000WRNO,2019-10-23-16-03-53,1,25,0.6930314634347834,left,probe,ambiguous-switch,-1,20,left,left,0.515
HKG2000WRNO,2019-10-23-16-03-53,1,26,0.5829504397607371,left,both,ambiguous-switch,101,20,left,left,0.272
HKG2000WRNO,2019-10-23-16-03-53,1,27,0.6607999497292193,right,probe,biased-switch,-1,0,left,left,0.391
HKG2000WRNO,2019-10-23-16-03-53,1,28,0.6371504749513569,right,both,biased-switch,104,0,left,left,0.353
HKG2000WRNO,2019-10-23-16-03-53,1,29,0.5996257941758063,left,probe,ambiguous-switch,-1,-30,left,left,0.533
HKG2000WRNO,2019-10-23-16-03-53,1,30,0.6409608861284593,left,both,ambiguous-switch,91,-30,left,left,0.413
HKG2000WRNO,2019-10-23-16-03-53,1,31,0.5858223462079593,right,probe,biased-switch,-1,-30,left,left,0.37
HKG2000WRNO,2019-10-23-16-03-53,1,32,0.6136107235363164,right,both,biased-switch,101,-30,left,left,0.303
HKG2000WRNO,2019-10-23-16-03-53,1,33,0.5482405801978897,left,probe,biased-switch,-1,40,left,left,0.447
HKG2000WRNO,2019-10-23-16-03-53,1,34,0.6516047095948854,left,both,biased-switch,107,40,left,left,0.297
HKG2000WRNO,2019-10-23-16-03-53,1,35,0.6453008234960008,right,probe,ambiguous-switch,-1,10,left,left,0.247
HKG2000WRNO,2019-10-23-16-03-53,1,36,0.5311386660485427,right,both,ambiguous-switch,94,10,left,left,1.456
HKG2000WRNO,2019-10-23-16-03-53,1,37,0.5698424088150613,right,probe,biased-switch,-1,5,left,left,0.453
HKG2000WRNO,2019-10-23-16-03-53,1,38,0.6278032864514758,right,both,biased-switch,96,5,left,left,0.157
HKG2000WRNO,2019-10-23-16-03-53,1,39,0.6010872561215272,right,probe,biased-switch,-1,30,left,left,0.363
HKG2000WRNO,2019-10-23-16-03-53,1,40,0.631385151061308,right,both,biased-switch,95,30,left,left,0.146
HKG2000WRNO,2019-10-23-16-03-53,1,41,0.6034333586212972,right,probe,biased-switch,-1,-10,left,left,0.274
HKG2000WRNO,2019-10-23-16-03-53,1,42,0.6959122253730614,right,both,biased-switch,108,-10,left,left,0.22
HKG2000WRNO,2019-10-23-16-03-53,1,43,0.6170934143799652,left,probe,ambiguous-switch,-1,-20,left,left,0.345
HKG2000WRNO,2019-10-23-16-03-53,1,44,0.6967071725673536,left,both,ambiguous-switch,104,-20,left,left,0.228
HKG2000WRNO,2019-10-23-16-03-53,1,45,0.544864108933123,left,probe,ambiguous-switch,-1,5,left,left,0.288
HKG2000WRNO,2019-10-23-16-03-53,1,46,0.6278353259101945,left,both,ambiguous-switch,98,5,left,left,0.216
HKG2000WRNO,2019-10-23-16-03-53,1,47,0.5149080923154811,right,probe,ambiguous-switch,-1,40,left,left,0.244
HKG2000WRNO,2019-10-23-16-03-53,1,48,0.6350786401781172,right,both,ambiguous-switch,105,40,left,left,1.153
HKG2000WRNO,2019-10-23-16-03-53,1,49,0.6135771901806847,left,probe,biased-switch,-1,-5,left,left,0.442
HKG2000WRNO,2019-10-23-16-03-53,1,50,0.6200254893316772,left,both,biased-switch,99,-5,left,left,0.369
HKG2000WRNO,2019-10-23-16-03-53,1,51,0.5268485591988478,right,probe,ambiguous-switch,-1,0,left,left,0.337
HKG2000WRNO,2019-10-23-16-03-53,1,52,0.5200989907790527,right,both,ambiguous-switch,108,0,left,left,0.228
HKG2000WRNO,2019-10-23-16-03-53,1,53,0.6091242815712591,right,probe,biased-switch,-1,10,left,left,0.413
HKG2000WRNO,2019-10-23-16-03-53,1,54,0.5175904301667571,right,both,biased-switch,102,10,left,left,0.351
HKG2000WRNO,2019-10-23-16-03-53,1,55,0.5872549704546766,left,probe,biased-switch,-1,-20,left,left,0.29
HKG2000WRNO,2019-10-23-16-03-53,1,56,0.5828564938467035,left,both,biased-switch,110,-20,left,left,0.308
HKG2000WRNO,2019-10-23-16-03-53,1,57,0.5584182069060026,left,probe,ambiguous-switch,-1,-5,left,left,0.271
HKG2000WRNO,2019-10-23-16-03-53,1,58,0.5908159774589532,left,both,ambiguous-switch,97,-5,left,left,1.154
HKG2000WRNO,2019-10-23-16-03-53,1,59,0.6325239662251269,left,probe,ambiguous-switch,-1,30,left,left,0.252
HKG2000WRNO,2019-10-23-16-03-53,1,60,0.5369063790906123,left,both,ambiguous-switch,94,30,left,left,0.304
HKG2000WRNO,2019-10-23-16-03-53,1,61,0.5652591781630941,right,probe,ambiguous-switch,-1,-10,left,left,0.66
HKG2000WRNO,2019-10-23-16-03-53,1,62,0.5866542171086842,right,both,ambiguous-switch,104,-10,left,left,0.209
HKG2000WRNO,2019-10-23-16-03-53,1,63,0.6629507759859732,right,probe,biased-switch,-1,20,left,left,0.479
HKG2000WRNO,2019-10-23-16-03-53,1,64,0.6510459153573547,right,both,biased-switch,97,20,left,left,0.448
HKG2000WRNO,2019-10-23-16-03-53,1,65,0.5756400392043693,left,probe,ambiguous-switch,-1,20,left,left,0.274
HKG2000WRNO,2019-10-23-16-03-53,1,66,0.522034828242583,left,both,ambiguous-switch,107,20,left,right,0.375
HKG2000WRNO,2019-10-23-16-03-53,1,67,0.5177865562562688,left,probe,biased-switch,-1,0,left,left,0.406
HKG2000WRNO,2019-10-23-16-03-53,1,68,0.5505411271220637,left,both,biased-switch,95,0,left,left,0.249
HKG2000WRNO,2019-10-23-16-03-53,1,69,0.5048526585833544,left,probe,ambiguous-switch,-1,-30,left,left,0.287
HKG2000WRNO,2019-10-23-16-03-53,1,70,0.6926783050724205,left,both,ambiguous-switch,108,-30,left,left,0.286
HKG2000WRNO,2019-10-23-16-03-53,1,71,0.5689494377278955,right,probe,biased-switch,-1,-30,left,left,0.293
HKG2000WRNO,2019-10-23-16-03-53,1,72,0.6495119246713399,right,both,biased-switch,106,-30,left,left,0.312
HKG2000WRNO,2019-10-23-16-03-53,1,73,0.5094764960875342,left,probe,biased-switch,-1,40,left,left,0.372
HKG2000WRNO,2019-10-23-16-03-53,1,74,0.5996672894697269,left,both,biased-switch,109,40,left,right,0.325
HKG2000WRNO,2019-10-23-16-03-53,1,75,0.6938816719988985,left,probe,ambiguous-switch,-1,10,left,left,0.246
HKG2000WRNO,2019-10-23-16-03-53,1,76,0.5258881849386379,left,both,ambiguous-switch,95,10,left,right,0.301
HKG2000WRNO,2019-10-23-16-03-53,1,77,0.644095523869089,left,probe,biased-switch,-1,5,right,right,0.261
HKG2000WRNO,2019-10-23-16-03-53,1,78,0.5462616992249772,left,both,biased-switch,99,5,right,right,0.273
HKG2000WRNO,2019-10-23-16-03-53,1,79,0.6222148755176965,right,probe,biased-switch,-1,30,left,left,0.365
HKG2000WRNO,2019-10-23-16-03-53,1,80,0.6721419795709768,right,both,biased-switch,109,30,left,left,0.194
HKG2000WRNO,2019-10-23-16-03-53,2,1,0.6410889008132158,left,probe,ambiguous-switch,-1,0,left,left,0.431
HKG2000WRNO,2019-10-23-16-03-53,2,2,0.6217843714948873,left,both,ambiguous-switch,105,0,left,right,0.295
HKG2000WRNO,2019-10-23-16-03-53,2,3,0.5653267770880882,right,probe,biased-switch,-1,0,left,left,0.293
HKG2000WRNO,2019-10-23-16-03-53,2,4,0.555059526533314,right,both,biased-switch,93,0,left,left,0.429
HKG2000WRNO,2019-10-23-16-03-53,2,5,0.5397023676421753,left,probe,biased-switch,-1,-5,right,right,0.29
HKG2000WRNO,2019-10-23-16-03-53,2,6,0.5240285708162731,left,both,biased-switch,100,-5,right,right,0.258
HKG2000WRNO,2019-10-23-16-03-53,2,7,0.5284129137590508,left,probe,ambiguous-switch,-1,-5,right,right,0.321
HKG2000WRNO,2019-10-23-16-03-53,2,8,0.5856626982439889,left,both,ambiguous-switch,93,-5,right,right,0.262
HKG2000WRNO,2019-10-23-16-03-53,2,9,0.5294764826090052,right,probe,ambiguous-switch,-1,-20,left,left,0.266
HKG2000WRNO,2019-10-23-16-03-53,2,10,0.5108080217886803,right,both,ambiguous-switch,98,-20,left,left,0.273
HKG2000WRNO,2019-10-23-16-03-53,2,11,0.5570796805353313,right,probe,biased-switch,-1,-10,left,left,0.241
HKG2000WRNO,2019-10-23-16-03-53,2,12,0.6660921576403902,right,both,biased-switch,91,-10,left,left,0.242
HKG2000WRNO,2019-10-23-16-03-53,2,13,0.6455358364403883,left,probe,ambiguous-switch,-1,-10,right,right,0.375
HKG2000WRNO,2019-10-23-16-03-53,2,14,0.5244715361030307,left,both,ambiguous-switch,101,-10,right,right,0.235
HKG2000WRNO,2019-10-23-16-03-53,2,15,0.5843113017464245,right,probe,ambiguous-switch,-1,30,left,left,0.155
HKG2000WRNO,2019-10-23-16-03-53,2,16,0.6148449006714564,right,both,ambiguous-switch,101,30,left,left,0.198
HKG2000WRNO,2019-10-23-16-03-53,2,17,0.6020199992553312,right,probe,biased-switch,-1,30,left,left,0.783
HKG2000WRNO,2019-10-23-16-03-53,2,18,0.6340055072394859,right,both,biased-switch,91,30,left,left,0.318
HKG2000WRNO,2019-10-23-16-03-53,2,19,0.5183435714290839,right,probe,ambiguous-switch,-1,40,left,left,0.389
HKG2000WRNO,2019-10-23-16-03-53,2,20,0.6443384247527301,right,both,ambiguous-switch,102,40,left,left,0.212
HKG2000WRNO,2019-10-23-16-03-53,2,21,0.6916367470207732,left,probe,biased-switch,-1,20,right,right,0.242
HKG2000WRNO,2019-10-23-16-03-53,2,22,0.6585168796386416,left,both,biased-switch,97,20,right,right,0.093
HKG2000WRNO,2019-10-23-16-03-53,2,23,0.6747957470594406,right,probe,ambiguous-switch,-1,20,left,left,0.255
HKG2000WRNO,2019-10-23-16-03-53,2,24,0.5985236496921487,right,both,ambiguous-switch,96,20,left,right,0.067
HKG2000WRNO,2019-10-23-16-03-53,2,25,0.5568814274087228,left,probe,biased-switch,-1,40,left,left,0.269
HKG2000WRNO,2019-10-23-16-03-53,2,26,0.6059530516837399,left,both,biased-switch,101,40,left,right,0.078
HKG2000WRNO,2019-10-23-16-03-53,2,27,0.5908143379990497,right,probe,ambiguous-switch,-1,-30,left,left,0.224
HKG2000WRNO,2019-10-23-16-03-53,2,28,0.5303760500945672,right,both,ambiguous-switch,92,-30,left,left,0.074
HKG2000WRNO,2019-10-23-16-03-53,2,29,0.6748937993534305,left,probe,ambiguous-switch,-1,5,right,right,0.268
HKG2000WRNO,2019-10-23-16-03-53,2,30,0.596383444509292,left,both,ambiguous-switch,102,5,right,right,0.225
HKG2000WRNO,2019-10-23-16-03-53,2,31,0.548597662404314,right,probe,biased-switch,-1,-30,left,left,0.285
HKG2000WRNO,2019-10-23-16-03-53,2,32,0.505316966619601,right,both,biased-switch,105,-30,left,right,0.328
HKG2000WRNO,2019-10-23-16-03-53,2,33,0.6875587196666519,left,probe,biased-switch,-1,-20,right,right,0.679
HKG2000WRNO,2019-10-23-16-03-53,2,34,0.50750857483844,left,both,biased-switch,92,-20,right,right,0.283
HKG2000WRNO,2019-10-23-16-03-53,2,35,0.595444026110232,right,probe,biased-switch,-1,5,left,left,0.282
HKG2000WRNO,2019-10-23-16-03-53,2,36,0.533977481440971,right,both,biased-switch,106,5,left,left,0.194
HKG2000WRNO,2019-10-23-16-03-53,2,37,0.5463597449439261,right,probe,ambiguous-switch,-1,10,left,left,0.279
HKG2000WRNO,2019-10-23-16-03-53,2,38,0.5000934767066549,right,both,ambiguous-switch,104,10,left,left,0.115
HKG2000WRNO,2019-10-23-16-03-53,2,39,0.5819855298813528,right,probe,biased-switch,-1,10,left,left,0.042
HKG2000WRNO,2019-10-23-16-03-53,2,40,0.6149804603921339,right,both,biased-switch,109,10,left,left,1.93
HKG2000WRNO,2019-10-23-16-03-53,2,41,0.6466510709332135,left,probe,ambiguous-switch,-1,0,right,right,0.351
HKG2000WRNO,2019-10-23-16-03-53,2,42,0.6423539466371664,left,both,ambiguous-switch,92,0,right,right,0.194
HKG2000WRNO,2019-10-23-16-03-53,2,43,0.5124235571821015,right,probe,biased-switch,-1,0,left,left,0.258
HKG2000WRNO,2019-10-23-16-03-53,2,44,0.6526826572541846,right,both,biased-switch,105,0,left,left,0.24
HKG2000WRNO,2019-10-23-16-03-53,2,45,0.6316664441072412,right,probe,biased-switch,-1,-5,left,left,0.266
HKG2000WRNO,2019-10-23-16-03-53,2,46,0.619031791688901,right,both,biased-switch,101,-5,left,left,0.234
HKG2000WRNO,2019-10-23-16-03-53,2,47,0.6822683539236887,left,probe,ambiguous-switch,-1,-5,right,right,0.21
HKG2000WRNO,2019-10-23-16-03-53,2,48,0.6131298898377554,left,both,ambiguous-switch,100,-5,right,right,0.202
HKG2000WRNO,2019-10-23-16-03-53,2,49,0.6780793933499188,right,probe,ambiguous-switch,-1,-20,left,left,0.262
HKG2000WRNO,2019-10-23-16-03-53,2,50,0.6119731626814862,right,both,ambiguous-switch,97,-20,left,left,1.129
HKG2000WRNO,2019-10-23-16-03-53,2,51,0.5195067232779115,right,probe,biased-switch,-1,-10,left,left,0.665
HKG2000WRNO,2019-10-23-16-03-53,2,52,0.6298006428455325,right,both,biased-switch,105,-10,left,left,0.252
HKG2000WRNO,2019-10-23-16-03-53,2,53,0.5756371491192095,left,probe,ambiguous-switch,-1,-10,right,right,0.291
HKG2000WRNO,2019-10-23-16-03-53,2,54,0.6654300356652856,left,both,ambiguous-switch,107,-10,right,right,0.693
HKG2000WRNO,2019-10-23-16-03-53,2,55,0.5295757909588829,left,probe,ambiguous-switch,-1,30,right,right,0.574
HKG2000WRNO,2019-10-23-16-03-53,2,56,0.6536810019523578,left,both,ambiguous-switch,98,30,right,right,0.191
HKG2000WRNO,2019-10-23-16-03-53,2,57,0.5234434437058487,left,probe,biased-switch,-1,30,right,right,1.111
HKG2000WRNO,2019-10-23-16-03-53,2,58,0.5210358466446524,left,both,biased-switch,107,30,right,right,0.279
HKG2000WRNO,2019-10-23-16-03-53,2,59,0.6958976508044727,right,probe,ambiguous-switch,-1,40,left,left,0.312
HKG2000WRNO,2019-10-23-16-03-53,2,60,0.6937696454395161,right,both,ambiguous-switch,96,40,left,left,0.276
HKG2000WRNO,2019-10-23-16-03-53,2,61,0.563974754138071,right,probe,biased-switch,-1,20,left,left,0.318
HKG2000WRNO,2019-10-23-16-03-53,2,62,0.5826124053307447,right,both,biased-switch,106,20,left,right,0.318
HKG2000WRNO,2019-10-23-16-03-53,2,63,0.5215393294606738,right,probe,ambiguous-switch,-1,20,right,right,0.153
HKG2000WRNO,2019-10-23-16-03-53,2,64,0.6194283128347503,right,both,ambiguous-switch,101,20,right,right,0.202
HKG2000WRNO,2019-10-23-16-03-53,2,65,0.6358103709718912,left,probe,biased-switch,-1,40,left,left,0.305
HKG2000WRNO,2019-10-23-16-03-53,2,66,0.5525356811487139,left,both,biased-switch,108,40,left,left,0.606
HKG2000WRNO,2019-10-23-16-03-53,2,67,0.6756169813085209,left,probe,ambiguous-switch,-1,-30,right,right,0.33
HKG2000WRNO,2019-10-23-16-03-53,2,68,0.6207921651436964,left,both,ambiguous-switch,102,-30,right,right,0.392
HKG2000WRNO,2019-10-23-16-03-53,2,69,0.6968736192525596,right,probe,ambiguous-switch,-1,5,left,left,0.387
HKG2000WRNO,2019-10-23-16-03-53,2,70,0.6098355161923193,right,both,ambiguous-switch,106,5,left,left,0.314
HKG2000WRNO,2019-10-23-16-03-53,2,71,0.5432702000734729,right,probe,biased-switch,-1,-30,left,left,0.292
HKG2000WRNO,2019-10-23-16-03-53,2,72,0.6845968397810639,right,both,biased-switch,91,-30,left,left,0.664
HKG2000WRNO,2019-10-23-16-03-53,2,73,0.6883386822300779,right,probe,biased-switch,-1,-20,left,left,0.308
HKG2000WRNO,2019-10-23-16-03-53,2,74,0.5351692910283274,right,both,biased-switch,96,-20,left,left,0.262
HKG2000WRNO,2019-10-23-16-03-53,2,75,0.5841741910041152,left,probe,biased-switch,-1,5,right,right,0.388
HKG2000WRNO,2019-10-23-16-03-53,2,76,0.5364849332885046,left,both,biased-switch,109,5,right,right,0.322
HKG2000WRNO,2019-10-23-16-03-53,2,77,0.6346521453314478,left,probe,ambiguous-switch,-1,10,right,right,0.35
HKG2000WRNO,2019-10-23-16-03-53,2,78,0.6989081953291645,left,both,ambiguous-switch,106,10,right,right,0.306
HKG2000WRNO,2019-10-23-16-03-53,2,79,0.6995686715125641,right,probe,biased-switch,-1,10,left,left,0.294
HKG2000WRNO,2019-10-23-16-03-53,2,80,0.5977580372315249,right,both,biased-switch,98,10,left,left,0.278
HKG2000WRNO,2019-10-23-16-03-53,3,1,0.6262142563949722,left,probe,ambiguous-switch,-1,-5,left,left,0.239
HKG2000WRNO,2019-10-23-16-03-53,3,2,0.5925591679024386,left,both,ambiguous-switch,108,-5,left,right,0.083
HKG2000WRNO,2019-10-23-16-03-53,3,3,0.6684464304457449,left,probe,ambiguous-switch,-1,5,right,right,0.26
HKG2000WRNO,2019-10-23-16-03-53,3,4,0.6454529903767994,left,both,ambiguous-switch,101,5,right,right,1.581
HKG2000WRNO,2019-10-23-16-03-53,3,5,0.6202597661613009,left,probe,ambiguous-switch,-1,-20,right,right,0.4
HKG2000WRNO,2019-10-23-16-03-53,3,6,0.5261728286335601,left,both,ambiguous-switch,90,-20,right,right,0.281
HKG2000WRNO,2019-10-23-16-03-53,3,7,0.5766486769068717,right,probe,biased-switch,-1,-20,left,left,0.343
HKG2000WRNO,2019-10-23-16-03-53,3,8,0.540817647353632,right,both,biased-switch,97,-20,left,left,1.21
HKG2000WRNO,2019-10-23-16-03-53,3,9,0.5430865835433738,right,probe,biased-switch,-1,-30,left,left,0.573
HKG2000WRNO,2019-10-23-16-03-53,3,10,0.5410234527482873,right,both,biased-switch,108,-30,left,left,0.306
HKG2000WRNO,2019-10-23-16-03-53,3,11,0.6040427170173746,left,probe,biased-switch,-1,-10,right,right,0.324
HKG2000WRNO,2019-10-23-16-03-53,3,12,0.5019148900243382,left,both,biased-switch,91,-10,right,right,0.387
HKG2000WRNO,2019-10-23-16-03-53,3,13,0.5056352111807253,left,probe,ambiguous-switch,-1,-30,right,right,0.313
HKG2000WRNO,2019-10-23-16-03-53,3,14,0.6551295355801342,left,both,ambiguous-switch,94,-30,right,right,0.289
HKG2000WRNO,2019-10-23-16-03-53,3,15,0.5131051144157912,left,probe,biased-switch,-1,20,right,right,0.091
HKG2000WRNO,2019-10-23-16-03-53,3,16,0.5472710399584049,left,both,biased-switch,100,20,right,right,1.651
HKG2000WRNO,2019-10-23-16-03-53,3,17,0.5467611054271994,right,probe,ambiguous-switch,-1,20,left,left,0.268
HKG2000WRNO,2019-10-23-16-03-53,3,18,0.624374949485887,right,both,ambiguous-switch,104,20,left,right,0.102
HKG2000WRNO,2019-10-23-16-03-53,3,19,0.50233823510326,right,probe,ambiguous-switch,-1,-10,left,left,0.259
HKG2000WRNO,2019-10-23-16-03-53,3,20,0.6272580663377241,right,both,ambiguous-switch,98,-10,left,left,0.276
HKG2000WRNO,2019-10-23-16-03-53,3,21,0.6336057517137357,right,probe,biased-switch,-1,-5,left,left,0.775
HKG2000WRNO,2019-10-23-16-03-53,3,22,0.6461091261855076,right,both,biased-switch,90,-5,left,left,0.097
HKG2000WRNO,2019-10-23-16-03-53,3,23,0.5008751192802521,left,probe,ambiguous-switch,-1,0,right,right,0.304
HKG2000WRNO,2019-10-23-16-03-53,3,24,0.5940536541304888,left,both,ambiguous-switch,105,0,right,right,0.206
HKG2000WRNO,2019-10-23-16-03-53,3,25,0.5341980154244236,left,probe,biased-switch,-1,0,right,right,0.289
HKG2000WRNO,2019-10-23-16-03-53,3,26,0.5922875749138348,left,both,biased-switch,108,0,right,right,1.264
HKG2000WRNO,2019-10-23-16-03-53,3,27,0.5544344125711929,right,probe,ambiguous-switch,-1,40,left,left,0.271
HKG2000WRNO,2019-10-23-16-03-53,3,28,0.6744158680871647,right,both,ambiguous-switch,91,40,left,right,0.186
HKG2000WRNO,2019-10-23-16-03-53,3,29,0.5232463408289095,right,probe,ambiguous-switch,-1,30,right,right,0.033
HKG2000WRNO,2019-10-23-16-03-53,3,30,0.6473556209852585,right,both,ambiguous-switch,99,30,right,left,0.347
HKG2000WRNO,2019-10-23-16-03-53,3,31,0.647322039111031,left,probe,biased-switch,-1,40,right,right,0.268
HKG2000WRNO,2019-10-23-16-03-53,3,32,0.5254893827937404,left,both,biased-switch,99,40,right,right,0.181
HKG2000WRNO,2019-10-23-16-03-53,3,33,0.6010751950839546,right,probe,biased-switch,-1,30,left,left,0.29
HKG2000WRNO,2019-10-23-16-03-53,3,34,0.6161743321057229,right,both,biased-switch,107,30,left,left,0.279
HKG2000WRNO,2019-10-23-16-03-53,3,35,0.5541188265486845,right,probe,biased-switch,-1,10,left,left,0.219
HKG2000WRNO,2019-10-23-16-03-53,3,36,0.5351803361310301,right,both,biased-switch,92,10,left,right,0.338
HKG2000WRNO,2019-10-23-16-03-53,3,37,0.6705658882612882,right,probe,biased-switch,-1,5,right,right,0.342
HKG2000WRNO,2019-10-23-16-03-53,3,38,0.6631587651526925,right,both,biased-switch,97,5,right,left,0.294
HKG2000WRNO,2019-10-23-16-03-53,3,39,0.6458668967135762,right,probe,ambiguous-switch,-1,10,left,left,0.182
HKG2000WRNO,2019-10-23-16-03-53,3,40,0.5086068302874633,right,both,ambiguous-switch,105,10,left,right,0.184
HKG2000WRNO,2019-10-23-16-03-53,3,41,0.5810866247662563,left,probe,ambiguous-switch,-1,-5,right,right,0.201
HKG2000WRNO,2019-10-23-16-03-53,3,42,0.6527357733205594,left,both,ambiguous-switch,99,-5,right,right,0.222
HKG2000WRNO,2019-10-23-16-03-53,3,43,0.5274039060085258,right,probe,ambiguous-switch,-1,5,right,right,0.259
HKG2000WRNO,2019-10-23-16-03-53,3,44,0.5576935428449629,right,both,ambiguous-switch,105,5,right,right,0.233
HKG2000WRNO,2019-10-23-16-03-53,3,45,0.6741446873273506,right,probe,ambiguous-switch,-1,-20,right,right,0.281
HKG2000WRNO,2019-10-23-16-03-53,3,46,0.5047937595974215,right,both,ambiguous-switch,97,-20,right,right,0.105
HKG2000WRNO,2019-10-23-16-03-53,3,47,0.6029346909402454,left,probe,biased-switch,-1,-20,right,right,0.308
HKG2000WRNO,2019-10-23-16-03-53,3,48,0.5394378019079759,left,both,biased-switch,108,-20,right,right,0.177
HKG2000WRNO,2019-10-23-16-03-53,3,49,0.6757994425210527,right,probe,biased-switch,-1,-30,right,right,0.292
HKG2000WRNO,2019-10-23-16-03-53,3,50,0.5401066293447905,right,both,biased-switch,102,-30,right,right,0.238
HKG2000WRNO,2019-10-23-16-03-53,3,51,0.5855675263580327,right,probe,biased-switch,-1,-10,right,right,0.246
HKG2000WRNO,2019-10-23-16-03-53,3,52,0.5752722474243375,right,both,biased-switch,104,-10,right,right,0.098
HKG2000WRNO,2019-10-23-16-03-53,3,53,0.5729685847737,right,probe,ambiguous-switch,-1,-30,right,right,0.256
HKG2000WRNO,2019-10-23-16-03-53,3,54,0.5823861440802577,right,both,ambiguous-switch,106,-30,right,right,1.578
HKG2000WRNO,2019-10-23-16-03-53,3,55,0.6752520731565759,right,probe,biased-switch,-1,20,right,right,0.621
HKG2000WRNO,2019-10-23-16-03-53,3,56,0.5906180515646351,right,both,biased-switch,97,20,right,left,0.262
HKG2000WRNO,2019-10-23-16-03-53,3,57,0.6744173757443122,left,probe,ambiguous-switch,-1,20,right,right,0.28
HKG2000WRNO,2019-10-23-16-03-53,3,58,0.5232210261804227,left,both,ambiguous-switch,99,20,right,left,0.198
HKG2000WRNO,2019-10-23-16-03-53,3,59,0.6748376871953182,left,probe,ambiguous-switch,-1,-10,right,right,0.043
HKG2000WRNO,2019-10-23-16-03-53,3,60,0.6922252084302684,left,both,ambiguous-switch,106,-10,right,right,0.206
HKG2000WRNO,2019-10-23-16-03-53,3,61,0.675213816126689,right,probe,biased-switch,-1,-5,right,right,0.173
HKG2000WRNO,2019-10-23-16-03-53,3,62,0.5174673267890979,right,both,biased-switch,91,-5,right,right,0.07
HKG2000WRNO,2019-10-23-16-03-53,3,63,0.6587736614574361,left,probe,ambiguous-switch,-1,0,right,right,1.279
HKG2000WRNO,2019-10-23-16-03-53,3,64,0.5761877928678126,left,both,ambiguous-switch,109,0,right,right,0.433
HKG2000WRNO,2019-10-23-16-03-53,3,65,0.6782304198713051,left,probe,biased-switch,-1,0,right,right,0.242
HKG2000WRNO,2019-10-23-16-03-53,3,66,0.6792967080770289,left,both,biased-switch,105,0,right,left,0.676
HKG2000WRNO,2019-10-23-16-03-53,3,67,0.5936050462219278,left,probe,ambiguous-switch,-1,40,right,right,0.286
HKG2000WRNO,2019-10-23-16-03-53,3,68,0.6257897376950241,left,both,ambiguous-switch,102,40,right,right,2.139
HKG2000WRNO,2019-10-23-16-03-53,3,69,0.6695917390756008,left,probe,ambiguous-switch,-1,30,right,right,0.304
HKG2000WRNO,2019-10-23-16-03-53,3,70,0.6795220518810733,left,both,ambiguous-switch,91,30,right,right,0.28
HKG2000WRNO,2019-10-23-16-03-53,3,71,0.5119173182276467,left,probe,biased-switch,-1,40,right,right,0.117
HKG2000WRNO,2019-10-23-16-03-53,3,72,0.6552929900217415,left,both,biased-switch,107,40,right,right,0.023
HKG2000WRNO,2019-10-23-16-03-53,3,73,0.5167002087309063,left,probe,biased-switch,-1,30,right,right,0.101
HKG2000WRNO,2019-10-23-16-03-53,3,74,0.5011654444799244,left,both,biased-switch,97,30,right,right,0.254
HKG2000WRNO,2019-10-23-16-03-53,3,75,0.645562691753935,right,probe,biased-switch,-1,10,right,right,0.299
HKG2000WRNO,2019-10-23-16-03-53,3,76,0.5126480762139495,right,both,biased-switch,97,10,right,left,0.737
HKG2000WRNO,2019-10-23-16-03-53,3,77,0.564847956142029,right,probe,biased-switch,-1,5,left,left,0.358
HKG2000WRNO,2019-10-23-16-03-53,3,78,0.6240763448530241,right,both,biased-switch,100,5,left,right,0.099
HKG2000WRNO,2019-10-23-16-03-53,3,79,0.5973778430439145,left,probe,ambiguous-switch,-1,10,right,right,0.173
HKG2000WRNO,2019-10-23-16-03-53,3,80,0.6838049450816717,left,both,ambiguous-switch,105,10,right,left,0.173
HKG2000WRNO,2019-10-23-16-03-53,4,1,0.542514606129379,right,probe,biased-switch,-1,-10,right,right,0.305
HKG2000WRNO,2019-10-23-16-03-53,4,2,0.6120678694482878,right,both,biased-switch,97,-10,right,right,0.14
HKG2000WRNO,2019-10-23-16-03-53,4,3,0.6002609580917304,left,probe,biased-switch,-1,40,right,right,1.252
HKG2000WRNO,2019-10-23-16-03-53,4,4,0.6846671866580047,left,both,biased-switch,105,40,right,right,0.373
HKG2000WRNO,2019-10-23-16-03-53,4,5,0.5881852742024907,right,probe,ambiguous-switch,-1,-20,right,right,0.447
HKG2000WRNO,2019-10-23-16-03-53,4,6,0.6439913210564799,right,both,ambiguous-switch,104,-20,right,right,0.346
HKG2000WRNO,2019-10-23-16-03-53,4,7,0.528979375842069,right,probe,ambiguous-switch,-1,10,right,right,0.33
HKG2000WRNO,2019-10-23-16-03-53,4,8,0.682912435175907,right,both,ambiguous-switch,105,10,right,right,0.237
HKG2000WRNO,2019-10-23-16-03-53,4,9,0.592773627138943,right,probe,ambiguous-switch,-1,5,right,right,0.113
HKG2000WRNO,2019-10-23-16-03-53,4,10,0.5331654182607739,right,both,ambiguous-switch,109,5,right,left,0.274
HKG2000WRNO,2019-10-23-16-03-53,4,11,0.5435365908979717,right,probe,biased-switch,-1,5,left,left,0.212
HKG2000WRNO,2019-10-23-16-03-53,4,12,0.5770771658449418,right,both,biased-switch,107,5,left,right,0.34
HKG2000WRNO,2019-10-23-16-03-53,4,13,0.6463626646556607,left,probe,biased-switch,-1,30,left,left,0.259
HKG2000WRNO,2019-10-23-16-03-53,4,14,0.5599877729168476,left,both,biased-switch,96,30,left,right,0.019
HKG2000WRNO,2019-10-23-16-03-53,4,15,0.5749385229143278,left,probe,ambiguous-switch,-1,-30,right,right,0.262
HKG2000WRNO,2019-10-23-16-03-53,4,16,0.5091429979124624,left,both,ambiguous-switch,100,-30,right,right,0.238
HKG2000WRNO,2019-10-23-16-03-53,4,17,0.5752233720614898,left,probe,ambiguous-switch,-1,-5,right,right,0.046
HKG2000WRNO,2019-10-23-16-03-53,4,18,0.5420195094468179,left,both,ambiguous-switch,102,-5,right,right,0.24
HKG2000WRNO,2019-10-23-16-03-53,4,19,0.6000531965994276,left,probe,ambiguous-switch,-1,0,right,right,0.864
HKG2000WRNO,2019-10-23-16-03-53,4,20,0.5037569458349288,left,both,ambiguous-switch,92,0,right,right,0.269
HKG2000WRNO,2019-10-23-16-03-53,4,21,0.632884372451507,right,probe,ambiguous-switch,-1,20,right,right,0.453
HKG2000WRNO,2019-10-23-16-03-53,4,22,0.6432654202227731,right,both,ambiguous-switch,102,20,right,right,0.085
HKG2000WRNO,2019-10-23-16-03-53,4,23,0.6748132634421659,left,probe,biased-switch,-1,20,right,right,0.016
HKG2000WRNO,2019-10-23-16-03-53,4,24,0.6313392492162221,left,both,biased-switch,98,20,right,left,0.271
HKG2000WRNO,2019-10-23-16-03-53,4,25,0.6907252815687519,left,probe,biased-switch,-1,-20,right,right,0.138
HKG2000WRNO,2019-10-23-16-03-53,4,26,0.6970662896228068,left,both,biased-switch,93,-20,right,right,0.246
HKG2000WRNO,2019-10-23-16-03-53,4,27,0.6907405664926236,left,probe,biased-switch,-1,-30,right,right,0.238
HKG2000WRNO,2019-10-23-16-03-53,4,28,0.5300410336568635,left,both,biased-switch,98,-30,right,right,1.064
HKG2000WRNO,2019-10-23-16-03-53,4,29,0.5591058707668669,right,probe,ambiguous-switch,-1,40,right,right,0.345
HKG2000WRNO,2019-10-23-16-03-53,4,30,0.6271418537239908,right,both,ambiguous-switch,96,40,right,right,0.163
HKG2000WRNO,2019-10-23-16-03-53,4,31,0.531056415217731,left,probe,ambiguous-switch,-1,-10,right,right,0.036
HKG2000WRNO,2019-10-23-16-03-53,4,32,0.6206419994504321,left,both,ambiguous-switch,101,-10,right,right,0.116
HKG2000WRNO,2019-10-23-16-03-53,4,33,0.5838214223426826,left,probe,biased-switch,-1,10,right,right,0.288
HKG2000WRNO,2019-10-23-16-03-53,4,34,0.5644233020297535,left,both,biased-switch,105,10,right,left,0.242
HKG2000WRNO,2019-10-23-16-03-53,4,35,0.6472091824991424,left,probe,biased-switch,-1,0,right,right,0.263
HKG2000WRNO,2019-10-23-16-03-53,4,36,0.5199607561553014,left,both,biased-switch,99,0,right,left,0.252
HKG2000WRNO,2019-10-23-16-03-53,4,37,0.6840743110156736,left,probe,ambiguous-switch,-1,30,right,right,0.242
HKG2000WRNO,2019-10-23-16-03-53,4,38,0.5643180298367135,left,both,ambiguous-switch,93,30,right,left,0.083
HKG2000WRNO,2019-10-23-16-03-53,4,39,0.5442952652160641,right,probe,biased-switch,-1,-5,right,right,0.262
HKG2000WRNO,2019-10-23-16-03-53,4,40,0.5888712644420264,right,both,biased-switch,105,-5,right,right,0.087
HKG2000WRNO,2019-10-23-16-03-53,4,41,0.5873649070853217,right,probe,biased-switch,-1,-10,right,right,0.302
HKG2000WRNO,2019-10-23-16-03-53,4,42,0.5789647458025531,right,both,biased-switch,93,-10,right,right,0.264
HKG2000WRNO,2019-10-23-16-03-53,4,43,0.5946133172363278,right,probe,biased-switch,-1,40,right,right,0.267
HKG2000WRNO,2019-10-23-16-03-53,4,44,0.6036493455076409,right,both,biased-switch,109,40,right,right,1.097
HKG2000WRNO,2019-10-23-16-03-53,4,45,0.587408269518671,right,probe,ambiguous-switch,-1,-20,right,right,0.342
HKG2000WRNO,2019-10-23-16-03-53,4,46,0.6049638597198276,right,both,ambiguous-switch,100,-20,right,right,0.244
HKG2000WRNO,2019-10-23-16-03-53,4,47,0.5536988548028041,left,probe,ambiguous-switch,-1,10,right,right,0.32
HKG2000WRNO,2019-10-23-16-03-53,4,48,0.6162117230655313,left,both,ambiguous-switch,98,10,right,left,0.277
HKG2000WRNO,2019-10-23-16-03-53,4,49,0.6933727267065228,left,probe,ambiguous-switch,-1,5,left,left,0.305
HKG2000WRNO,2019-10-23-16-03-53,4,50,0.6367319994820664,left,both,ambiguous-switch,91,5,left,right,0.255
HKG2000WRNO,2019-10-23-16-03-53,4,51,0.6694649442715694,right,probe,biased-switch,-1,5,right,right,0.25
HKG2000WRNO,2019-10-23-16-03-53,4,52,0.5342310028880314,right,both,biased-switch,96,5,right,left,0.305
HKG2000WRNO,2019-10-23-16-03-53,4,53,0.56318813166724,right,probe,biased-switch,-1,30,right,right,0.385
HKG2000WRNO,2019-10-23-16-03-53,4,54,0.5209551917177291,right,both,biased-switch,107,30,right,right,0.001
HKG2000WRNO,2019-10-23-16-03-53,4,55,0.6690206072830601,right,probe,ambiguous-switch,-1,-30,right,right,0.275
HKG2000WRNO,2019-10-23-16-03-53,4,56,0.598612912180555,right,both,ambiguous-switch,99,-30,right,left,0.335
HKG2000WRNO,2019-10-23-16-03-53,4,57,0.501744687865247,left,probe,ambiguous-switch,-1,-5,right,right,0.258
HKG2000WRNO,2019-10-23-16-03-53,4,58,0.6386615050505442,left,both,ambiguous-switch,94,-5,right,right,0.269
HKG2000WRNO,2019-10-23-16-03-53,4,59,0.5457200555185966,right,probe,ambiguous-switch,-1,0,right,right,0.262
HKG2000WRNO,2019-10-23-16-03-53,4,60,0.6859647500447332,right,both,ambiguous-switch,98,0,right,left,0.256
HKG2000WRNO,2019-10-23-16-03-53,4,61,0.5053846060321321,right,probe,ambiguous-switch,-1,20,left,left,0.575
HKG2000WRNO,2019-10-23-16-03-53,4,62,0.6117008367896027,right,both,ambiguous-switch,92,20,left,right,1.15
HKG2000WRNO,2019-10-23-16-03-53,4,63,0.5623674410792984,left,probe,biased-switch,-1,20,right,right,0.478
HKG2000WRNO,2019-10-23-16-03-53,4,64,0.5264521138348816,left,both,biased-switch,104,20,right,right,0.346
HKG2000WRNO,2019-10-23-16-03-53,4,65,0.6719953669141819,right,probe,biased-switch,-1,-20,right,right,0.039
HKG2000WRNO,2019-10-23-16-03-53,4,66,0.6732961052116725,right,both,biased-switch,104,-20,right,right,0.296
HKG2000WRNO,2019-10-23-16-03-53,4,67,0.5246245369231414,right,probe,biased-switch,-1,-30,right,right,0.534
HKG2000WRNO,2019-10-23-16-03-53,4,68,0.5394786043483781,right,both,biased-switch,103,-30,right,right,1.122
HKG2000WRNO,2019-10-23-16-03-53,4,69,0.6459253190248759,left,probe,ambiguous-switch,-1,40,right,right,0.555
HKG2000WRNO,2019-10-23-16-03-53,4,70,0.6623868986094288,left,both,ambiguous-switch,92,40,right,left,0.072
HKG2000WRNO,2019-10-23-16-03-53,4,71,0.5033506033120053,left,probe,ambiguous-switch,-1,-10,right,right,0.179
HKG2000WRNO,2019-10-23-16-03-53,4,72,0.5321887809347524,left,both,ambiguous-switch,109,-10,right,left,0.24
HKG2000WRNO,2019-10-23-16-03-53,4,73,0.5270790722884015,right,probe,biased-switch,-1,10,right,right,0.153
HKG2000WRNO,2019-10-23-16-03-53,4,74,0.6269310464099543,right,both,biased-switch,96,10,right,left,0.211
HKG2000WRNO,2019-10-23-16-03-53,4,75,0.5307841573540377,right,probe,biased-switch,-1,0,left,left,0.137
HKG2000WRNO,2019-10-23-16-03-53,4,76,0.6852258422076497,right,both,biased-switch,103,0,left,right,0.293
HKG2000WRNO,2019-10-23-16-03-53,4,77,0.5375089978647258,right,probe,ambiguous-switch,-1,30,right,right,0.325
HKG2000WRNO,2019-10-23-16-03-53,4,78,0.5409194552417259,right,both,ambiguous-switch,95,30,right,left,0.298
HKG2000WRNO,2019-10-23-16-03-53,4,79,0.583706285047077,right,probe,biased-switch,-1,-5,left,left,0.16
HKG2000WRNO,2019-10-23-16-03-53,4,80,0.6640070063619316,right,both,biased-switch,109,-5,left,left,0.969
HKG2000WRNO,2019-10-23-16-03-53,5,1,0.5335826064483964,right,probe,ambiguous-switch,-1,-20,left,left,0.931
HKG2000WRNO,2019-10-23-16-03-53,5,2,0.5407089172967501,right,both,ambiguous-switch,92,-20,left,left,0.789
HKG2000WRNO,2019-10-23-16-03-53,5,3,0.6530063455437218,left,probe,biased-switch,-1,-20,left,left,0.3
HKG2000WRNO,2019-10-23-16-03-53,5,4,0.6720515625147783,left,both,biased-switch,110,-20,left,left,0.289
HKG2000WRNO,2019-10-23-16-03-53,5,5,0.5820319220306561,right,probe,ambiguous-switch,-1,10,left,left,0.364
HKG2000WRNO,2019-10-23-16-03-53,5,6,0.6666896639924129,right,both,ambiguous-switch,103,10,left,left,0.608
HKG2000WRNO,2019-10-23-16-03-53,5,7,0.586235907801054,right,probe,biased-switch,-1,20,left,left,0.489
HKG2000WRNO,2019-10-23-16-03-53,5,8,0.5583385819736981,right,both,biased-switch,108,20,left,right,0.25
HKG2000WRNO,2019-10-23-16-03-53,5,9,0.5856652175751387,right,probe,ambiguous-switch,-1,20,left,left,0.294
HKG2000WRNO,2019-10-23-16-03-53,5,10,0.5268519149872483,right,both,ambiguous-switch,101,20,left,left,0.206
HKG2000WRNO,2019-10-23-16-03-53,5,11,0.5082772370682844,left,probe,biased-switch,-1,10,left,left,0.25
HKG2000WRNO,2019-10-23-16-03-53,5,12,0.6961638399725039,left,both,biased-switch,106,10,left,right,0.223
HKG2000WRNO,2019-10-23-16-03-53,5,13,0.5835845194322885,left,probe,biased-switch,-1,-5,left,left,0.26
HKG2000WRNO,2019-10-23-16-03-53,5,14,0.6842800705353673,left,both,biased-switch,95,-5,left,right,0.307
HKG2000WRNO,2019-10-23-16-03-53,5,15,0.5722066224449365,right,probe,ambiguous-switch,-1,-10,left,left,0.26
HKG2000WRNO,2019-10-23-16-03-53,5,16,0.6626135943792169,right,both,ambiguous-switch,91,-10,left,left,0.218
HKG2000WRNO,2019-10-23-16-03-53,5,17,0.5947549469533455,left,probe,ambiguous-switch,-1,0,left,left,0.273
HKG2000WRNO,2019-10-23-16-03-53,5,18,0.6720269206262036,left,both,ambiguous-switch,96,0,left,left,0.223
HKG2000WRNO,2019-10-23-16-03-53,5,19,0.5381627012382995,left,probe,ambiguous-switch,-1,40,left,left,0.181
HKG2000WRNO,2019-10-23-16-03-53,5,20,0.6209633466305757,left,both,ambiguous-switch,94,40,left,left,0.023
HKG2000WRNO,2019-10-23-16-03-53,5,21,0.6952316972745736,right,probe,ambiguous-switch,-1,30,left,left,0.473
HKG2000WRNO,2019-10-23-16-03-53,5,22,0.6572766952713882,right,both,ambiguous-switch,100,30,left,left,0.294
HKG2000WRNO,2019-10-23-16-03-53,5,23,0.5311122961539251,right,probe,ambiguous-switch,-1,-30,left,left,0.332
HKG2000WRNO,2019-10-23-16-03-53,5,24,0.6043017385349131,right,both,ambiguous-switch,100,-30,left,left,0.507
HKG2000WRNO,2019-10-23-16-03-53,5,25,0.5970571833893098,left,probe,ambiguous-switch,-1,-5,left,left,0.332
HKG2000WRNO,2019-10-23-16-03-53,5,26,0.6865929551988813,left,both,ambiguous-switch,107,-5,left,left,0.359
HKG2000WRNO,2019-10-23-16-03-53,5,27,0.6326246469422201,right,probe,ambiguous-switch,-1,5,left,left,0.543
HKG2000WRNO,2019-10-23-16-03-53,5,28,0.579745922103198,right,both,ambiguous-switch,91,5,left,left,0.389
HKG2000WRNO,2019-10-23-16-03-53,5,29,0.5702688764466537,right,probe,biased-switch,-1,5,left,left,0.384
HKG2000WRNO,2019-10-23-16-03-53,5,30,0.6461860207312033,right,both,biased-switch,97,5,left,left,0.298
HKG2000WRNO,2019-10-23-16-03-53,5,31,0.6042307632009193,left,probe,biased-switch,-1,30,left,left,0.297
HKG2000WRNO,2019-10-23-16-03-53,5,32,0.5243151711926604,left,both,biased-switch,109,30,left,right,0.247
HKG2000WRNO,2019-10-23-16-03-53,5,33,0.5204620261078347,left,probe,biased-switch,-1,0,left,left,0.319
HKG2000WRNO,2019-10-23-16-03-53,5,34,0.5209188122778339,left,both,biased-switch,108,0,left,right,0.311
HKG2000WRNO,2019-10-23-16-03-53,5,35,0.6169539223341749,left,probe,biased-switch,-1,-30,left,left,0.588
HKG2000WRNO,2019-10-23-16-03-53,5,36,0.5397445967016496,left,both,biased-switch,104,-30,left,left,0.095
HKG2000WRNO,2019-10-23-16-03-53,5,37,0.6231789900228826,left,probe,biased-switch,-1,40,left,left,0.53
HKG2000WRNO,2019-10-23-16-03-53,5,38,0.6631459904519634,left,both,biased-switch,99,40,left,left,0.129
HKG2000WRNO,2019-10-23-16-03-53,5,39,0.6458732002477443,left,probe,biased-switch,-1,-10,left,left,0.255
HKG2000WRNO,2019-10-23-16-03-53,5,40,0.6931671508757862,left,both,biased-switch,93,-10,left,right,0.439
HKG2000WRNO,2019-10-23-16-03-53,5,41,0.5507935407631824,right,probe,ambiguous-switch,-1,-20,left,left,0.289
HKG2000WRNO,2019-10-23-16-03-53,5,42,0.6231518713513087,right,both,ambiguous-switch,98,-20,left,left,0.243
HKG2000WRNO,2019-10-23-16-03-53,5,43,0.6002069136904327,left,probe,biased-switch,-1,-20,right,right,0.319
HKG2000WRNO,2019-10-23-16-03-53,5,44,0.5773666405034046,left,both,biased-switch,95,-20,right,right,0.41
HKG2000WRNO,2019-10-23-16-03-53,5,45,0.5992835400127479,right,probe,ambiguous-switch,-1,10,left,left,0.362
HKG2000WRNO,2019-10-23-16-03-53,5,46,0.6474848130819497,right,both,ambiguous-switch,106,10,left,right,0.014
HKG2000WRNO,2019-10-23-16-03-53,5,47,0.5914351476589049,left,probe,biased-switch,-1,20,left,left,0.848
HKG2000WRNO,2019-10-23-16-03-53,5,48,0.5280711234936268,left,both,biased-switch,109,20,left,right,0.369
HKG2000WRNO,2019-10-23-16-03-53,5,49,0.6534107254313862,right,probe,ambiguous-switch,-1,20,left,left,0.278
HKG2000WRNO,2019-10-23-16-03-53,5,50,0.6681523215555332,right,both,ambiguous-switch,91,20,left,right,0.193
HKG2000WRNO,2019-10-23-16-03-53,5,51,0.6670169157766825,left,probe,biased-switch,-1,10,right,right,0.235
HKG2000WRNO,2019-10-23-16-03-53,5,52,0.5671636614977149,left,both,biased-switch,100,10,right,left,0.252
HKG2000WRNO,2019-10-23-16-03-53,5,53,0.5527996834953544,left,probe,biased-switch,-1,-5,left,left,0.21
HKG2000WRNO,2019-10-23-16-03-53,5,54,0.6096264732502057,left,both,biased-switch,102,-5,left,right,0.155
HKG2000WRNO,2019-10-23-16-03-53,5,55,0.6909351807314452,left,probe,ambiguous-switch,-1,-10,right,right,0.134
HKG2000WRNO,2019-10-23-16-03-53,5,56,0.5612726766771732,left,both,ambiguous-switch,95,-10,right,right,0.246
HKG2000WRNO,2019-10-23-16-03-53,5,57,0.6559864623426218,right,probe,ambiguous-switch,-1,0,left,left,0.419
HKG2000WRNO,2019-10-23-16-03-53,5,58,0.5676574474295487,right,both,ambiguous-switch,95,0,left,left,0.224
HKG2000WRNO,2019-10-23-16-03-53,5,59,0.6161503342442446,right,probe,ambiguous-switch,-1,40,left,left,0.176
HKG2000WRNO,2019-10-23-16-03-53,5,60,0.6462183998138329,right,both,ambiguous-switch,110,40,left,left,0.049
HKG2000WRNO,2019-10-23-16-03-53,5,61,0.6906807919043888,left,probe,ambiguous-switch,-1,30,right,right,0.118
HKG2000WRNO,2019-10-23-16-03-53,5,62,0.5058229164351002,left,both,ambiguous-switch,91,30,right,left,0.875
HKG2000WRNO,2019-10-23-16-03-53,5,63,0.5480601311963862,right,probe,ambiguous-switch,-1,-30,left,left,0.369
HKG2000WRNO,2019-10-23-16-03-53,5,64,0.6135512243554836,right,both,ambiguous-switch,104,-30,left,left,0.239
HKG2000WRNO,2019-10-23-16-03-53,5,65,0.6001991094328712,left,probe,ambiguous-switch,-1,-5,left,left,0.401
HKG2000WRNO,2019-10-23-16-03-53,5,66,0.5261582143070523,left,both,ambiguous-switch,99,-5,left,right,0.405
HKG2000WRNO,2019-10-23-16-03-53,5,67,0.5678970325886689,right,probe,ambiguous-switch,-1,5,left,left,0.287
HKG2000WRNO,2019-10-23-16-03-53,5,68,0.5837176300636265,right,both,ambiguous-switch,96,5,left,left,0.083
HKG2000WRNO,2019-10-23-16-03-53,5,69,0.5213285211688108,left,probe,biased-switch,-1,5,left,left,0.701
HKG2000WRNO,2019-10-23-16-03-53,5,70,0.6400394999567182,left,both,biased-switch,102,5,left,left,0.252
HKG2000WRNO,2019-10-23-16-03-53,5,71,0.5895418395240205,left,probe,biased-switch,-1,30,left,left,0.4
HKG2000WRNO,2019-10-23-16-03-53,5,72,0.5422452822661301,left,both,biased-switch,105,30,left,left,1.316
HKG2000WRNO,2019-10-23-16-03-53,5,73,0.6745595765330392,right,probe,biased-switch,-1,0,left,left,0.388
HKG2000WRNO,2019-10-23-16-03-53,5,74,0.6395243864895648,right,both,biased-switch,98,0,left,left,0.327
HKG2000WRNO,2019-10-23-16-03-53,5,75,0.6623322783635117,right,probe,biased-switch,-1,-30,left,left,2.68
HKG2000WRNO,2019-10-23-16-03-53,5,76,0.5902940773987487,right,both,biased-switch,95,-30,left,left,0.362
HKG2000WRNO,2019-10-23-16-03-53,5,77,0.5611928193569914,left,probe,biased-switch,-1,40,left,left,0.348
HKG2000WRNO,2019-10-23-16-03-53,5,78,0.6268282959375585,left,both,biased-switch,92,40,left,left,2.1
HKG2000WRNO,2019-10-23-16-03-53,5,79,0.5436849810327776,right,probe,biased-switch,-1,-10,left,left,0.362
HKG2000WRNO,2019-10-23-16-03-53,5,80,0.6489957453777268,right,both,biased-switch,97,-10,left,left,0.269
HKG2000WRNO,2019-10-23-16-03-53,6,1,0.6015851304884156,left,probe,ambiguous-switch,-1,0,left,left,0.512
HKG2000WRNO,2019-10-23-16-03-53,6,2,0.5742675300557213,left,both,ambiguous-switch,94,0,left,left,0.14
HKG2000WRNO,2019-10-23-16-03-53,6,3,0.6869296262247233,right,probe,biased-switch,-1,-20,left,left,0.302
HKG2000WRNO,2019-10-23-16-03-53,6,4,0.572918768299496,right,both,biased-switch,93,-20,left,left,0.294
HKG2000WRNO,2019-10-23-16-03-53,6,5,0.5936876906315737,right,probe,biased-switch,-1,-30,left,left,0.537
HKG2000WRNO,2019-10-23-16-03-53,6,6,0.5081784120551931,right,both,biased-switch,93,-30,left,left,0.294
HKG2000WRNO,2019-10-23-16-03-53,6,7,0.5999041919726043,right,probe,ambiguous-switch,-1,-20,left,left,0.323
HKG2000WRNO,2019-10-23-16-03-53,6,8,0.5884555852906749,right,both,ambiguous-switch,97,-20,left,left,0.138
HKG2000WRNO,2019-10-23-16-03-53,6,9,0.687603650399346,right,probe,biased-switch,-1,10,left,left,0.234
HKG2000WRNO,2019-10-23-16-03-53,6,10,0.5442180934324015,right,both,biased-switch,108,10,left,left,1.06
HKG2000WRNO,2019-10-23-16-03-53,6,11,0.6979991985018094,left,probe,ambiguous-switch,-1,10,left,left,0.247
HKG2000WRNO,2019-10-23-16-03-53,6,12,0.6931005343535999,left,both,ambiguous-switch,100,10,left,right,0.158
HKG2000WRNO,2019-10-23-16-03-53,6,13,0.5423980015340222,left,probe,ambiguous-switch,-1,40,left,left,0.475
HKG2000WRNO,2019-10-23-16-03-53,6,14,0.543158086660479,left,both,ambiguous-switch,95,40,left,left,0.112
HKG2000WRNO,2019-10-23-16-03-53,6,15,0.6659536948792651,right,probe,biased-switch,-1,0,left,left,0.63
HKG2000WRNO,2019-10-23-16-03-53,6,16,0.5788702658358731,right,both,biased-switch,107,0,left,left,1.243
HKG2000WRNO,2019-10-23-16-03-53,6,17,0.5586134675061953,right,probe,biased-switch,-1,30,left,left,0.313
HKG2000WRNO,2019-10-23-16-03-53,6,18,0.6057730080579676,right,both,biased-switch,105,30,left,left,0.233
HKG2000WRNO,2019-10-23-16-03-53,6,19,0.5788331539282291,left,probe,biased-switch,-1,-5,left,left,0.27
HKG2000WRNO,2019-10-23-16-03-53,6,20,0.6256738945255671,left,both,biased-switch,101,-5,left,left,0.132
HKG2000WRNO,2019-10-23-16-03-53,6,21,0.6014196489993608,left,probe,ambiguous-switch,-1,5,left,left,0.191
HKG2000WRNO,2019-10-23-16-03-53,6,22,0.5752353691631229,left,both,ambiguous-switch,107,5,left,left,0.26
HKG2000WRNO,2019-10-23-16-03-53,6,23,0.5710626919187215,right,probe,ambiguous-switch,-1,-10,left,left,0.272
HKG2000WRNO,2019-10-23-16-03-53,6,24,0.6419724830279574,right,both,ambiguous-switch,91,-10,left,left,0.389
HKG2000WRNO,2019-10-23-16-03-53,6,25,0.5233187851355979,left,probe,ambiguous-switch,-1,30,left,left,0.223
HKG2000WRNO,2019-10-23-16-03-53,6,26,0.626369903423452,left,both,ambiguous-switch,96,30,left,right,0.286
HKG2000WRNO,2019-10-23-16-03-53,6,27,0.5645069903617306,left,probe,biased-switch,-1,-10,left,left,0.221
HKG2000WRNO,2019-10-23-16-03-53,6,28,0.6621558871883292,left,both,biased-switch,90,-10,left,right,0.379
HKG2000WRNO,2019-10-23-16-03-53,6,29,0.5815458919194614,right,probe,ambiguous-switch,-1,-5,left,left,0.334
HKG2000WRNO,2019-10-23-16-03-53,6,30,0.5196081123353483,right,both,ambiguous-switch,103,-5,left,left,0.005
HKG2000WRNO,2019-10-23-16-03-53,6,31,0.5247474764200054,left,probe,ambiguous-switch,-1,-30,right,right,0.319
HKG2000WRNO,2019-10-23-16-03-53,6,32,0.5783105862758806,left,both,ambiguous-switch,109,-30,right,right,0.279
HKG2000WRNO,2019-10-23-16-03-53,6,33,0.5559400848997472,left,probe,biased-switch,-1,40,right,right,0.299
HKG2000WRNO,2019-10-23-16-03-53,6,34,0.5544084099080141,left,both,biased-switch,96,40,right,right,1.226
HKG2000WRNO,2019-10-23-16-03-53,6,35,0.6774887146239303,left,probe,ambiguous-switch,-1,20,right,right,0.386
HKG2000WRNO,2019-10-23-16-03-53,6,36,0.6957771810666841,left,both,ambiguous-switch,97,20,right,right,0.187
HKG2000WRNO,2019-10-23-16-03-53,6,37,0.6444725086682431,right,probe,biased-switch,-1,20,right,right,0.263
HKG2000WRNO,2019-10-23-16-03-53,6,38,0.5289407781200965,right,both,biased-switch,101,20,right,right,0.007
HKG2000WRNO,2019-10-23-16-03-53,6,39,0.5965995972829096,left,probe,biased-switch,-1,5,right,right,0.256
HKG2000WRNO,2019-10-23-16-03-53,6,40,0.6325759325985235,left,both,biased-switch,101,5,right,left,0.168
HKG2000WRNO,2019-10-23-16-03-53,6,41,0.5422440675682354,right,probe,ambiguous-switch,-1,0,left,left,0.294
HKG2000WRNO,2019-10-23-16-03-53,6,42,0.5792674343187763,right,both,ambiguous-switch,100,0,left,right,0.238
HKG2000WRNO,2019-10-23-16-03-53,6,43,0.6280510743970543,right,probe,biased-switch,-1,-20,left,left,0.187
HKG2000WRNO,2019-10-23-16-03-53,6,44,0.6995762773750764,right,both,biased-switch,103,-20,left,left,0.092
HKG2000WRNO,2019-10-23-16-03-53,6,45,0.619588795512537,right,probe,biased-switch,-1,-30,left,left,1.06
HKG2000WRNO,2019-10-23-16-03-53,6,46,0.6066914699021876,right,both,biased-switch,110,-30,left,left,0.261
HKG2000WRNO,2019-10-23-16-03-53,6,47,0.5064789251361556,left,probe,ambiguous-switch,-1,-20,left,left,0.495
HKG2000WRNO,2019-10-23-16-03-53,6,48,0.5578166791098127,left,both,ambiguous-switch,91,-20,left,right,0.279
HKG2000WRNO,2019-10-23-16-03-53,6,49,0.6387402484031035,right,probe,biased-switch,-1,10,left,left,0.028
HKG2000WRNO,2019-10-23-16-03-53,6,50,0.6018187071314296,right,both,biased-switch,91,10,left,right,0.467
HKG2000WRNO,2019-10-23-16-03-53,6,51,0.5296028115028664,left,probe,ambiguous-switch,-1,10,right,right,0.278
HKG2000WRNO,2019-10-23-16-03-53,6,52,0.5955987324496669,left,both,ambiguous-switch,93,10,right,left,0.359
HKG2000WRNO,2019-10-23-16-03-53,6,53,0.6207498350210874,left,probe,ambiguous-switch,-1,40,right,right,0.327
HKG2000WRNO,2019-10-23-16-03-53,6,54,0.6091931511862303,left,both,ambiguous-switch,108,40,right,right,0.035
HKG2000WRNO,2019-10-23-16-03-53,6,55,0.5335460238972727,left,probe,biased-switch,-1,0,right,right,0.18
HKG2000WRNO,2019-10-23-16-03-53,6,56,0.6803869317856821,left,both,biased-switch,107,0,right,left,0.127
HKG2000WRNO,2019-10-23-16-03-53,6,57,0.67891203133254,right,probe,biased-switch,-1,30,left,left,0.417
HKG2000WRNO,2019-10-23-16-03-53,6,58,0.5124897307591304,right,both,biased-switch,96,30,left,left,0.21
HKG2000WRNO,2019-10-23-16-03-53,6,59,0.6613259691418253,right,probe,biased-switch,-1,-5,left,left,0.993
HKG2000WRNO,2019-10-23-16-03-53,6,60,0.6815762194719959,right,both,biased-switch,93,-5,left,left,0.275
HKG2000WRNO,2019-10-23-16-03-53,6,61,0.6909738200000732,left,probe,ambiguous-switch,-1,5,right,right,0.384
HKG2000WRNO,2019-10-23-16-03-53,6,62,0.5029816844530776,left,both,ambiguous-switch,104,5,right,left,0.469
HKG2000WRNO,2019-10-23-16-03-53,6,63,0.545734475065415,right,probe,ambiguous-switch,-1,-10,left,left,0.3
HKG2000WRNO,2019-10-23-16-03-53,6,64,0.6703885601645154,right,both,ambiguous-switch,97,-10,left,left,0.273
HKG2000WRNO,2019-10-23-16-03-53,6,65,0.5494647647221388,right,probe,ambiguous-switch,-1,30,left,left,0.285
HKG2000WRNO,2019-10-23-16-03-53,6,66,0.6195005239206401,right,both,ambiguous-switch,98,30,left,left,0.186
HKG2000WRNO,2019-10-23-16-03-53,6,67,0.5226385650555503,left,probe,biased-switch,-1,-10,left,left,0.268
HKG2000WRNO,2019-10-23-16-03-53,6,68,0.6745912654374562,left,both,biased-switch,107,-10,left,right,0.182
HKG2000WRNO,2019-10-23-16-03-53,6,69,0.6698717605850407,right,probe,ambiguous-switch,-1,-5,left,left,0.604
HKG2000WRNO,2019-10-23-16-03-53,6,70,0.6666661973012176,right,both,ambiguous-switch,100,-5,left,left,0.28
HKG2000WRNO,2019-10-23-16-03-53,6,71,0.5920048399376614,left,probe,ambiguous-switch,-1,-30,right,right,0.356
HKG2000WRNO,2019-10-23-16-03-53,6,72,0.6623918066441232,left,both,ambiguous-switch,93,-30,right,right,0.305
HKG2000WRNO,2019-10-23-16-03-53,6,73,0.5530183617383929,right,probe,biased-switch,-1,40,left,left,0.286
HKG2000WRNO,2019-10-23-16-03-53,6,74,0.6339728261540698,right,both,biased-switch,102,40,left,right,0.242
HKG2000WRNO,2019-10-23-16-03-53,6,75,0.5938045858307122,left,probe,ambiguous-switch,-1,20,right,right,0.296
HKG2000WRNO,2019-10-23-16-03-53,6,76,0.5002893319851067,left,both,ambiguous-switch,92,20,right,right,0.352
HKG2000WRNO,2019-10-23-16-03-53,6,77,0.5512141673185886,left,probe,biased-switch,-1,20,right,right,0.265
HKG2000WRNO,2019-10-23-16-03-53,6,78,0.5654590890758617,left,both,biased-switch,99,20,right,right,0.272
HKG2000WRNO,2019-10-23-16-03-53,6,79,0.5144805940206404,right,probe,biased-switch,-1,5,right,right,0.274
HKG2000WRNO,2019-10-23-16-03-53,6,80,0.593143687647781,right,both,biased-switch,106,5,right,left,0.306
HKG2000WRNO,2019-10-23-16-03-53,7,1,0.6155536662226717,right,probe,ambiguous-switch,-1,20,right,right,0.15
HKG2000WRNO,2019-10-23-16-03-53,7,2,0.663990696753454,right,both,ambiguous-switch,91,20,right,left,0.28
HKG2000WRNO,2019-10-23-16-03-53,7,3,0.5133379014998884,left,probe,biased-switch,-1,20,right,right,0.239
HKG2000WRNO,2019-10-23-16-03-53,7,4,0.5990597138053353,left,both,biased-switch,106,20,right,left,0.164
HKG2000WRNO,2019-10-23-16-03-53,7,5,0.5256586206042169,left,probe,biased-switch,-1,40,right,right,0.253
HKG2000WRNO,2019-10-23-16-03-53,7,6,0.6845722655033742,left,both,biased-switch,109,40,right,left,0.071
HKG2000WRNO,2019-10-23-16-03-53,7,7,0.6912772463626415,left,probe,biased-switch,-1,-10,right,right,0.18
HKG2000WRNO,2019-10-23-16-03-53,7,8,0.6730413548097341,left,both,biased-switch,105,-10,right,right,0.323
HKG2000WRNO,2019-10-23-16-03-53,7,9,0.5193873178660033,left,probe,biased-switch,-1,30,right,right,0.087
HKG2000WRNO,2019-10-23-16-03-53,7,10,0.5101563658127697,left,both,biased-switch,92,30,right,right,1.404
HKG2000WRNO,2019-10-23-16-03-53,7,11,0.669713585118053,left,probe,ambiguous-switch,-1,-5,right,right,0.052
HKG2000WRNO,2019-10-23-16-03-53,7,12,0.5390635148144174,left,both,ambiguous-switch,104,-5,right,left,0.167
HKG2000WRNO,2019-10-23-16-03-53,7,13,0.5051297365392817,right,probe,ambiguous-switch,-1,40,left,left,0.22
HKG2000WRNO,2019-10-23-16-03-53,7,14,0.5882323766779121,right,both,ambiguous-switch,108,40,left,left,0.189
HKG2000WRNO,2019-10-23-16-03-53,7,15,0.6423895667211706,right,probe,ambiguous-switch,-1,30,left,left,0.066
HKG2000WRNO,2019-10-23-16-03-53,7,16,0.590129956665509,right,both,ambiguous-switch,102,30,left,left,0.07
HKG2000WRNO,2019-10-23-16-03-53,7,17,0.529121294161711,right,probe,ambiguous-switch,-1,0,left,left,0.897
HKG2000WRNO,2019-10-23-16-03-53,7,18,0.6154027909631229,right,both,ambiguous-switch,99,0,left,left,0.273
HKG2000WRNO,2019-10-23-16-03-53,7,19,0.6357838307665852,left,probe,biased-switch,-1,5,left,left,1.478
HKG2000WRNO,2019-10-23-16-03-53,7,20,0.5066481484403422,left,both,biased-switch,107,5,left,right,0.622
HKG2000WRNO,2019-10-23-16-03-53,7,21,0.5374081850381285,right,probe,biased-switch,-1,0,left,left,0.485
HKG2000WRNO,2019-10-23-16-03-53,7,22,0.587914205147163,right,both,biased-switch,103,0,left,right,0.293
HKG2000WRNO,2019-10-23-16-03-53,7,23,0.5204285977048506,right,probe,biased-switch,-1,10,left,left,0.23
HKG2000WRNO,2019-10-23-16-03-53,7,24,0.554952269521585,right,both,biased-switch,101,10,left,right,0.339
HKG2000WRNO,2019-10-23-16-03-53,7,25,0.5578895738940307,left,probe,biased-switch,-1,-5,right,right,0.007
HKG2000WRNO,2019-10-23-16-03-53,7,26,0.5911586164134018,left,both,biased-switch,95,-5,right,right,0.039
HKG2000WRNO,2019-10-23-16-03-53,7,27,0.6416155887299001,left,probe,ambiguous-switch,-1,10,right,right,0.317
HKG2000WRNO,2019-10-23-16-03-53,7,28,0.5011180426154499,left,both,ambiguous-switch,100,10,right,left,0.069
HKG2000WRNO,2019-10-23-16-03-53,7,29,0.6356321064739088,left,probe,ambiguous-switch,-1,-10,right,right,0.023
HKG2000WRNO,2019-10-23-16-03-53,7,30,0.5503452443036716,left,both,ambiguous-switch,95,-10,right,left,0.299
HKG2000WRNO,2019-10-23-16-03-53,7,31,0.5620445709096683,right,probe,ambiguous-switch,-1,-30,right,right,0.257
HKG2000WRNO,2019-10-23-16-03-53,7,32,0.6761406540064469,right,both,ambiguous-switch,101,-30,right,left,0.267
HKG2000WRNO,2019-10-23-16-03-53,7,33,0.6273733303300641,left,probe,ambiguous-switch,-1,-20,right,right,0.207
HKG2000WRNO,2019-10-23-16-03-53,7,34,0.5545949507996,left,both,ambiguous-switch,101,-20,right,right,0.297
HKG2000WRNO,2019-10-23-16-03-53,7,35,0.6257714090379833,right,probe,ambiguous-switch,-1,5,right,right,0.274
HKG2000WRNO,2019-10-23-16-03-53,7,36,0.5158441876112406,right,both,ambiguous-switch,104,5,right,left,0.381
HKG2000WRNO,2019-10-23-16-03-53,7,37,0.5525201373844381,right,probe,biased-switch,-1,-20,left,left,0.342
HKG2000WRNO,2019-10-23-16-03-53,7,38,0.6902157876587511,right,both,biased-switch,104,-20,left,left,0.206
HKG2000WRNO,2019-10-23-16-03-53,7,39,0.6360697082287792,right,probe,biased-switch,-1,-30,left,left,0.128
HKG2000WRNO,2019-10-23-16-03-53,7,40,0.6892530752584223,right,both,biased-switch,106,-30,left,left,0.296
HKG2000WRNO,2019-10-23-16-03-53,7,41,0.5793254789516898,left,probe,ambiguous-switch,-1,20,right,right,0.24
HKG2000WRNO,2019-10-23-16-03-53,7,42,0.583134365015015,left,both,ambiguous-switch,102,20,right,left,0.365
HKG2000WRNO,2019-10-23-16-03-53,7,43,0.5216039436571616,right,probe,biased-switch,-1,20,left,left,0.081
HKG2000WRNO,2019-10-23-16-03-53,7,44,0.5214994572011518,right,both,biased-switch,96,20,left,right,0.6
HKG2000WRNO,2019-10-23-16-03-53,7,45,0.6808444073336737,right,probe,biased-switch,-1,40,right,right,0.491
HKG2000WRNO,2019-10-23-16-03-53,7,46,0.6845060350030625,right,both,biased-switch,103,40,right,right,0.071
HKG2000WRNO,2019-10-23-16-03-53,7,47,0.6872156585057869,left,probe,biased-switch,-1,-10,right,right,0.278
HKG2000WRNO,2019-10-23-16-03-53,7,48,0.6364463685821042,left,both,biased-switch,103,-10,right,left,0.283
HKG2000WRNO,2019-10-23-16-03-53,7,49,0.5108973153469599,left,probe,biased-switch,-1,30,right,right,0.084
HKG2000WRNO,2019-10-23-16-03-53,7,50,0.5173982267141944,left,both,biased-switch,97,30,right,left,0.181
HKG2000WRNO,2019-10-23-16-03-53,7,51,0.595445398531458,left,probe,ambiguous-switch,-1,-5,left,left,1.169
HKG2000WRNO,2019-10-23-16-03-53,7,52,0.6145220872596884,left,both,ambiguous-switch,109,-5,left,right,0.426
HKG2000WRNO,2019-10-23-16-03-53,7,53,0.6335365424530903,left,probe,ambiguous-switch,-1,40,right,right,0.246
HKG2000WRNO,2019-10-23-16-03-53,7,54,0.5496749724243318,left,both,ambiguous-switch,108,40,right,right,0.195
HKG2000WRNO,2019-10-23-16-03-53,7,55,0.6430246178149902,right,probe,ambiguous-switch,-1,30,right,right,0.215
HKG2000WRNO,2019-10-23-16-03-53,7,56,0.6090193520603737,right,both,ambiguous-switch,98,30,right,right,0.745
HKG2000WRNO,2019-10-23-16-03-53,7,57,0.6442448284580236,right,probe,ambiguous-switch,-1,0,right,right,0.487
HKG2000WRNO,2019-10-23-16-03-53,7,58,0.501906762651721,right,both,ambiguous-switch,95,0,right,right,0.301
HKG2000WRNO,2019-10-23-16-03-53,7,59,0.6705589517212873,right,probe,biased-switch,-1,5,right,right,0.287
HKG2000WRNO,2019-10-23-16-03-53,7,60,0.5394712172676908,right,both,biased-switch,102,5,right,left,0.265
HKG2000WRNO,2019-10-23-16-03-53,7,61,0.6106219848288191,right,probe,biased-switch,-1,0,right,right,0.407
HKG2000WRNO,2019-10-23-16-03-53,7,62,0.6638871389871981,right,both,biased-switch,104,0,right,left,0.348
HKG2000WRNO,2019-10-23-16-03-53,7,63,0.6371171720666842,right,probe,biased-switch,-1,10,right,right,0.289
HKG2000WRNO,2019-10-23-16-03-53,7,64,0.6824356823027282,right,both,biased-switch,92,10,right,left,0.311
HKG2000WRNO,2019-10-23-16-03-53,7,65,0.5708129336631237,right,probe,biased-switch,-1,-5,right,right,0.265
HKG2000WRNO,2019-10-23-16-03-53,7,66,0.5553046846478987,right,both,biased-switch,101,-5,right,right,0.331
HKG2000WRNO,2019-10-23-16-03-53,7,67,0.6478357233239105,right,probe,ambiguous-switch,-1,10,right,right,0.247
HKG2000WRNO,2019-10-23-16-03-53,7,68,0.6762496908784453,right,both,ambiguous-switch,104,10,right,right,0.053
HKG2000WRNO,2019-10-23-16-03-53,7,69,0.693069511236696,left,probe,ambiguous-switch,-1,-10,right,right,0.267
HKG2000WRNO,2019-10-23-16-03-53,7,70,0.502796960574526,left,both,ambiguous-switch,91,-10,right,right,0.276
HKG2000WRNO,2019-10-23-16-03-53,7,71,0.5566123858319454,left,probe,ambiguous-switch,-1,-30,right,right,0.148
HKG2000WRNO,2019-10-23-16-03-53,7,72,0.503369155211734,left,both,ambiguous-switch,102,-30,right,right,0.848
HKG2000WRNO,2019-10-23-16-03-53,7,73,0.6835084311018341,right,probe,ambiguous-switch,-1,-20,right,right,0.294
HKG2000WRNO,2019-10-23-16-03-53,7,74,0.5421502481160256,right,both,ambiguous-switch,108,-20,right,right,0.182
HKG2000WRNO,2019-10-23-16-03-53,7,75,0.6386273423927629,right,probe,ambiguous-switch,-1,5,right,right,0.177
HKG2000WRNO,2019-10-23-16-03-53,7,76,0.639732041922232,right,both,ambiguous-switch,93,5,right,right,0.297
HKG2000WRNO,2019-10-23-16-03-53,7,77,0.5773660464099755,right,probe,biased-switch,-1,-20,right,right,0.66
HKG2000WRNO,2019-10-23-16-03-53,7,78,0.6923231205373359,right,both,biased-switch,102,-20,right,right,0.412
HKG2000WRNO,2019-10-23-16-03-53,7,79,0.6343641238258101,right,probe,biased-switch,-1,-30,right,right,0.095
HKG2000WRNO,2019-10-23-16-03-53,7,80,0.6673543043274771,right,both,biased-switch,104,-30,right,right,1.16
HKG2000WRNO,2019-10-23-16-03-53,8,1,0.5782684039826127,left,probe,biased-switch,-1,-10,right,right,0.341
HKG2000WRNO,2019-10-23-16-03-53,8,2,0.543300812644697,left,both,biased-switch,100,-10,right,right,0.263
HKG2000WRNO,2019-10-23-16-03-53,8,3,0.5331984760361341,right,probe,ambiguous-switch,-1,10,right,right,0.357
HKG2000WRNO,2019-10-23-16-03-53,8,4,0.6092515292287703,right,both,ambiguous-switch,90,10,right,right,0.666
HKG2000WRNO,2019-10-23-16-03-53,8,5,0.539945576873006,right,probe,ambiguous-switch,-1,0,right,right,0.313
HKG2000WRNO,2019-10-23-16-03-53,8,6,0.5854330490048485,right,both,ambiguous-switch,95,0,right,right,0.305
HKG2000WRNO,2019-10-23-16-03-53,8,7,0.6053264705612049,left,probe,ambiguous-switch,-1,20,right,right,0.491
HKG2000WRNO,2019-10-23-16-03-53,8,8,0.5051560829967149,left,both,ambiguous-switch,94,20,right,right,0.449
HKG2000WRNO,2019-10-23-16-03-53,8,9,0.6914317904625106,right,probe,ambiguous-switch,-1,5,right,right,0.3
HKG2000WRNO,2019-10-23-16-03-53,8,10,0.5941942067445855,right,both,ambiguous-switch,97,5,right,right,0.273
HKG2000WRNO,2019-10-23-16-03-53,8,11,0.5442130058068799,right,probe,biased-switch,-1,-5,right,right,0.322
HKG2000WRNO,2019-10-23-16-03-53,8,12,0.689238605930415,right,both,biased-switch,109,-5,right,right,2.09
HKG2000WRNO,2019-10-23-16-03-53,8,13,0.6350576771222999,right,probe,biased-switch,-1,0,right,right,0.346
HKG2000WRNO,2019-10-23-16-03-53,8,14,0.6262235636445431,right,both,biased-switch,102,0,right,right,0.304
HKG2000WRNO,2019-10-23-16-03-53,8,15,0.6832514164191932,left,probe,ambiguous-switch,-1,-30,right,right,0.28
HKG2000WRNO,2019-10-23-16-03-53,8,16,0.5454632255524097,left,both,ambiguous-switch,100,-30,right,right,0.429
HKG2000WRNO,2019-10-23-16-03-53,8,17,0.6215619345597998,left,probe,biased-switch,-1,40,right,right,0.261
HKG2000WRNO,2019-10-23-16-03-53,8,18,0.5335225208044675,left,both,biased-switch,91,40,right,right,0.409
HKG2000WRNO,2019-10-23-16-03-53,8,19,0.698177163653773,left,probe,ambiguous-switch,-1,-5,right,right,0.282
HKG2000WRNO,2019-10-23-16-03-53,8,20,0.5034125174038575,left,both,ambiguous-switch,105,-5,right,right,0.82
HKG2000WRNO,2019-10-23-16-03-53,8,21,0.5053302271692413,left,probe,biased-switch,-1,-20,right,right,0.431
HKG2000WRNO,2019-10-23-16-03-53,8,22,0.5068161558814592,left,both,biased-switch,109,-20,right,right,0.419
HKG2000WRNO,2019-10-23-16-03-53,8,23,0.6148447306462546,right,probe,ambiguous-switch,-1,30,right,right,0.288
HKG2000WRNO,2019-10-23-16-03-53,8,24,0.5506297147457918,right,both,ambiguous-switch,98,30,right,right,0.337
HKG2000WRNO,2019-10-23-16-03-53,8,25,0.5810277096177934,right,probe,biased-switch,-1,-30,right,right,0.19
HKG2000WRNO,2019-10-23-16-03-53,8,26,0.662877467841747,right,both,biased-switch,99,-30,right,right,0.248
HKG2000WRNO,2019-10-23-16-03-53,8,27,0.5242017441042574,right,probe,ambiguous-switch,-1,-10,right,right,0.296
HKG2000WRNO,2019-10-23-16-03-53,8,28,0.5864093943761596,right,both,ambiguous-switch,97,-10,right,right,0.254
HKG2000WRNO,2019-10-23-16-03-53,8,29,0.6828169706818111,right,probe,biased-switch,-1,10,right,right,0.649
HKG2000WRNO,2019-10-23-16-03-53,8,30,0.6805190804983033,right,both,biased-switch,108,10,right,right,0.053
HKG2000WRNO,2019-10-23-16-03-53,8,31,0.5023385883673106,left,probe,ambiguous-switch,-1,-20,right,right,0.182
HKG2000WRNO,2019-10-23-16-03-53,8,32,0.6965402143965848,left,both,ambiguous-switch,101,-20,right,right,0.625
HKG2000WRNO,2019-10-23-16-03-53,8,33,0.511124531885668,left,probe,biased-switch,-1,30,right,right,0.374
HKG2000WRNO,2019-10-23-16-03-53,8,34,0.5721281562481944,left,both,biased-switch,110,30,right,right,0.281
HKG2000WRNO,2019-10-23-16-03-53,8,35,0.651597080024402,left,probe,biased-switch,-1,20,right,right,0.278
HKG2000WRNO,2019-10-23-16-03-53,8,36,0.5539174074703156,left,both,biased-switch,99,20,right,right,0.407
HKG2000WRNO,2019-10-23-16-03-53,8,37,0.6175851332524949,right,probe,biased-switch,-1,5,right,right,0.3
HKG2000WRNO,2019-10-23-16-03-53,8,38,0.5135948369309907,right,both,biased-switch,91,5,right,left,0.254
HKG2000WRNO,2019-10-23-16-03-53,8,39,0.5674440127363629,left,probe,ambiguous-switch,-1,40,right,right,0.181
HKG2000WRNO,2019-10-23-16-03-53,8,40,0.5508837935055843,left,both,ambiguous-switch,91,40,right,right,0.045
HKG2000WRNO,2019-10-23-16-03-53,8,41,0.6729952950963711,left,probe,biased-switch,-1,-10,right,right,0.279
HKG2000WRNO,2019-10-23-16-03-53,8,42,0.5413555556157501,left,both,biased-switch,110,-10,right,right,0.16
HKG2000WRNO,2019-10-23-16-03-53,8,43,0.5982100493246489,left,probe,ambiguous-switch,-1,10,right,right,0.264
HKG2000WRNO,2019-10-23-16-03-53,8,44,0.5739271036875169,left,both,ambiguous-switch,108,10,right,left,0.249
HKG2000WRNO,2019-10-23-16-03-53,8,45,0.6594873813957531,left,probe,ambiguous-switch,-1,0,right,right,0.219
HKG2000WRNO,2019-10-23-16-03-53,8,46,0.5039908078893959,left,both,ambiguous-switch,100,0,right,right,0.112
HKG2000WRNO,2019-10-23-16-03-53,8,47,0.5118641303869738,left,probe,ambiguous-switch,-1,20,right,right,1.16
HKG2000WRNO,2019-10-23-16-03-53,8,48,0.691774885991782,left,both,ambiguous-switch,98,20,right,left,0.284
HKG2000WRNO,2019-10-23-16-03-53,8,49,0.5077162087960265,right,probe,ambiguous-switch,-1,5,right,right,0.026
HKG2000WRNO,2019-10-23-16-03-53,8,50,0.6790940038550555,right,both,ambiguous-switch,107,5,right,right,0.294
HKG2000WRNO,2019-10-23-16-03-53,8,51,0.674741920377901,left,probe,biased-switch,-1,-5,right,right,0.325
HKG2000WRNO,2019-10-23-16-03-53,8,52,0.6706525421771742,left,both,biased-switch,108,-5,right,right,1.054
HKG2000WRNO,2019-10-23-16-03-53,8,53,0.6318977284012829,right,probe,biased-switch,-1,0,right,right,0.346
HKG2000WRNO,2019-10-23-16-03-53,8,54,0.5067116981513061,right,both,biased-switch,92,0,right,left,0.225
HKG2000WRNO,2019-10-23-16-03-53,8,55,0.559563352163506,right,probe,ambiguous-switch,-1,-30,left,left,0.338
HKG2000WRNO,2019-10-23-16-03-53,8,56,0.6452708050002299,right,both,ambiguous-switch,92,-30,left,left,0.329
HKG2000WRNO,2019-10-23-16-03-53,8,57,0.6623943703910228,right,probe,biased-switch,-1,40,left,left,0.147
HKG2000WRNO,2019-10-23-16-03-53,8,58,0.6975199212366142,right,both,biased-switch,109,40,left,left,1.013
HKG2000WRNO,2019-10-23-16-03-53,8,59,0.6100607679290462,right,probe,ambiguous-switch,-1,-5,left,left,0.35
HKG2000WRNO,2019-10-23-16-03-53,8,60,0.6681344867623497,right,both,ambiguous-switch,109,-5,left,left,0.402
HKG2000WRNO,2019-10-23-16-03-53,8,61,0.6531914368169859,left,probe,biased-switch,-1,-20,left,left,0.368
HKG2000WRNO,2019-10-23-16-03-53,8,62,0.5687738503757678,left,both,biased-switch,92,-20,left,left,0.337
HKG2000WRNO,2019-10-23-16-03-53,8,63,0.6922337871778736,right,probe,ambiguous-switch,-1,30,left,left,0.1
HKG2000WRNO,2019-10-23-16-03-53,8,64,0.5297332354030232,right,both,ambiguous-switch,91,30,left,left,0.225
HKG2000WRNO,2019-10-23-16-03-53,8,65,0.5165578790505042,right,probe,biased-switch,-1,-30,left,left,0.249
HKG2000WRNO,2019-10-23-16-03-53,8,66,0.5725755296100465,right,both,biased-switch,109,-30,left,left,0.159
HKG2000WRNO,2019-10-23-16-03-53,8,67,0.6539411265160545,left,probe,ambiguous-switch,-1,-10,left,left,0.4
HKG2000WRNO,2019-10-23-16-03-53,8,68,0.5255944288217641,left,both,ambiguous-switch,103,-10,left,left,0.499
HKG2000WRNO,2019-10-23-16-03-53,8,69,0.515731833149152,right,probe,biased-switch,-1,10,left,left,0.264
HKG2000WRNO,2019-10-23-16-03-53,8,70,0.6357743640675334,right,both,biased-switch,106,10,left,left,0.081
HKG2000WRNO,2019-10-23-16-03-53,8,71,0.6331769507367808,left,probe,ambiguous-switch,-1,-20,left,left,0.434
HKG2000WRNO,2019-10-23-16-03-53,8,72,0.699450571557745,left,both,ambiguous-switch,90,-20,left,left,0.228
HKG2000WRNO,2019-10-23-16-03-53,8,73,0.6765018383148281,left,probe,biased-switch,-1,30,left,left,0.088
HKG2000WRNO,2019-10-23-16-03-53,8,74,0.6852079784451638,left,both,biased-switch,96,30,left,left,0.013
HKG2000WRNO,2019-10-23-16-03-53,8,75,0.6759019966882369,left,probe,biased-switch,-1,20,left,left,0.731
HKG2000WRNO,2019-10-23-16-03-53,8,76,0.5631869191278422,left,both,biased-switch,92,20,left,left,0.3
HKG2000WRNO,2019-10-23-16-03-53,8,77,0.639729163115962,right,probe,biased-switch,-1,5,left,left,0.351
HKG2000WRNO,2019-10-23-16-03-53,8,78,0.5720019945172321,right,both,biased-switch,110,5,left,right,0.262
HKG2000WRNO,2019-10-23-16-03-53,8,79,0.5729666098922953,right,probe,ambiguous-switch,-1,40,left,left,0.247
HKG2000WRNO,2019-10-23-16-03-53,8,80,0.559618667273028,right,both,ambiguous-switch,107,40,left,left,0.091
HKG2000WRNO,2019-10-23-16-03-53,9,1,0.501343351246229,left,probe,biased-switch,-1,30,left,left,0.387
HKG2000WRNO,2019-10-23-16-03-53,9,2,0.6762486854840268,left,both,biased-switch,106,30,left,left,0.461
HKG2000WRNO,2019-10-23-16-03-53,9,3,0.6062396355371465,right,probe,biased-switch,-1,-20,left,left,0.278
HKG2000WRNO,2019-10-23-16-03-53,9,4,0.5245114167652575,right,both,biased-switch,110,-20,left,left,0.409
HKG2000WRNO,2019-10-23-16-03-53,9,5,0.5595608776695966,right,probe,biased-switch,-1,5,left,left,0.269
HKG2000WRNO,2019-10-23-16-03-53,9,6,0.5784933273601297,right,both,biased-switch,107,5,left,right,0.386
HKG2000WRNO,2019-10-23-16-03-53,9,7,0.6156700372769905,right,probe,biased-switch,-1,-10,left,left,0.302
HKG2000WRNO,2019-10-23-16-03-53,9,8,0.6170106731021671,right,both,biased-switch,105,-10,left,left,0.143
HKG2000WRNO,2019-10-23-16-03-53,9,9,0.5942777162179944,right,probe,ambiguous-switch,-1,-30,left,left,0.297
HKG2000WRNO,2019-10-23-16-03-53,9,10,0.570610682721048,right,both,ambiguous-switch,99,-30,left,left,0.146
HKG2000WRNO,2019-10-23-16-03-53,9,11,0.5770844215569113,left,probe,biased-switch,-1,-30,left,left,0.317
HKG2000WRNO,2019-10-23-16-03-53,9,12,0.5776298644160776,left,both,biased-switch,104,-30,left,right,0.33
HKG2000WRNO,2019-10-23-16-03-53,9,13,0.580522895683252,left,probe,ambiguous-switch,-1,30,left,left,0.066
HKG2000WRNO,2019-10-23-16-03-53,9,14,0.6072113318869028,left,both,ambiguous-switch,97,30,left,right,0.137
HKG2000WRNO,2019-10-23-16-03-53,9,15,0.6224506416135596,right,probe,biased-switch,-1,0,left,left,0.476
HKG2000WRNO,2019-10-23-16-03-53,9,16,0.5275742601264267,right,both,biased-switch,95,0,left,left,0.276
HKG2000WRNO,2019-10-23-16-03-53,9,17,0.662463978758356,right,probe,ambiguous-switch,-1,20,left,left,0.245
HKG2000WRNO,2019-10-23-16-03-53,9,18,0.5018978889057352,right,both,ambiguous-switch,108,20,left,left,0.983
HKG2000WRNO,2019-10-23-16-03-53,9,19,0.5782557434839055,right,probe,ambiguous-switch,-1,0,left,left,0.449
HKG2000WRNO,2019-10-23-16-03-53,9,20,0.6395128943227465,right,both,ambiguous-switch,104,0,left,left,0.377
HKG2000WRNO,2019-10-23-16-03-53,9,21,0.6602893731310117,right,probe,ambiguous-switch,-1,-10,left,left,0.381
HKG2000WRNO,2019-10-23-16-03-53,9,22,0.63720592174075,right,both,ambiguous-switch,106,-10,left,left,0.499
HKG2000WRNO,2019-10-23-16-03-53,9,23,0.6260936049440211,right,probe,ambiguous-switch,-1,-5,left,left,0.512
HKG2000WRNO,2019-10-23-16-03-53,9,24,0.5195399484227673,right,both,ambiguous-switch,91,-5,left,left,0.4
HKG2000WRNO,2019-10-23-16-03-53,9,25,0.5204773095799325,left,probe,biased-switch,-1,10,right,right,0.247
HKG2000WRNO,2019-10-23-16-03-53,9,26,0.6956812725161424,left,both,biased-switch,109,10,right,left,0.33
HKG2000WRNO,2019-10-23-16-03-53,9,27,0.6229575460953226,right,probe,ambiguous-switch,-1,5,left,left,0.324
HKG2000WRNO,2019-10-23-16-03-53,9,28,0.5995017569017408,right,both,ambiguous-switch,95,5,left,left,0.218
HKG2000WRNO,2019-10-23-16-03-53,9,29,0.619080164719489,right,probe,ambiguous-switch,-1,-20,left,left,0.325
HKG2000WRNO,2019-10-23-16-03-53,9,30,0.5613024080839689,right,both,ambiguous-switch,92,-20,left,left,0.206
HKG2000WRNO,2019-10-23-16-03-53,9,31,0.588623737968901,left,probe,biased-switch,-1,20,left,left,0.422
HKG2000WRNO,2019-10-23-16-03-53,9,32,0.6046390387144821,left,both,biased-switch,110,20,left,right,1.429
HKG2000WRNO,2019-10-23-16-03-53,9,33,0.5690916995809981,right,probe,biased-switch,-1,-5,left,left,0.568
HKG2000WRNO,2019-10-23-16-03-53,9,34,0.5445949129596512,right,both,biased-switch,95,-5,left,left,0.288
HKG2000WRNO,2019-10-23-16-03-53,9,35,0.6020616104811342,left,probe,ambiguous-switch,-1,40,left,left,0.349
HKG2000WRNO,2019-10-23-16-03-53,9,36,0.612374045088478,left,both,ambiguous-switch,99,40,left,left,0.309
HKG2000WRNO,2019-10-23-16-03-53,9,37,0.6385320086855881,left,probe,ambiguous-switch,-1,10,left,left,0.224
HKG2000WRNO,2019-10-23-16-03-53,9,38,0.5758684095155168,left,both,ambiguous-switch,98,10,left,right,0.507
HKG2000WRNO,2019-10-23-16-03-53,9,39,0.5804788570539477,left,probe,biased-switch,-1,40,right,right,0.317
HKG2000WRNO,2019-10-23-16-03-53,9,40,0.6102546058448001,left,both,biased-switch,96,40,right,left,0.397
HKG2000WRNO,2019-10-23-16-03-53,9,41,0.6572648706543277,right,probe,biased-switch,-1,30,left,left,0.594
HKG2000WRNO,2019-10-23-16-03-53,9,42,0.5040434874239912,right,both,biased-switch,107,30,left,left,0.344
HKG2000WRNO,2019-10-23-16-03-53,9,43,0.5714932306407796,right,probe,biased-switch,-1,-20,left,left,0.392
HKG2000WRNO,2019-10-23-16-03-53,9,44,0.6824519485829453,right,both,biased-switch,106,-20,left,left,0.194
HKG2000WRNO,2019-10-23-16-03-53,9,45,0.6569930801094941,right,probe,biased-switch,-1,5,left,left,0.29
HKG2000WRNO,2019-10-23-16-03-53,9,46,0.6454793496060125,right,both,biased-switch,94,5,left,left,0.255
HKG2000WRNO,2019-10-23-16-03-53,9,47,0.5494319172150988,left,probe,biased-switch,-1,-10,left,left,0.345
HKG2000WRNO,2019-10-23-16-03-53,9,48,0.5577788861461033,left,both,biased-switch,95,-10,left,left,0.282
HKG2000WRNO,2019-10-23-16-03-53,9,49,0.5866343594253108,left,probe,ambiguous-switch,-1,-30,left,left,0.0
HKG2000WRNO,2019-10-23-16-03-53,9,50,0.643708891449308,left,both,ambiguous-switch,108,-30,left,right,0.335
HKG2000WRNO,2019-10-23-16-03-53,9,51,0.6948408330104319,right,probe,biased-switch,-1,-30,left,left,0.279
HKG2000WRNO,2019-10-23-16-03-53,9,52,0.6888299203374457,right,both,biased-switch,91,-30,left,left,0.319
HKG2000WRNO,2019-10-23-16-03-53,9,53,0.6930777490140505,right,probe,ambiguous-switch,-1,30,left,left,0.306
HKG2000WRNO,2019-10-23-16-03-53,9,54,0.6732701971213965,right,both,ambiguous-switch,99,30,left,left,0.017
HKG2000WRNO,2019-10-23-16-03-53,9,55,0.6044329408990549,left,probe,biased-switch,-1,0,left,left,0.217
HKG2000WRNO,2019-10-23-16-03-53,9,56,0.5635381592614448,left,both,biased-switch,108,0,left,right,0.343
HKG2000WRNO,2019-10-23-16-03-53,9,57,0.5869756654393178,right,probe,ambiguous-switch,-1,20,left,left,0.342
HKG2000WRNO,2019-10-23-16-03-53,9,58,0.6757628432627343,right,both,ambiguous-switch,110,20,left,right,0.27
HKG2000WRNO,2019-10-23-16-03-53,9,59,0.5444499716944272,right,probe,ambiguous-switch,-1,0,left,left,0.237
HKG2000WRNO,2019-10-23-16-03-53,9,60,0.5351971645677418,right,both,ambiguous-switch,95,0,left,left,0.274
HKG2000WRNO,2019-10-23-16-03-53,9,61,0.5226822612055148,right,probe,ambiguous-switch,-1,-10,left,left,0.34
HKG2000WRNO,2019-10-23-16-03-53,9,62,0.5867912638646055,right,both,ambiguous-switch,91,-10,left,left,0.084
HKG2000WRNO,2019-10-23-16-03-53,9,63,0.5534299461894561,right,probe,ambiguous-switch,-1,-5,left,left,0.294
HKG2000WRNO,2019-10-23-16-03-53,9,64,0.5075375527144358,right,both,ambiguous-switch,103,-5,left,left,1.299
HKG2000WRNO,2019-10-23-16-03-53,9,65,0.5359074962653453,left,probe,biased-switch,-1,10,left,left,1.068
HKG2000WRNO,2019-10-23-16-03-53,9,66,0.6141479106001113,left,both,biased-switch,101,10,left,left,0.846
HKG2000WRNO,2019-10-23-16-03-53,9,67,0.6791182009340396,left,probe,ambiguous-switch,-1,5,left,left,0.368
HKG2000WRNO,2019-10-23-16-03-53,9,68,0.5181337705444363,left,both,ambiguous-switch,101,5,left,left,0.4
HKG2000WRNO,2019-10-23-16-03-53,9,69,0.6280068804793519,right,probe,ambiguous-switch,-1,-20,left,left,0.326
HKG2000WRNO,2019-10-23-16-03-53,9,70,0.6164899605350038,right,both,ambiguous-switch,97,-20,left,left,0.167
HKG2000WRNO,2019-10-23-16-03-53,9,71,0.6513376768448406,left,probe,biased-switch,-1,20,right,right,0.253
HKG2000WRNO,2019-10-23-16-03-53,9,72,0.5610176474519144,left,both,biased-switch,92,20,right,left,0.296
HKG2000WRNO,2019-10-23-16-03-53,9,73,0.615992002416931,left,probe,biased-switch,-1,-5,left,left,0.419
HKG2000WRNO,2019-10-23-16-03-53,9,74,0.6085818272520702,left,both,biased-switch,98,-5,left,right,0.274
HKG2000WRNO,2019-10-23-16-03-53,9,75,0.6405680173261821,right,probe,ambiguous-switch,-1,40,left,left,0.275
HKG2000WRNO,2019-10-23-16-03-53,9,76,0.6423033369546609,right,both,ambiguous-switch,95,40,left,left,0.296
HKG2000WRNO,2019-10-23-16-03-53,9,77,0.689583272311463,right,probe,ambiguous-switch,-1,10,left,left,0.359
HKG2000WRNO,2019-10-23-16-03-53,9,78,0.5059711638581335,right,both,ambiguous-switch,95,10,left,right,0.226
HKG2000WRNO,2019-10-23-16-03-53,9,79,0.5642433157606449,right,probe,biased-switch,-1,40,left,left,0.203
HKG2000WRNO,2019-10-23-16-03-53,9,80,0.5314516954414021,right,both,biased-switch,92,40,left,left,0.195
HKG2000WRNO,2019-10-23-16-03-53,10,1,0.6700798996762168,right,probe,ambiguous-switch,-1,-5,left,left,0.296
HKG2000WRNO,2019-10-23-16-03-53,10,2,0.5584706848175127,right,both,ambiguous-switch,97,-5,left,left,0.077
HKG2000WRNO,2019-10-23-16-03-53,10,3,0.6036381485673374,left,probe,biased-switch,-1,40,left,left,0.357
HKG2000WRNO,2019-10-23-16-03-53,10,4,0.6185664126400815,left,both,biased-switch,92,40,left,right,0.199
HKG2000WRNO,2019-10-23-16-03-53,10,5,0.5779079732077345,right,probe,ambiguous-switch,-1,-20,left,left,0.069
HKG2000WRNO,2019-10-23-16-03-53,10,6,0.6883619103295657,right,both,ambiguous-switch,108,-20,left,left,0.004
HKG2000WRNO,2019-10-23-16-03-53,10,7,0.620367709329305,left,probe,biased-switch,-1,0,right,right,0.248
HKG2000WRNO,2019-10-23-16-03-53,10,8,0.6977271322573937,left,both,biased-switch,100,0,right,left,0.032
HKG2000WRNO,2019-10-23-16-03-53,10,9,0.5097227873775848,left,probe,ambiguous-switch,-1,20,left,left,1.376
HKG2000WRNO,2019-10-23-16-03-53,10,10,0.6281914521810552,left,both,ambiguous-switch,100,20,left,right,0.25
HKG2000WRNO,2019-10-23-16-03-53,10,11,0.6487384962329336,right,probe,biased-switch,-1,-5,left,left,0.316
HKG2000WRNO,2019-10-23-16-03-53,10,12,0.5001626582624001,right,both,biased-switch,98,-5,left,left,0.428
HKG2000WRNO,2019-10-23-16-03-53,10,13,0.671001890189811,left,probe,biased-switch,-1,-10,right,right,0.228
HKG2000WRNO,2019-10-23-16-03-53,10,14,0.6719228568889553,left,both,biased-switch,97,-10,right,right,0.111
HKG2000WRNO,2019-10-23-16-03-53,10,15,0.5896290974716547,right,probe,biased-switch,-1,-30,left,left,0.32
HKG2000WRNO,2019-10-23-16-03-53,10,16,0.6951037293167667,right,both,biased-switch,109,-30,left,left,0.271
HKG2000WRNO,2019-10-23-16-03-53,10,17,0.5110028105680819,right,probe,ambiguous-switch,-1,40,left,left,0.355
HKG2000WRNO,2019-10-23-16-03-53,10,18,0.6267106931511144,right,both,ambiguous-switch,109,40,left,left,0.244
HKG2000WRNO,2019-10-23-16-03-53,10,19,0.6093092031858524,left,probe,ambiguous-switch,-1,10,right,right,0.28
HKG2000WRNO,2019-10-23-16-03-53,10,20,0.5681643339885645,left,both,ambiguous-switch,99,10,right,left,0.15
HKG2000WRNO,2019-10-23-16-03-53,10,21,0.6697719768548807,left,probe,biased-switch,-1,20,right,right,0.278
HKG2000WRNO,2019-10-23-16-03-53,10,22,0.6359238277560904,left,both,biased-switch,93,20,right,left,0.128
HKG2000WRNO,2019-10-23-16-03-53,10,23,0.5645632954131106,right,probe,biased-switch,-1,10,right,right,0.261
HKG2000WRNO,2019-10-23-16-03-53,10,24,0.5512920520303921,right,both,biased-switch,102,10,right,left,0.083
HKG2000WRNO,2019-10-23-16-03-53,10,25,0.5569424909257169,left,probe,biased-switch,-1,5,right,right,0.287
HKG2000WRNO,2019-10-23-16-03-53,10,26,0.6004729199622233,left,both,biased-switch,91,5,right,left,0.332
HKG2000WRNO,2019-10-23-16-03-53,10,27,0.6170989736932071,right,probe,biased-switch,-1,-20,left,left,0.306
HKG2000WRNO,2019-10-23-16-03-53,10,28,0.5029727914568717,right,both,biased-switch,109,-20,left,left,0.134
HKG2000WRNO,2019-10-23-16-03-53,10,29,0.6907352471718045,right,probe,ambiguous-switch,-1,-30,left,left,0.229
HKG2000WRNO,2019-10-23-16-03-53,10,30,0.6553219579646788,right,both,ambiguous-switch,95,-30,left,left,0.31
HKG2000WRNO,2019-10-23-16-03-53,10,31,0.6437284024481894,right,probe,ambiguous-switch,-1,5,left,left,0.261
HKG2000WRNO,2019-10-23-16-03-53,10,32,0.5529689137708432,right,both,ambiguous-switch,97,5,left,left,0.185
HKG2000WRNO,2019-10-23-16-03-53,10,33,0.5056123063366895,left,probe,ambiguous-switch,-1,0,right,right,0.315
HKG2000WRNO,2019-10-23-16-03-53,10,34,0.6210356889053473,left,both,ambiguous-switch,91,0,right,left,0.056
HKG2000WRNO,2019-10-23-16-03-53,10,35,0.6682690212611689,left,probe,ambiguous-switch,-1,-10,left,left,0.282
HKG2000WRNO,2019-10-23-16-03-53,10,36,0.6410268887895995,left,both,ambiguous-switch,103,-10,left,right,0.134
HKG2000WRNO,2019-10-23-16-03-53,10,37,0.5162905026545113,right,probe,biased-switch,-1,30,left,left,0.204
HKG2000WRNO,2019-10-23-16-03-53,10,38,0.6083177087123314,right,both,biased-switch,103,30,left,left,0.301
HKG2000WRNO,2019-10-23-16-03-53,10,39,0.6342471262041518,left,probe,ambiguous-switch,-1,30,right,right,0.301
HKG2000WRNO,2019-10-23-16-03-53,10,40,0.6540430745110787,left,both,ambiguous-switch,96,30,right,left,0.261
HKG2000WRNO,2019-10-23-16-03-53,10,41,0.5440834339610915,left,probe,ambiguous-switch,-1,-5,right,right,0.27
HKG2000WRNO,2019-10-23-16-03-53,10,42,0.6266161763837825,left,both,ambiguous-switch,94,-5,right,right,0.335
HKG2000WRNO,2019-10-23-16-03-53,10,43,0.6475253239919758,left,probe,biased-switch,-1,40,right,right,0.268
HKG2000WRNO,2019-10-23-16-03-53,10,44,0.6960198786173316,left,both,biased-switch,95,40,right,right,0.344
HKG2000WRNO,2019-10-23-16-03-53,10,45,0.6684205233609255,left,probe,ambiguous-switch,-1,-20,right,right,0.218
HKG2000WRNO,2019-10-23-16-03-53,10,46,0.6249036544317181,left,both,ambiguous-switch,106,-20,right,right,0.5
HKG2000WRNO,2019-10-23-16-03-53,10,47,0.6149057613541596,right,probe,biased-switch,-1,0,right,right,0.232
HKG2000WRNO,2019-10-23-16-03-53,10,48,0.6523857666054805,right,both,biased-switch,95,0,right,right,0.08
HKG2000WRNO,2019-10-23-16-03-53,10,49,0.5871866279086907,right,probe,ambiguous-switch,-1,20,right,right,0.448
HKG2000WRNO,2019-10-23-16-03-53,10,50,0.6894188938375887,right,both,ambiguous-switch,90,20,right,right,0.298
HKG2000WRNO,2019-10-23-16-03-53,10,51,0.5473065104173751,right,probe,biased-switch,-1,-5,right,right,0.285
HKG2000WRNO,2019-10-23-16-03-53,10,52,0.5556041695673881,right,both,biased-switch,101,-5,right,right,0.011
HKG2000WRNO,2019-10-23-16-03-53,10,53,0.5661185938546149,right,probe,biased-switch,-1,-10,right,right,0.983
HKG2000WRNO,2019-10-23-16-03-53,10,54,0.5418572573219061,right,both,biased-switch,95,-10,right,right,0.463
HKG2000WRNO,2019-10-23-16-03-53,10,55,0.5983211599333432,left,probe,biased-switch,-1,-30,right,right,0.371
HKG2000WRNO,2019-10-23-16-03-53,10,56,0.5172840498272377,left,both,biased-switch,103,-30,right,right,0.289
HKG2000WRNO,2019-10-23-16-03-53,10,57,0.5938556669625936,left,probe,ambiguous-switch,-1,40,right,right,0.242
HKG2000WRNO,2019-10-23-16-03-53,10,58,0.5160526278528202,left,both,ambiguous-switch,106,40,right,right,0.238
HKG2000WRNO,2019-10-23-16-03-53,10,59,0.6284248775639403,left,probe,ambiguous-switch,-1,10,right,right,0.354
HKG2000WRNO,2019-10-23-16-03-53,10,60,0.5338613204821425,left,both,ambiguous-switch,96,10,right,left,0.233
HKG2000WRNO,2019-10-23-16-03-53,10,61,0.6399776380760326,left,probe,biased-switch,-1,20,right,right,0.251
HKG2000WRNO,2019-10-23-16-03-53,10,62,0.5704684483822069,left,both,biased-switch,104,20,right,left,0.123
HKG2000WRNO,2019-10-23-16-03-53,10,63,0.5309630092174148,right,probe,biased-switch,-1,10,right,right,0.23
HKG2000WRNO,2019-10-23-16-03-53,10,64,0.5394731276037226,right,both,biased-switch,101,10,right,left,1.155
HKG2000WRNO,2019-10-23-16-03-53,10,65,0.5374802223676922,left,probe,biased-switch,-1,5,left,left,0.418
HKG2000WRNO,2019-10-23-16-03-53,10,66,0.5005191665335265,left,both,biased-switch,93,5,left,right,0.243
HKG2000WRNO,2019-10-23-16-03-53,10,67,0.5654938086808123,left,probe,biased-switch,-1,-20,right,right,0.212
HKG2000WRNO,2019-10-23-16-03-53,10,68,0.612874306056019,left,both,biased-switch,94,-20,right,right,0.48
HKG2000WRNO,2019-10-23-16-03-53,10,69,0.5092958897434534,right,probe,ambiguous-switch,-1,-30,right,right,0.28
HKG2000WRNO,2019-10-23-16-03-53,10,70,0.6131355785380423,right,both,ambiguous-switch,91,-30,right,right,0.019
HKG2000WRNO,2019-10-23-16-03-53,10,71,0.559085041308165,left,probe,ambiguous-switch,-1,5,right,right,0.148
HKG2000WRNO,2019-10-23-16-03-53,10,72,0.5253445009627862,left,both,ambiguous-switch,100,5,right,left,0.385
HKG2000WRNO,2019-10-23-16-03-53,10,73,0.5890715292011489,right,probe,ambiguous-switch,-1,0,right,right,0.288
HKG2000WRNO,2019-10-23-16-03-53,10,74,0.6075704498873916,right,both,ambiguous-switch,107,0,right,right,0.214
HKG2000WRNO,2019-10-23-16-03-53,10,75,0.5327099661138104,left,probe,ambiguous-switch,-1,-10,right,right,0.299
HKG2000WRNO,2019-10-23-16-03-53,10,76,0.6399623650776911,left,both,ambiguous-switch,102,-10,right,right,0.248
HKG2000WRNO,2019-10-23-16-03-53,10,77,0.6744585834792356,left,probe,biased-switch,-1,30,right,right,0.134
HKG2000WRNO,2019-10-23-16-03-53,10,78,0.529069036057409,left,both,biased-switch,103,30,right,right,0.115
HKG2000WRNO,2019-10-23-16-03-53,10,79,0.5509586255331382,right,probe,ambiguous-switch,-1,30,right,right,0.252
HKG2000WRNO,2019-10-23-16-03-53,10,80,0.5413145066438028,right,both,ambiguous-switch,104,30,right,right,0.237
