Participant,Session,Block,Trial,OnsetDelay,ProbeLocation,WhatIsReported,Condition,TriggerTime,ProbeSOA,PrimeDirection,Response,RT
HKS1998WRNO,2019-10-01-14-42-28,1,1,0.6361506648597237,left,probe,biased-switch,-1,10,right,right,0.875
HKS1998WRNO,2019-10-01-14-42-28,1,2,0.5838952349537644,left,both,biased-switch,96,10,right,left,3.396
HKS1998WRNO,2019-10-01-14-42-28,1,3,0.5625940779268799,right,probe,biased-switch,-1,-10,left,left,1.279
HKS1998WRNO,2019-10-01-14-42-28,1,4,0.578817207564706,right,both,biased-switch,97,-10,left,right,0.323
HKS1998WRNO,2019-10-01-14-42-28,1,5,0.6048446966387644,left,probe,ambiguous-switch,-1,20,right,right,0.377
HKS1998WRNO,2019-10-01-14-42-28,1,6,0.5523520910339988,left,both,ambiguous-switch,101,20,right,left,0.493
HKS1998WRNO,2019-10-01-14-42-28,1,7,0.6976382767393615,right,probe,ambiguous-switch,-1,30,right,right,1.778
HKS1998WRNO,2019-10-01-14-42-28,1,8,0.6375292767852252,right,both,ambiguous-switch,106,30,right,left,0.271
HKS1998WRNO,2019-10-01-14-42-28,1,9,0.6859860080331485,right,probe,biased-switch,-1,-5,right,right,0.299
HKS1998WRNO,2019-10-01-14-42-28,1,10,0.5678906124610469,right,both,biased-switch,95,-5,right,left,0.285
HKS1998WRNO,2019-10-01-14-42-28,1,11,0.5283464515055295,left,probe,biased-switch,-1,0,left,left,0.509
HKS1998WRNO,2019-10-01-14-42-28,1,12,0.5573650727107791,left,both,biased-switch,102,0,left,right,0.241
HKS1998WRNO,2019-10-01-14-42-28,1,13,0.5535251698533928,left,probe,ambiguous-switch,-1,-10,left,left,0.461
HKS1998WRNO,2019-10-01-14-42-28,1,14,0.5797741824842289,left,both,ambiguous-switch,90,-10,left,left,0.855
HKS1998WRNO,2019-10-01-14-42-28,1,15,0.6830091983242941,right,probe,biased-switch,-1,5,left,left,0.554
HKS1998WRNO,2019-10-01-14-42-28,1,16,0.6300376162385175,right,both,biased-switch,99,5,left,right,0.214
HKS1998WRNO,2019-10-01-14-42-28,1,17,0.5121980599962633,right,probe,biased-switch,-1,-20,left,left,0.281
HKS1998WRNO,2019-10-01-14-42-28,1,18,0.506223081426623,right,both,biased-switch,98,-20,left,left,0.317
HKS1998WRNO,2019-10-01-14-42-28,1,19,0.5611013019134565,left,probe,ambiguous-switch,-1,10,left,left,0.423
HKS1998WRNO,2019-10-01-14-42-28,1,20,0.6823424726827071,left,both,ambiguous-switch,109,10,left,right,0.266
HKS1998WRNO,2019-10-01-14-42-28,1,21,0.6598621994635256,right,probe,ambiguous-switch,-1,-30,left,left,0.256
HKS1998WRNO,2019-10-01-14-42-28,1,22,0.5655105914254565,right,both,ambiguous-switch,91,-30,left,left,0.43
HKS1998WRNO,2019-10-01-14-42-28,1,23,0.5240119645850524,right,probe,biased-switch,-1,30,left,left,0.525
HKS1998WRNO,2019-10-01-14-42-28,1,24,0.674469096763984,right,both,biased-switch,105,30,left,left,0.253
HKS1998WRNO,2019-10-01-14-42-28,1,25,0.6943360332045785,left,probe,ambiguous-switch,-1,0,left,left,0.56
HKS1998WRNO,2019-10-01-14-42-28,1,26,0.646202836539731,left,both,ambiguous-switch,108,0,left,right,0.27
HKS1998WRNO,2019-10-01-14-42-28,1,27,0.6902980532277848,right,probe,ambiguous-switch,-1,5,left,left,1.407
HKS1998WRNO,2019-10-01-14-42-28,1,28,0.6978371285031341,right,both,ambiguous-switch,92,5,left,left,1.079
HKS1998WRNO,2019-10-01-14-42-28,1,29,0.5189071734520782,right,probe,ambiguous-switch,-1,-20,left,left,0.275
HKS1998WRNO,2019-10-01-14-42-28,1,30,0.6581208423304789,right,both,ambiguous-switch,95,-20,left,right,0.782
HKS1998WRNO,2019-10-01-14-42-28,1,31,0.646525733741084,left,probe,biased-switch,-1,20,right,right,0.775
HKS1998WRNO,2019-10-01-14-42-28,1,32,0.54202052833102,left,both,biased-switch,96,20,right,left,0.259
HKS1998WRNO,2019-10-01-14-42-28,1,33,0.5031021409423768,right,probe,biased-switch,-1,40,left,left,0.422
HKS1998WRNO,2019-10-01-14-42-28,1,34,0.5640030087799217,right,both,biased-switch,102,40,left,left,0.461
HKS1998WRNO,2019-10-01-14-42-28,1,35,0.6177207756970171,right,probe,ambiguous-switch,-1,-5,left,left,0.993
HKS1998WRNO,2019-10-01-14-42-28,1,36,0.6702599303459409,right,both,ambiguous-switch,92,-5,left,right,0.838
HKS1998WRNO,2019-10-01-14-42-28,1,37,0.5015895374146949,right,probe,biased-switch,-1,-30,left,left,0.308
HKS1998WRNO,2019-10-01-14-42-28,1,38,0.6126084334971209,right,both,biased-switch,107,-30,left,right,0.574
HKS1998WRNO,2019-10-01-14-42-28,1,39,0.5054866114058819,right,probe,ambiguous-switch,-1,40,left,left,0.27
HKS1998WRNO,2019-10-01-14-42-28,1,40,0.5524662472688353,right,both,ambiguous-switch,95,40,left,right,1.139
HKS1998WRNO,2019-10-01-14-42-28,1,41,0.6648851165159285,right,probe,biased-switch,-1,10,right,right,0.849
HKS1998WRNO,2019-10-01-14-42-28,1,42,0.6751423717967036,right,both,biased-switch,108,10,right,left,0.345
HKS1998WRNO,2019-10-01-14-42-28,1,43,0.5745342173547032,left,probe,biased-switch,-1,-10,right,right,0.347
HKS1998WRNO,2019-10-01-14-42-28,1,44,0.6698871558567828,left,both,biased-switch,102,-10,right,left,0.342
HKS1998WRNO,2019-10-01-14-42-28,1,45,0.6372340754220147,right,probe,ambiguous-switch,-1,20,right,right,0.266
HKS1998WRNO,2019-10-01-14-42-28,1,46,0.5367583507504537,right,both,ambiguous-switch,95,20,right,left,0.275
HKS1998WRNO,2019-10-01-14-42-28,1,47,0.5051013680367548,right,probe,ambiguous-switch,-1,30,right,right,0.215
HKS1998WRNO,2019-10-01-14-42-28,1,48,0.6802603578989846,right,both,ambiguous-switch,101,30,right,right,0.422
HKS1998WRNO,2019-10-01-14-42-28,1,49,0.6685582792787212,right,probe,biased-switch,-1,-5,right,right,0.296
HKS1998WRNO,2019-10-01-14-42-28,1,50,0.532930978031429,right,both,biased-switch,93,-5,right,right,0.424
HKS1998WRNO,2019-10-01-14-42-28,1,51,0.6379046445975933,left,probe,biased-switch,-1,0,right,right,0.456
HKS1998WRNO,2019-10-01-14-42-28,1,52,0.6246931499895483,left,both,biased-switch,100,0,right,left,0.468
HKS1998WRNO,2019-10-01-14-42-28,1,53,0.6347321680110848,right,probe,ambiguous-switch,-1,-10,right,right,0.334
HKS1998WRNO,2019-10-01-14-42-28,1,54,0.6102519027594139,right,both,ambiguous-switch,91,-10,right,right,0.371
HKS1998WRNO,2019-10-01-14-42-28,1,55,0.5011355326540183,right,probe,biased-switch,-1,5,right,right,0.366
HKS1998WRNO,2019-10-01-14-42-28,1,56,0.5611225977083574,right,both,biased-switch,91,5,right,right,0.6
HKS1998WRNO,2019-10-01-14-42-28,1,57,0.5609577857225627,left,probe,biased-switch,-1,-20,right,right,0.395
HKS1998WRNO,2019-10-01-14-42-28,1,58,0.6641964573753668,left,both,biased-switch,99,-20,right,right,0.191
HKS1998WRNO,2019-10-01-14-42-28,1,59,0.6158791488332074,right,probe,ambiguous-switch,-1,10,right,right,0.596
HKS1998WRNO,2019-10-01-14-42-28,1,60,0.5889056189954025,right,both,ambiguous-switch,103,10,right,left,0.25
HKS1998WRNO,2019-10-01-14-42-28,1,61,0.6141572192737313,right,probe,ambiguous-switch,-1,-30,right,right,0.273
HKS1998WRNO,2019-10-01-14-42-28,1,62,0.5921553737640812,right,both,ambiguous-switch,95,-30,right,right,0.271
HKS1998WRNO,2019-10-01-14-42-28,1,63,0.584891288976766,right,probe,biased-switch,-1,30,right,right,0.388
HKS1998WRNO,2019-10-01-14-42-28,1,64,0.6026290020760294,right,both,biased-switch,93,30,right,left,0.252
HKS1998WRNO,2019-10-01-14-42-28,1,65,0.5451186405947318,left,probe,ambiguous-switch,-1,0,right,right,0.784
HKS1998WRNO,2019-10-01-14-42-28,1,66,0.5539123053630624,left,both,ambiguous-switch,109,0,right,right,0.148
HKS1998WRNO,2019-10-01-14-42-28,1,67,0.611378471267531,left,probe,ambiguous-switch,-1,5,right,right,0.222
HKS1998WRNO,2019-10-01-14-42-28,1,68,0.5503161358546373,left,both,ambiguous-switch,101,5,right,left,0.24
HKS1998WRNO,2019-10-01-14-42-28,1,69,0.6419445341571423,right,probe,ambiguous-switch,-1,-20,right,right,0.497
HKS1998WRNO,2019-10-01-14-42-28,1,70,0.5566247859075559,right,both,ambiguous-switch,92,-20,right,right,0.354
HKS1998WRNO,2019-10-01-14-42-28,1,71,0.5564644450086776,left,probe,biased-switch,-1,20,right,right,0.517
HKS1998WRNO,2019-10-01-14-42-28,1,72,0.5277261765237361,left,both,biased-switch,90,20,right,left,0.32
HKS1998WRNO,2019-10-01-14-42-28,1,73,0.6948018808789549,right,probe,biased-switch,-1,40,right,right,0.263
HKS1998WRNO,2019-10-01-14-42-28,1,74,0.6396894885849406,right,both,biased-switch,97,40,right,right,0.21
HKS1998WRNO,2019-10-01-14-42-28,1,75,0.5241426890707941,left,probe,ambiguous-switch,-1,-5,right,right,0.433
HKS1998WRNO,2019-10-01-14-42-28,1,76,0.5675590510679583,left,both,ambiguous-switch,108,-5,right,left,0.283
HKS1998WRNO,2019-10-01-14-42-28,1,77,0.6081167889648186,left,probe,biased-switch,-1,-30,right,right,0.28
HKS1998WRNO,2019-10-01-14-42-28,1,78,0.6463112835708571,left,both,biased-switch,96,-30,right,right,0.272
HKS1998WRNO,2019-10-01-14-42-28,1,79,0.5888803508075545,right,probe,ambiguous-switch,-1,40,right,right,0.258
HKS1998WRNO,2019-10-01-14-42-28,1,80,0.5601401461522205,right,both,ambiguous-switch,94,40,right,right,1.04
HKS1998WRNO,2019-10-01-14-42-28,2,1,0.628455445381603,left,probe,biased-switch,-1,-20,right,right,0.613
HKS1998WRNO,2019-10-01-14-42-28,2,2,0.5737644756777768,left,both,biased-switch,105,-20,right,left,8.09
HKS1998WRNO,2019-10-01-14-42-28,2,3,0.6869090335662645,right,probe,biased-switch,-1,20,right,right,0.289
HKS1998WRNO,2019-10-01-14-42-28,2,4,0.6954600767793316,right,both,biased-switch,98,20,right,left,0.241
HKS1998WRNO,2019-10-01-14-42-28,2,5,0.5720547931689289,left,probe,biased-switch,-1,0,left,left,0.212
HKS1998WRNO,2019-10-01-14-42-28,2,6,0.6319303388181743,left,both,biased-switch,92,0,left,right,0.238
HKS1998WRNO,2019-10-01-14-42-28,2,7,0.6787083326011021,right,probe,ambiguous-switch,-1,30,left,left,0.205
HKS1998WRNO,2019-10-01-14-42-28,2,8,0.5408022215493673,right,both,ambiguous-switch,104,30,left,right,0.235
HKS1998WRNO,2019-10-01-14-42-28,2,9,0.638736260132409,right,probe,biased-switch,-1,10,right,right,0.323
HKS1998WRNO,2019-10-01-14-42-28,2,10,0.6458821045472879,right,both,biased-switch,96,10,right,left,0.223
HKS1998WRNO,2019-10-01-14-42-28,2,11,0.5758563784882953,right,probe,ambiguous-switch,-1,0,left,left,0.293
HKS1998WRNO,2019-10-01-14-42-28,2,12,0.5002819519111221,right,both,ambiguous-switch,98,0,left,right,0.213
HKS1998WRNO,2019-10-01-14-42-28,2,13,0.6711168711798738,right,probe,ambiguous-switch,-1,-10,left,left,0.259
HKS1998WRNO,2019-10-01-14-42-28,2,14,0.6262211978242936,right,both,ambiguous-switch,100,-10,left,right,0.215
HKS1998WRNO,2019-10-01-14-42-28,2,15,0.5195630348058434,left,probe,biased-switch,-1,-10,left,left,0.257
HKS1998WRNO,2019-10-01-14-42-28,2,16,0.6298756053423592,left,both,biased-switch,99,-10,left,right,0.288
HKS1998WRNO,2019-10-01-14-42-28,2,17,0.5611148526511947,left,probe,biased-switch,-1,-5,left,left,0.216
HKS1998WRNO,2019-10-01-14-42-28,2,18,0.5500786614753855,left,both,biased-switch,94,-5,left,right,0.212
HKS1998WRNO,2019-10-01-14-42-28,2,19,0.5182631584443587,left,probe,ambiguous-switch,-1,5,left,left,0.282
HKS1998WRNO,2019-10-01-14-42-28,2,20,0.6355054949036849,left,both,ambiguous-switch,105,5,left,right,0.326
HKS1998WRNO,2019-10-01-14-42-28,2,21,0.6301920353539738,right,probe,biased-switch,-1,5,left,left,0.268
HKS1998WRNO,2019-10-01-14-42-28,2,22,0.6573529548718237,right,both,biased-switch,98,5,left,right,0.33
HKS1998WRNO,2019-10-01-14-42-28,2,23,0.6964622929064843,left,probe,biased-switch,-1,-30,left,left,0.185
HKS1998WRNO,2019-10-01-14-42-28,2,24,0.6461289906885666,left,both,biased-switch,91,-30,left,right,0.395
HKS1998WRNO,2019-10-01-14-42-28,2,25,0.6812590814029529,left,probe,biased-switch,-1,30,right,right,0.339
HKS1998WRNO,2019-10-01-14-42-28,2,26,0.5751365233818051,left,both,biased-switch,91,30,right,left,0.182
HKS1998WRNO,2019-10-01-14-42-28,2,27,0.6347427830627008,left,probe,ambiguous-switch,-1,10,right,right,0.161
HKS1998WRNO,2019-10-01-14-42-28,2,28,0.6477576388579819,left,both,ambiguous-switch,93,10,right,left,0.207
HKS1998WRNO,2019-10-01-14-42-28,2,29,0.649674356142224,left,probe,ambiguous-switch,-1,-5,right,right,0.227
HKS1998WRNO,2019-10-01-14-42-28,2,30,0.6035499708850913,left,both,ambiguous-switch,102,-5,right,left,0.091
HKS1998WRNO,2019-10-01-14-42-28,2,31,0.6081987753344672,right,probe,ambiguous-switch,-1,20,right,right,0.228
HKS1998WRNO,2019-10-01-14-42-28,2,32,0.5169784900402052,right,both,ambiguous-switch,98,20,right,left,0.206
HKS1998WRNO,2019-10-01-14-42-28,2,33,0.6922902678919318,left,probe,ambiguous-switch,-1,-30,right,right,0.266
HKS1998WRNO,2019-10-01-14-42-28,2,34,0.6483929575645311,left,both,ambiguous-switch,110,-30,right,right,0.241
HKS1998WRNO,2019-10-01-14-42-28,2,35,0.5084302138707626,left,probe,ambiguous-switch,-1,40,right,right,0.314
HKS1998WRNO,2019-10-01-14-42-28,2,36,0.5825634264961927,left,both,ambiguous-switch,99,40,right,right,0.224
HKS1998WRNO,2019-10-01-14-42-28,2,37,0.649202152062516,right,probe,biased-switch,-1,40,right,right,0.25
HKS1998WRNO,2019-10-01-14-42-28,2,38,0.635847754218444,right,both,biased-switch,106,40,right,right,0.221
HKS1998WRNO,2019-10-01-14-42-28,2,39,0.597359532792276,right,probe,ambiguous-switch,-1,-20,right,right,0.356
HKS1998WRNO,2019-10-01-14-42-28,2,40,0.5269305217888882,right,both,ambiguous-switch,97,-20,right,right,0.261
HKS1998WRNO,2019-10-01-14-42-28,2,41,0.6170842376998324,left,probe,biased-switch,-1,-20,right,right,0.505
HKS1998WRNO,2019-10-01-14-42-28,2,42,0.6638710678671393,left,both,biased-switch,102,-20,right,right,0.346
HKS1998WRNO,2019-10-01-14-42-28,2,43,0.6329879867072441,right,probe,biased-switch,-1,20,right,right,0.394
HKS1998WRNO,2019-10-01-14-42-28,2,44,0.6546396237753066,right,both,biased-switch,103,20,right,left,0.225
HKS1998WRNO,2019-10-01-14-42-28,2,45,0.5964320591252542,left,probe,biased-switch,-1,0,right,right,0.267
HKS1998WRNO,2019-10-01-14-42-28,2,46,0.5396667871239023,left,both,biased-switch,98,0,right,left,0.275
HKS1998WRNO,2019-10-01-14-42-28,2,47,0.519407342782114,right,probe,ambiguous-switch,-1,30,right,right,0.294
HKS1998WRNO,2019-10-01-14-42-28,2,48,0.51510509655736,right,both,ambiguous-switch,95,30,right,right,0.268
HKS1998WRNO,2019-10-01-14-42-28,2,49,0.5384437010594043,left,probe,biased-switch,-1,10,right,right,0.477
HKS1998WRNO,2019-10-01-14-42-28,2,50,0.5926769958798445,left,both,biased-switch,108,10,right,left,0.318
HKS1998WRNO,2019-10-01-14-42-28,2,51,0.5954312127605462,left,probe,ambiguous-switch,-1,0,right,right,0.4
HKS1998WRNO,2019-10-01-14-42-28,2,52,0.5645520200903075,left,both,ambiguous-switch,108,0,right,left,0.319
HKS1998WRNO,2019-10-01-14-42-28,2,53,0.544747470113485,left,probe,ambiguous-switch,-1,-10,right,right,0.344
HKS1998WRNO,2019-10-01-14-42-28,2,54,0.6581644607934872,left,both,ambiguous-switch,94,-10,right,left,0.35
HKS1998WRNO,2019-10-01-14-42-28,2,55,0.5068305418074873,left,probe,biased-switch,-1,-10,right,right,0.258
HKS1998WRNO,2019-10-01-14-42-28,2,56,0.6486603932414011,left,both,biased-switch,97,-10,right,right,0.507
HKS1998WRNO,2019-10-01-14-42-28,2,57,0.6984836697188531,right,probe,biased-switch,-1,-5,right,right,0.318
HKS1998WRNO,2019-10-01-14-42-28,2,58,0.660105926106374,right,both,biased-switch,102,-5,right,right,0.228
HKS1998WRNO,2019-10-01-14-42-28,2,59,0.663347319502637,right,probe,ambiguous-switch,-1,5,right,right,0.278
HKS1998WRNO,2019-10-01-14-42-28,2,60,0.5434143225198722,right,both,ambiguous-switch,104,5,right,right,0.243
HKS1998WRNO,2019-10-01-14-42-28,2,61,0.5027705454431151,left,probe,biased-switch,-1,5,right,right,0.332
HKS1998WRNO,2019-10-01-14-42-28,2,62,0.6020043921499931,left,both,biased-switch,108,5,right,left,0.275
HKS1998WRNO,2019-10-01-14-42-28,2,63,0.6132445138402083,left,probe,biased-switch,-1,-30,right,right,0.238
HKS1998WRNO,2019-10-01-14-42-28,2,64,0.6124662464338742,left,both,biased-switch,98,-30,right,right,0.245
HKS1998WRNO,2019-10-01-14-42-28,2,65,0.6004647174855161,right,probe,biased-switch,-1,30,right,right,0.341
HKS1998WRNO,2019-10-01-14-42-28,2,66,0.6966407050490158,right,both,biased-switch,110,30,right,right,0.288
HKS1998WRNO,2019-10-01-14-42-28,2,67,0.5531096102696604,right,probe,ambiguous-switch,-1,10,right,right,0.515
HKS1998WRNO,2019-10-01-14-42-28,2,68,0.6497353196000223,right,both,ambiguous-switch,93,10,right,left,0.282
HKS1998WRNO,2019-10-01-14-42-28,2,69,0.500753663735956,left,probe,ambiguous-switch,-1,-5,right,right,0.318
HKS1998WRNO,2019-10-01-14-42-28,2,70,0.501324021516105,left,both,ambiguous-switch,95,-5,right,right,0.359
HKS1998WRNO,2019-10-01-14-42-28,2,71,0.502783277454722,left,probe,ambiguous-switch,-1,20,right,right,0.531
HKS1998WRNO,2019-10-01-14-42-28,2,72,0.6487296077972758,left,both,ambiguous-switch,109,20,right,left,0.28
HKS1998WRNO,2019-10-01-14-42-28,2,73,0.6405417833000977,right,probe,ambiguous-switch,-1,-30,right,right,0.321
HKS1998WRNO,2019-10-01-14-42-28,2,74,0.5724846654613663,right,both,ambiguous-switch,101,-30,right,right,0.298
HKS1998WRNO,2019-10-01-14-42-28,2,75,0.6205818756135674,right,probe,ambiguous-switch,-1,40,right,right,0.353
HKS1998WRNO,2019-10-01-14-42-28,2,76,0.5043718792450067,right,both,ambiguous-switch,96,40,right,right,0.245
HKS1998WRNO,2019-10-01-14-42-28,2,77,0.5037541217903668,left,probe,biased-switch,-1,40,right,right,0.41
HKS1998WRNO,2019-10-01-14-42-28,2,78,0.5973695404154293,left,both,biased-switch,99,40,right,left,0.255
HKS1998WRNO,2019-10-01-14-42-28,2,79,0.6030279319462697,right,probe,ambiguous-switch,-1,-20,right,right,0.439
HKS1998WRNO,2019-10-01-14-42-28,2,80,0.6436148856053163,right,both,ambiguous-switch,96,-20,right,right,0.239
HKS1998WRNO,2019-10-01-14-42-28,3,1,0.5646018789567238,right,probe,biased-switch,-1,40,right,right,0.205
HKS1998WRNO,2019-10-01-14-42-28,3,2,0.5983829377772428,right,both,biased-switch,92,40,right,left,0.204
HKS1998WRNO,2019-10-01-14-42-28,3,3,0.5374323176043003,right,probe,ambiguous-switch,-1,20,right,right,0.286
HKS1998WRNO,2019-10-01-14-42-28,3,4,0.6371390853929808,right,both,ambiguous-switch,99,20,right,right,0.227
HKS1998WRNO,2019-10-01-14-42-28,3,5,0.6301578848907957,right,probe,biased-switch,-1,5,right,right,0.27
HKS1998WRNO,2019-10-01-14-42-28,3,6,0.6950056405249718,right,both,biased-switch,99,5,right,left,0.252
HKS1998WRNO,2019-10-01-14-42-28,3,7,0.6931144207337736,right,probe,ambiguous-switch,-1,10,right,right,0.262
HKS1998WRNO,2019-10-01-14-42-28,3,8,0.6083748198337486,right,both,ambiguous-switch,107,10,right,left,0.289
HKS1998WRNO,2019-10-01-14-42-28,3,9,0.6729214278161457,left,probe,ambiguous-switch,-1,40,left,left,0.328
HKS1998WRNO,2019-10-01-14-42-28,3,10,0.6034170190178529,left,both,ambiguous-switch,103,40,left,right,0.226
HKS1998WRNO,2019-10-01-14-42-28,3,11,0.6736395188836458,right,probe,biased-switch,-1,10,left,left,0.246
HKS1998WRNO,2019-10-01-14-42-28,3,12,0.5107465849954044,right,both,biased-switch,109,10,left,right,0.242
HKS1998WRNO,2019-10-01-14-42-28,3,13,0.6233767974983795,right,probe,ambiguous-switch,-1,-20,right,right,0.258
HKS1998WRNO,2019-10-01-14-42-28,3,14,0.6182444429709867,right,both,ambiguous-switch,108,-20,right,right,0.267
HKS1998WRNO,2019-10-01-14-42-28,3,15,0.5611078119560927,right,probe,ambiguous-switch,-1,-30,right,right,0.309
HKS1998WRNO,2019-10-01-14-42-28,3,16,0.6574270144099118,right,both,ambiguous-switch,93,-30,right,right,0.28
HKS1998WRNO,2019-10-01-14-42-28,3,17,0.6306752330828123,left,probe,biased-switch,-1,30,right,right,0.409
HKS1998WRNO,2019-10-01-14-42-28,3,18,0.6638139147151346,left,both,biased-switch,109,30,right,left,0.228
HKS1998WRNO,2019-10-01-14-42-28,3,19,0.518340584056802,right,probe,biased-switch,-1,-10,right,right,0.255
HKS1998WRNO,2019-10-01-14-42-28,3,20,0.6120130304209647,right,both,biased-switch,104,-10,right,right,0.232
HKS1998WRNO,2019-10-01-14-42-28,3,21,0.6513235356727372,left,probe,ambiguous-switch,-1,-5,left,left,0.272
HKS1998WRNO,2019-10-01-14-42-28,3,22,0.6158976542822808,left,both,ambiguous-switch,101,-5,left,left,0.404
HKS1998WRNO,2019-10-01-14-42-28,3,23,0.5948650724223487,left,probe,ambiguous-switch,-1,5,left,left,0.578
HKS1998WRNO,2019-10-01-14-42-28,3,24,0.5181709924468577,left,both,ambiguous-switch,100,5,left,left,0.265
HKS1998WRNO,2019-10-01-14-42-28,3,25,0.6321064493655794,left,probe,ambiguous-switch,-1,30,left,left,0.253
HKS1998WRNO,2019-10-01-14-42-28,3,26,0.575714089838909,left,both,ambiguous-switch,91,30,left,right,0.274
HKS1998WRNO,2019-10-01-14-42-28,3,27,0.6177792457689043,left,probe,ambiguous-switch,-1,-10,right,right,0.201
HKS1998WRNO,2019-10-01-14-42-28,3,28,0.6893016729566149,left,both,ambiguous-switch,94,-10,right,left,0.304
HKS1998WRNO,2019-10-01-14-42-28,3,29,0.5053587060033645,right,probe,biased-switch,-1,-5,right,right,0.314
HKS1998WRNO,2019-10-01-14-42-28,3,30,0.5532011670550161,right,both,biased-switch,91,-5,right,left,0.252
HKS1998WRNO,2019-10-01-14-42-28,3,31,0.5308584368616814,left,probe,ambiguous-switch,-1,0,left,left,0.203
HKS1998WRNO,2019-10-01-14-42-28,3,32,0.5780832402567887,left,both,ambiguous-switch,95,0,left,left,0.23
HKS1998WRNO,2019-10-01-14-42-28,3,33,0.5163637237002301,right,probe,biased-switch,-1,-30,left,left,0.422
HKS1998WRNO,2019-10-01-14-42-28,3,34,0.6964409828568686,right,both,biased-switch,97,-30,left,left,0.292
HKS1998WRNO,2019-10-01-14-42-28,3,35,0.5194834274356939,right,probe,biased-switch,-1,-20,left,left,0.246
HKS1998WRNO,2019-10-01-14-42-28,3,36,0.5656561816397736,right,both,biased-switch,96,-20,left,left,0.263
HKS1998WRNO,2019-10-01-14-42-28,3,37,0.6149440991957681,left,probe,biased-switch,-1,0,left,left,0.206
HKS1998WRNO,2019-10-01-14-42-28,3,38,0.5669346591794828,left,both,biased-switch,98,0,left,right,0.243
HKS1998WRNO,2019-10-01-14-42-28,3,39,0.6499127569674501,left,probe,biased-switch,-1,20,left,left,0.213
HKS1998WRNO,2019-10-01-14-42-28,3,40,0.5102062419862168,left,both,biased-switch,102,20,left,right,0.189
HKS1998WRNO,2019-10-01-14-42-28,3,41,0.6522049008540787,right,probe,biased-switch,-1,40,left,left,0.279
HKS1998WRNO,2019-10-01-14-42-28,3,42,0.6086152377477523,right,both,biased-switch,105,40,left,left,0.21
HKS1998WRNO,2019-10-01-14-42-28,3,43,0.690462482318276,right,probe,ambiguous-switch,-1,20,left,left,0.255
HKS1998WRNO,2019-10-01-14-42-28,3,44,0.5151923761184485,right,both,ambiguous-switch,101,20,left,right,0.274
HKS1998WRNO,2019-10-01-14-42-28,3,45,0.6766835528746382,left,probe,biased-switch,-1,5,left,left,0.188
HKS1998WRNO,2019-10-01-14-42-28,3,46,0.6830696099175922,left,both,biased-switch,108,5,left,right,0.181
HKS1998WRNO,2019-10-01-14-42-28,3,47,0.6130934491550257,left,probe,ambiguous-switch,-1,10,left,left,0.251
HKS1998WRNO,2019-10-01-14-42-28,3,48,0.6247975400736678,left,both,ambiguous-switch,90,10,left,right,0.3
HKS1998WRNO,2019-10-01-14-42-28,3,49,0.6585659443657229,left,probe,ambiguous-switch,-1,40,left,left,0.164
HKS1998WRNO,2019-10-01-14-42-28,3,50,0.5116760862720744,left,both,ambiguous-switch,97,40,left,right,0.293
HKS1998WRNO,2019-10-01-14-42-28,3,51,0.5270556777802187,right,probe,biased-switch,-1,10,left,left,0.253
HKS1998WRNO,2019-10-01-14-42-28,3,52,0.5548996849787009,right,both,biased-switch,106,10,left,right,0.209
HKS1998WRNO,2019-10-01-14-42-28,3,53,0.5547420982630622,left,probe,ambiguous-switch,-1,-20,left,left,0.186
HKS1998WRNO,2019-10-01-14-42-28,3,54,0.5498901788744441,left,both,ambiguous-switch,102,-20,left,left,0.341
HKS1998WRNO,2019-10-01-14-42-28,3,55,0.5532809274121682,left,probe,ambiguous-switch,-1,-30,left,left,0.305
HKS1998WRNO,2019-10-01-14-42-28,3,56,0.5443621847915123,left,both,ambiguous-switch,105,-30,left,left,0.371
HKS1998WRNO,2019-10-01-14-42-28,3,57,0.633537212323369,right,probe,biased-switch,-1,30,left,left,0.265
HKS1998WRNO,2019-10-01-14-42-28,3,58,0.5967680789328981,right,both,biased-switch,97,30,left,left,0.221
HKS1998WRNO,2019-10-01-14-42-28,3,59,0.6510974371473874,right,probe,biased-switch,-1,-10,left,left,0.224
HKS1998WRNO,2019-10-01-14-42-28,3,60,0.6374404283077643,right,both,biased-switch,91,-10,left,right,0.268
HKS1998WRNO,2019-10-01-14-42-28,3,61,0.6205355464257163,right,probe,ambiguous-switch,-1,-5,left,left,0.218
HKS1998WRNO,2019-10-01-14-42-28,3,62,0.5406000535796344,right,both,ambiguous-switch,101,-5,left,left,0.253
HKS1998WRNO,2019-10-01-14-42-28,3,63,0.5091641291543874,left,probe,ambiguous-switch,-1,5,left,left,0.21
HKS1998WRNO,2019-10-01-14-42-28,3,64,0.5492383547101921,left,both,ambiguous-switch,93,5,left,right,0.197
HKS1998WRNO,2019-10-01-14-42-28,3,65,0.555799715840416,right,probe,ambiguous-switch,-1,30,left,left,0.192
HKS1998WRNO,2019-10-01-14-42-28,3,66,0.6109860401316025,right,both,ambiguous-switch,95,30,left,left,0.193
HKS1998WRNO,2019-10-01-14-42-28,3,67,0.5678521632691094,left,probe,ambiguous-switch,-1,-10,left,left,0.274
HKS1998WRNO,2019-10-01-14-42-28,3,68,0.5424621867403016,left,both,ambiguous-switch,98,-10,left,left,0.235
HKS1998WRNO,2019-10-01-14-42-28,3,69,0.5837312330326531,left,probe,biased-switch,-1,-5,left,left,0.396
HKS1998WRNO,2019-10-01-14-42-28,3,70,0.6848745097134044,left,both,biased-switch,94,-5,left,right,0.27
HKS1998WRNO,2019-10-01-14-42-28,3,71,0.6346261501589895,right,probe,ambiguous-switch,-1,0,left,left,0.25
HKS1998WRNO,2019-10-01-14-42-28,3,72,0.6657774966496688,right,both,ambiguous-switch,106,0,left,right,0.242
HKS1998WRNO,2019-10-01-14-42-28,3,73,0.6525671734193305,left,probe,biased-switch,-1,-30,left,left,0.336
HKS1998WRNO,2019-10-01-14-42-28,3,74,0.6220193917368615,left,both,biased-switch,100,-30,left,left,0.237
HKS1998WRNO,2019-10-01-14-42-28,3,75,0.6555275195469987,right,probe,biased-switch,-1,-20,left,left,0.27
HKS1998WRNO,2019-10-01-14-42-28,3,76,0.6830288312280537,right,both,biased-switch,108,-20,left,right,0.35
HKS1998WRNO,2019-10-01-14-42-28,3,77,0.6245195223362241,right,probe,biased-switch,-1,0,left,left,0.242
HKS1998WRNO,2019-10-01-14-42-28,3,78,0.5748227438196867,right,both,biased-switch,98,0,left,right,0.253
HKS1998WRNO,2019-10-01-14-42-28,3,79,0.5848694445632647,right,probe,biased-switch,-1,20,left,left,0.254
HKS1998WRNO,2019-10-01-14-42-28,3,80,0.5795420478060891,right,both,biased-switch,109,20,left,right,0.205
HKS1998WRNO,2019-10-01-14-42-28,4,1,0.627727464952456,left,probe,biased-switch,-1,-5,right,right,0.393
HKS1998WRNO,2019-10-01-14-42-28,4,2,0.517333981154974,left,both,biased-switch,104,-5,right,left,0.192
HKS1998WRNO,2019-10-01-14-42-28,4,3,0.6054823927449363,right,probe,biased-switch,-1,20,left,left,0.269
HKS1998WRNO,2019-10-01-14-42-28,4,4,0.668775708833439,right,both,biased-switch,90,20,left,right,0.411
HKS1998WRNO,2019-10-01-14-42-28,4,5,0.5077880100077138,right,probe,biased-switch,-1,40,right,right,0.393
HKS1998WRNO,2019-10-01-14-42-28,4,6,0.5409566941399467,right,both,biased-switch,106,40,right,left,0.22
HKS1998WRNO,2019-10-01-14-42-28,4,7,0.6062929045585639,right,probe,ambiguous-switch,-1,40,left,left,0.3
HKS1998WRNO,2019-10-01-14-42-28,4,8,0.6440126890762339,right,both,ambiguous-switch,104,40,left,left,0.224
HKS1998WRNO,2019-10-01-14-42-28,4,9,0.5365420367438439,right,probe,biased-switch,-1,5,left,left,0.258
HKS1998WRNO,2019-10-01-14-42-28,4,10,0.5990165499469424,right,both,biased-switch,110,5,left,right,0.302
HKS1998WRNO,2019-10-01-14-42-28,4,11,0.6068374522895809,left,probe,ambiguous-switch,-1,-30,left,left,0.208
HKS1998WRNO,2019-10-01-14-42-28,4,12,0.5353550114241494,left,both,ambiguous-switch,106,-30,left,left,0.237
HKS1998WRNO,2019-10-01-14-42-28,4,13,0.5427927894721868,left,probe,ambiguous-switch,-1,10,left,left,0.27
HKS1998WRNO,2019-10-01-14-42-28,4,14,0.5377785747389048,left,both,ambiguous-switch,102,10,left,right,0.404
HKS1998WRNO,2019-10-01-14-42-28,4,15,0.6128544888770838,left,probe,biased-switch,-1,-30,left,left,0.199
HKS1998WRNO,2019-10-01-14-42-28,4,16,0.5445242107739572,left,both,biased-switch,110,-30,left,right,0.257
HKS1998WRNO,2019-10-01-14-42-28,4,17,0.5988817529162633,right,probe,biased-switch,-1,10,left,left,0.216
HKS1998WRNO,2019-10-01-14-42-28,4,18,0.5577422358228861,right,both,biased-switch,97,10,left,right,0.22
HKS1998WRNO,2019-10-01-14-42-28,4,19,0.5167331150302101,left,probe,ambiguous-switch,-1,-20,left,left,0.513
HKS1998WRNO,2019-10-01-14-42-28,4,20,0.6691144030136632,left,both,ambiguous-switch,100,-20,left,left,0.188
HKS1998WRNO,2019-10-01-14-42-28,4,21,0.6122658523683341,left,probe,biased-switch,-1,0,right,right,0.31
HKS1998WRNO,2019-10-01-14-42-28,4,22,0.646711518113117,left,both,biased-switch,104,0,right,left,0.224
HKS1998WRNO,2019-10-01-14-42-28,4,23,0.6456506773378816,left,probe,ambiguous-switch,-1,5,left,left,0.278
HKS1998WRNO,2019-10-01-14-42-28,4,24,0.5467815171685355,left,both,ambiguous-switch,103,5,left,right,0.285
HKS1998WRNO,2019-10-01-14-42-28,4,25,0.5788113062329472,left,probe,ambiguous-switch,-1,20,left,left,0.239
HKS1998WRNO,2019-10-01-14-42-28,4,26,0.6981054715565567,left,both,ambiguous-switch,105,20,left,right,0.207
HKS1998WRNO,2019-10-01-14-42-28,4,27,0.5868942931481125,right,probe,biased-switch,-1,30,left,left,0.257
HKS1998WRNO,2019-10-01-14-42-28,4,28,0.5313904448647045,right,both,biased-switch,98,30,left,right,0.207
HKS1998WRNO,2019-10-01-14-42-28,4,29,0.6418027889395592,left,probe,biased-switch,-1,-20,left,left,0.216
HKS1998WRNO,2019-10-01-14-42-28,4,30,0.5734276279232258,left,both,biased-switch,94,-20,left,left,0.215
HKS1998WRNO,2019-10-01-14-42-28,4,31,0.6100614498483243,right,probe,ambiguous-switch,-1,0,left,left,0.277
HKS1998WRNO,2019-10-01-14-42-28,4,32,0.5407427864933789,right,both,ambiguous-switch,95,0,left,right,0.232
HKS1998WRNO,2019-10-01-14-42-28,4,33,0.5419044136186035,right,probe,ambiguous-switch,-1,30,left,left,0.176
HKS1998WRNO,2019-10-01-14-42-28,4,34,0.505210872317946,right,both,ambiguous-switch,108,30,left,right,0.247
HKS1998WRNO,2019-10-01-14-42-28,4,35,0.6739918580841503,right,probe,ambiguous-switch,-1,-5,right,right,0.274
HKS1998WRNO,2019-10-01-14-42-28,4,36,0.6183769628195686,right,both,ambiguous-switch,97,-5,right,right,0.333
HKS1998WRNO,2019-10-01-14-42-28,4,37,0.6498229938591469,left,probe,ambiguous-switch,-1,-10,left,left,0.242
HKS1998WRNO,2019-10-01-14-42-28,4,38,0.5238412910246216,left,both,ambiguous-switch,96,-10,left,right,0.299
HKS1998WRNO,2019-10-01-14-42-28,4,39,0.5299854236148945,right,probe,biased-switch,-1,-10,right,right,0.214
HKS1998WRNO,2019-10-01-14-42-28,4,40,0.6955016214357558,right,both,biased-switch,90,-10,right,right,0.241
HKS1998WRNO,2019-10-01-14-42-28,4,41,0.5748819223865587,left,probe,biased-switch,-1,-5,right,right,0.29
HKS1998WRNO,2019-10-01-14-42-28,4,42,0.6278527236004884,left,both,biased-switch,104,-5,right,left,0.217
HKS1998WRNO,2019-10-01-14-42-28,4,43,0.6614012180854637,right,probe,biased-switch,-1,20,right,right,0.207
HKS1998WRNO,2019-10-01-14-42-28,4,44,0.5264461826283573,right,both,biased-switch,109,20,right,left,0.263
HKS1998WRNO,2019-10-01-14-42-28,4,45,0.5726868519505981,right,probe,biased-switch,-1,40,left,left,0.554
HKS1998WRNO,2019-10-01-14-42-28,4,46,0.5049233693441217,right,both,biased-switch,94,40,left,right,0.223
HKS1998WRNO,2019-10-01-14-42-28,4,47,0.5206772563641991,left,probe,ambiguous-switch,-1,40,left,left,0.196
HKS1998WRNO,2019-10-01-14-42-28,4,48,0.5719694813298803,left,both,ambiguous-switch,98,40,left,right,0.181
HKS1998WRNO,2019-10-01-14-42-28,4,49,0.5657414299593072,left,probe,biased-switch,-1,5,left,left,0.119
HKS1998WRNO,2019-10-01-14-42-28,4,50,0.5588443192436156,left,both,biased-switch,98,5,left,right,0.267
HKS1998WRNO,2019-10-01-14-42-28,4,51,0.6009851821679826,right,probe,ambiguous-switch,-1,-30,left,left,0.254
HKS1998WRNO,2019-10-01-14-42-28,4,52,0.505867121889018,right,both,ambiguous-switch,108,-30,left,left,0.293
HKS1998WRNO,2019-10-01-14-42-28,4,53,0.66897067752997,left,probe,ambiguous-switch,-1,10,left,left,0.29
HKS1998WRNO,2019-10-01-14-42-28,4,54,0.5483787584907558,left,both,ambiguous-switch,107,10,left,right,0.219
HKS1998WRNO,2019-10-01-14-42-28,4,55,0.5365672998992483,right,probe,biased-switch,-1,-30,left,left,0.206
HKS1998WRNO,2019-10-01-14-42-28,4,56,0.6135660509263208,right,both,biased-switch,109,-30,left,right,0.32
HKS1998WRNO,2019-10-01-14-42-28,4,57,0.6106807844192582,right,probe,biased-switch,-1,10,left,left,0.227
HKS1998WRNO,2019-10-01-14-42-28,4,58,0.6408392343392258,right,both,biased-switch,94,10,left,right,0.221
HKS1998WRNO,2019-10-01-14-42-28,4,59,0.6307858725083619,left,probe,ambiguous-switch,-1,-20,right,right,0.194
HKS1998WRNO,2019-10-01-14-42-28,4,60,0.6026074255953223,left,both,ambiguous-switch,101,-20,right,right,0.286
HKS1998WRNO,2019-10-01-14-42-28,4,61,0.5578832017193676,left,probe,biased-switch,-1,0,right,right,0.281
HKS1998WRNO,2019-10-01-14-42-28,4,62,0.5552127362603525,left,both,biased-switch,99,0,right,left,0.227
HKS1998WRNO,2019-10-01-14-42-28,4,63,0.6765122219441237,left,probe,ambiguous-switch,-1,5,right,right,0.225
HKS1998WRNO,2019-10-01-14-42-28,4,64,0.5659415670186422,left,both,ambiguous-switch,93,5,right,left,0.226
HKS1998WRNO,2019-10-01-14-42-28,4,65,0.5820119152699431,right,probe,ambiguous-switch,-1,20,right,right,0.24
HKS1998WRNO,2019-10-01-14-42-28,4,66,0.6956292811731397,right,both,ambiguous-switch,107,20,right,left,0.229
HKS1998WRNO,2019-10-01-14-42-28,4,67,0.6148331889797528,left,probe,biased-switch,-1,30,right,right,0.256
HKS1998WRNO,2019-10-01-14-42-28,4,68,0.6716428425527521,left,both,biased-switch,109,30,right,left,0.202
HKS1998WRNO,2019-10-01-14-42-28,4,69,0.6898486237843819,left,probe,biased-switch,-1,-20,right,right,0.258
HKS1998WRNO,2019-10-01-14-42-28,4,70,0.6533390794516425,left,both,biased-switch,101,-20,right,left,0.319
HKS1998WRNO,2019-10-01-14-42-28,4,71,0.6433449919866859,left,probe,ambiguous-switch,-1,0,right,right,0.266
HKS1998WRNO,2019-10-01-14-42-28,4,72,0.6448582603560818,left,both,ambiguous-switch,100,0,right,left,0.263
HKS1998WRNO,2019-10-01-14-42-28,4,73,0.5706271974213318,right,probe,ambiguous-switch,-1,30,right,right,0.217
HKS1998WRNO,2019-10-01-14-42-28,4,74,0.5105931438133668,right,both,ambiguous-switch,91,30,right,left,0.236
HKS1998WRNO,2019-10-01-14-42-28,4,75,0.6615323005725662,left,probe,ambiguous-switch,-1,-5,right,right,0.212
HKS1998WRNO,2019-10-01-14-42-28,4,76,0.6466157115661586,left,both,ambiguous-switch,92,-5,right,left,0.179
HKS1998WRNO,2019-10-01-14-42-28,4,77,0.530323603692618,left,probe,ambiguous-switch,-1,-10,right,right,0.258
HKS1998WRNO,2019-10-01-14-42-28,4,78,0.5475031817415197,left,both,ambiguous-switch,99,-10,right,right,0.24
HKS1998WRNO,2019-10-01-14-42-28,4,79,0.6606619014916675,right,probe,biased-switch,-1,-10,right,right,0.239
HKS1998WRNO,2019-10-01-14-42-28,4,80,0.5270318454065919,right,both,biased-switch,108,-10,right,left,0.237
HKS1998WRNO,2019-10-01-14-42-28,5,1,0.6875390098105414,left,probe,ambiguous-switch,-1,20,left,left,0.179
HKS1998WRNO,2019-10-01-14-42-28,5,2,0.5242379510817723,left,both,ambiguous-switch,104,20,left,right,0.256
HKS1998WRNO,2019-10-01-14-42-28,5,3,0.6013034500537121,left,probe,biased-switch,-1,-30,right,right,0.308
HKS1998WRNO,2019-10-01-14-42-28,5,4,0.676725482989646,left,both,biased-switch,91,-30,right,right,0.269
HKS1998WRNO,2019-10-01-14-42-28,5,5,0.6995121626243469,right,probe,biased-switch,-1,5,left,left,0.239
HKS1998WRNO,2019-10-01-14-42-28,5,6,0.5915189539016833,right,both,biased-switch,97,5,left,right,0.238
HKS1998WRNO,2019-10-01-14-42-28,5,7,0.6592360492995465,right,probe,ambiguous-switch,-1,40,left,left,0.223
HKS1998WRNO,2019-10-01-14-42-28,5,8,0.5833137080245804,right,both,ambiguous-switch,108,40,left,right,0.274
HKS1998WRNO,2019-10-01-14-42-28,5,9,0.5774401996312035,left,probe,ambiguous-switch,-1,-30,left,left,0.444
HKS1998WRNO,2019-10-01-14-42-28,5,10,0.5527491005631676,left,both,ambiguous-switch,102,-30,left,right,0.241
HKS1998WRNO,2019-10-01-14-42-28,5,11,0.512386538203996,right,probe,biased-switch,-1,40,left,left,0.278
HKS1998WRNO,2019-10-01-14-42-28,5,12,0.5862749408370773,right,both,biased-switch,92,40,left,right,0.283
HKS1998WRNO,2019-10-01-14-42-28,5,13,0.6458933148774687,right,probe,biased-switch,-1,-10,right,right,0.303
HKS1998WRNO,2019-10-01-14-42-28,5,14,0.5205586167905738,right,both,biased-switch,91,-10,right,left,0.255
HKS1998WRNO,2019-10-01-14-42-28,5,15,0.5476564397959119,right,probe,ambiguous-switch,-1,5,right,right,0.267
HKS1998WRNO,2019-10-01-14-42-28,5,16,0.5800045847206627,right,both,ambiguous-switch,109,5,right,left,0.242
HKS1998WRNO,2019-10-01-14-42-28,5,17,0.6533299917030839,right,probe,biased-switch,-1,10,right,right,0.234
HKS1998WRNO,2019-10-01-14-42-28,5,18,0.5084308688295505,right,both,biased-switch,107,10,right,left,0.251
HKS1998WRNO,2019-10-01-14-42-28,5,19,0.5213535246136914,right,probe,biased-switch,-1,-20,left,left,0.273
HKS1998WRNO,2019-10-01-14-42-28,5,20,0.5681643047696356,right,both,biased-switch,105,-20,left,right,0.493
HKS1998WRNO,2019-10-01-14-42-28,5,21,0.5794745422410981,right,probe,ambiguous-switch,-1,0,right,right,0.295
HKS1998WRNO,2019-10-01-14-42-28,5,22,0.5197523258054827,right,both,ambiguous-switch,106,0,right,left,0.241
HKS1998WRNO,2019-10-01-14-42-28,5,23,0.6312970308042236,left,probe,biased-switch,-1,-5,right,right,0.241
HKS1998WRNO,2019-10-01-14-42-28,5,24,0.5223306595622226,left,both,biased-switch,94,-5,right,left,0.231
HKS1998WRNO,2019-10-01-14-42-28,5,25,0.652718093623529,left,probe,ambiguous-switch,-1,10,right,right,0.273
HKS1998WRNO,2019-10-01-14-42-28,5,26,0.6554835276321271,left,both,ambiguous-switch,95,10,right,left,0.223
HKS1998WRNO,2019-10-01-14-42-28,5,27,0.5754083741243974,left,probe,biased-switch,-1,20,right,right,0.305
HKS1998WRNO,2019-10-01-14-42-28,5,28,0.5643547187863258,left,both,biased-switch,98,20,right,left,0.225
HKS1998WRNO,2019-10-01-14-42-28,5,29,0.5639537577757482,left,probe,biased-switch,-1,0,left,left,0.183
HKS1998WRNO,2019-10-01-14-42-28,5,30,0.5488310875036846,left,both,biased-switch,104,0,left,right,0.242
HKS1998WRNO,2019-10-01-14-42-28,5,31,0.6755208411767424,left,probe,ambiguous-switch,-1,30,right,right,0.296
HKS1998WRNO,2019-10-01-14-42-28,5,32,0.6207113481791297,left,both,ambiguous-switch,102,30,right,right,0.138
HKS1998WRNO,2019-10-01-14-42-28,5,33,0.6437765212266209,left,probe,ambiguous-switch,-1,-20,right,right,0.204
HKS1998WRNO,2019-10-01-14-42-28,5,34,0.5711484009633822,left,both,ambiguous-switch,106,-20,right,right,0.221
HKS1998WRNO,2019-10-01-14-42-28,5,35,0.5596102969013715,right,probe,ambiguous-switch,-1,-5,right,right,0.227
HKS1998WRNO,2019-10-01-14-42-28,5,36,0.6592149843810647,right,both,ambiguous-switch,102,-5,right,right,0.302
HKS1998WRNO,2019-10-01-14-42-28,5,37,0.5705442905307714,right,probe,biased-switch,-1,30,right,right,0.322
HKS1998WRNO,2019-10-01-14-42-28,5,38,0.5319368453745229,right,both,biased-switch,107,30,right,left,0.25
HKS1998WRNO,2019-10-01-14-42-28,5,39,0.6966137551245799,right,probe,ambiguous-switch,-1,-10,right,right,0.292
HKS1998WRNO,2019-10-01-14-42-28,5,40,0.503196290783199,right,both,ambiguous-switch,103,-10,right,left,0.245
HKS1998WRNO,2019-10-01-14-42-28,5,41,0.5539140619435706,right,probe,ambiguous-switch,-1,20,left,left,0.254
HKS1998WRNO,2019-10-01-14-42-28,5,42,0.6259728122243012,right,both,ambiguous-switch,108,20,left,right,0.26
HKS1998WRNO,2019-10-01-14-42-28,5,43,0.6535902394715284,right,probe,biased-switch,-1,-30,left,left,0.256
HKS1998WRNO,2019-10-01-14-42-28,5,44,0.5978205517080547,right,both,biased-switch,109,-30,left,right,0.287
HKS1998WRNO,2019-10-01-14-42-28,5,45,0.5197162608903413,left,probe,biased-switch,-1,5,left,left,0.238
HKS1998WRNO,2019-10-01-14-42-28,5,46,0.5131267826411307,left,both,biased-switch,101,5,left,right,0.187
HKS1998WRNO,2019-10-01-14-42-28,5,47,0.6257956259776007,left,probe,ambiguous-switch,-1,40,right,right,0.294
HKS1998WRNO,2019-10-01-14-42-28,5,48,0.5103048665571607,left,both,ambiguous-switch,104,40,right,right,0.262
HKS1998WRNO,2019-10-01-14-42-28,5,49,0.6957536986937717,right,probe,ambiguous-switch,-1,-30,left,left,0.246
HKS1998WRNO,2019-10-01-14-42-28,5,50,0.6732094609010546,right,both,ambiguous-switch,101,-30,left,left,0.279
HKS1998WRNO,2019-10-01-14-42-28,5,51,0.6020947077042629,left,probe,biased-switch,-1,40,left,left,0.527
HKS1998WRNO,2019-10-01-14-42-28,5,52,0.6701428421679562,left,both,biased-switch,109,40,left,right,0.243
HKS1998WRNO,2019-10-01-14-42-28,5,53,0.6306611655799368,right,probe,biased-switch,-1,-10,left,left,0.224
HKS1998WRNO,2019-10-01-14-42-28,5,54,0.5050745712717988,right,both,biased-switch,110,-10,left,left,0.297
HKS1998WRNO,2019-10-01-14-42-28,5,55,0.6033409225516999,left,probe,ambiguous-switch,-1,5,left,left,0.21
HKS1998WRNO,2019-10-01-14-42-28,5,56,0.6739548423305938,left,both,ambiguous-switch,100,5,left,right,0.285
HKS1998WRNO,2019-10-01-14-42-28,5,57,0.5119261134827672,left,probe,biased-switch,-1,10,left,left,1.392
HKS1998WRNO,2019-10-01-14-42-28,5,58,0.6382082867437081,left,both,biased-switch,103,10,left,right,0.286
HKS1998WRNO,2019-10-01-14-42-28,5,59,0.6927186150409085,left,probe,biased-switch,-1,-20,right,right,0.317
HKS1998WRNO,2019-10-01-14-42-28,5,60,0.6247216062472993,left,both,biased-switch,93,-20,right,right,0.267
HKS1998WRNO,2019-10-01-14-42-28,5,61,0.6113302624086197,left,probe,ambiguous-switch,-1,0,right,right,0.284
HKS1998WRNO,2019-10-01-14-42-28,5,62,0.56618994339209,left,both,ambiguous-switch,93,0,right,left,0.223
HKS1998WRNO,2019-10-01-14-42-28,5,63,0.6444710396723412,right,probe,biased-switch,-1,-5,left,left,0.235
HKS1998WRNO,2019-10-01-14-42-28,5,64,0.5378646291762409,right,both,biased-switch,107,-5,left,right,0.224
HKS1998WRNO,2019-10-01-14-42-28,5,65,0.5496047232281273,left,probe,ambiguous-switch,-1,10,left,left,0.185
HKS1998WRNO,2019-10-01-14-42-28,5,66,0.6398229477683455,left,both,ambiguous-switch,103,10,left,right,0.237
HKS1998WRNO,2019-10-01-14-42-28,5,67,0.547187521706463,right,probe,biased-switch,-1,20,left,left,0.216
HKS1998WRNO,2019-10-01-14-42-28,5,68,0.6888549019615676,right,both,biased-switch,96,20,left,left,0.22
HKS1998WRNO,2019-10-01-14-42-28,5,69,0.5907374664315146,left,probe,biased-switch,-1,0,left,left,0.323
HKS1998WRNO,2019-10-01-14-42-28,5,70,0.5933338710452558,left,both,biased-switch,95,0,left,right,0.272
HKS1998WRNO,2019-10-01-14-42-28,5,71,0.6733579787217748,left,probe,ambiguous-switch,-1,30,right,right,0.694
HKS1998WRNO,2019-10-01-14-42-28,5,72,0.5072244289174372,left,both,ambiguous-switch,103,30,right,left,0.179
HKS1998WRNO,2019-10-01-14-42-28,5,73,0.6668758090448671,left,probe,ambiguous-switch,-1,-20,left,left,0.225
HKS1998WRNO,2019-10-01-14-42-28,5,74,0.6711796541318238,left,both,ambiguous-switch,92,-20,left,right,0.238
HKS1998WRNO,2019-10-01-14-42-28,5,75,0.5433572649108364,left,probe,ambiguous-switch,-1,-5,left,left,0.869
HKS1998WRNO,2019-10-01-14-42-28,5,76,0.5701636521138053,left,both,ambiguous-switch,93,-5,left,right,0.228
HKS1998WRNO,2019-10-01-14-42-28,5,77,0.6218462050892837,left,probe,biased-switch,-1,30,right,right,0.201
HKS1998WRNO,2019-10-01-14-42-28,5,78,0.6747610881565386,left,both,biased-switch,106,30,right,left,0.223
HKS1998WRNO,2019-10-01-14-42-28,5,79,0.5351788297290506,right,probe,ambiguous-switch,-1,-10,right,right,0.265
HKS1998WRNO,2019-10-01-14-42-28,5,80,0.6294736791753003,right,both,ambiguous-switch,104,-10,right,left,0.196
HKS1998WRNO,2019-10-01-14-42-28,6,1,0.5863822313044743,right,probe,ambiguous-switch,-1,-20,left,left,0.192
HKS1998WRNO,2019-10-01-14-42-28,6,2,0.634395345175283,right,both,ambiguous-switch,100,-20,left,left,0.227
HKS1998WRNO,2019-10-01-14-42-28,6,3,0.5320728365899039,left,probe,biased-switch,-1,-30,right,right,0.182
HKS1998WRNO,2019-10-01-14-42-28,6,4,0.5423563807115102,left,both,biased-switch,94,-30,right,right,0.244
HKS1998WRNO,2019-10-01-14-42-28,6,5,0.5795291695664383,left,probe,biased-switch,-1,30,right,right,0.162
HKS1998WRNO,2019-10-01-14-42-28,6,6,0.6584012590394144,left,both,biased-switch,91,30,right,left,0.205
HKS1998WRNO,2019-10-01-14-42-28,6,7,0.6853986590405146,left,probe,biased-switch,-1,10,left,left,0.276
HKS1998WRNO,2019-10-01-14-42-28,6,8,0.5021167990059513,left,both,biased-switch,105,10,left,right,0.211
HKS1998WRNO,2019-10-01-14-42-28,6,9,0.5931707324799771,right,probe,biased-switch,-1,-5,left,left,0.196
HKS1998WRNO,2019-10-01-14-42-28,6,10,0.5106201008726527,right,both,biased-switch,94,-5,left,right,0.223
HKS1998WRNO,2019-10-01-14-42-28,6,11,0.5014782070293343,left,probe,biased-switch,-1,5,right,right,0.197
HKS1998WRNO,2019-10-01-14-42-28,6,12,0.5037788119932589,left,both,biased-switch,103,5,right,left,0.193
HKS1998WRNO,2019-10-01-14-42-28,6,13,0.6292052457228882,left,probe,biased-switch,-1,-10,left,left,0.194
HKS1998WRNO,2019-10-01-14-42-28,6,14,0.5816736123118809,left,both,biased-switch,110,-10,left,right,0.209
HKS1998WRNO,2019-10-01-14-42-28,6,15,0.6352442423513959,left,probe,ambiguous-switch,-1,5,right,right,0.181
HKS1998WRNO,2019-10-01-14-42-28,6,16,0.6595296201350186,left,both,ambiguous-switch,96,5,right,left,0.236
HKS1998WRNO,2019-10-01-14-42-28,6,17,0.5795393157399279,left,probe,biased-switch,-1,-20,left,left,0.216
HKS1998WRNO,2019-10-01-14-42-28,6,18,0.6912163455135071,left,both,biased-switch,107,-20,left,left,0.219
HKS1998WRNO,2019-10-01-14-42-28,6,19,0.5484340307498116,left,probe,biased-switch,-1,40,left,left,0.16
HKS1998WRNO,2019-10-01-14-42-28,6,20,0.5953888365353058,left,both,biased-switch,104,40,left,left,0.2
HKS1998WRNO,2019-10-01-14-42-28,6,21,0.6745989019524118,right,probe,ambiguous-switch,-1,-30,left,left,0.234
HKS1998WRNO,2019-10-01-14-42-28,6,22,0.6384038320987026,right,both,ambiguous-switch,92,-30,left,left,0.203
HKS1998WRNO,2019-10-01-14-42-28,6,23,0.599827399082963,left,probe,ambiguous-switch,-1,10,left,left,0.212
HKS1998WRNO,2019-10-01-14-42-28,6,24,0.6494067088657326,left,both,ambiguous-switch,99,10,left,right,0.217
HKS1998WRNO,2019-10-01-14-42-28,6,25,0.6053024109240063,left,probe,ambiguous-switch,-1,30,left,left,0.191
HKS1998WRNO,2019-10-01-14-42-28,6,26,0.6861827613837829,left,both,ambiguous-switch,98,30,left,right,0.175
HKS1998WRNO,2019-10-01-14-42-28,6,27,0.5648949586145755,right,probe,ambiguous-switch,-1,-5,left,left,0.154
HKS1998WRNO,2019-10-01-14-42-28,6,28,0.5816501539087905,right,both,ambiguous-switch,109,-5,left,right,0.176
HKS1998WRNO,2019-10-01-14-42-28,6,29,0.5037119426186637,right,probe,ambiguous-switch,-1,-10,left,left,0.189
HKS1998WRNO,2019-10-01-14-42-28,6,30,0.5063141135199893,right,both,ambiguous-switch,100,-10,left,right,0.022
HKS1998WRNO,2019-10-01-14-42-28,6,31,0.5483670077705691,left,probe,biased-switch,-1,0,left,left,0.179
HKS1998WRNO,2019-10-01-14-42-28,6,32,0.5511412806331444,left,both,biased-switch,94,0,left,right,0.216
HKS1998WRNO,2019-10-01-14-42-28,6,33,0.5765797889227237,left,probe,ambiguous-switch,-1,40,left,left,0.209
HKS1998WRNO,2019-10-01-14-42-28,6,34,0.6839789608903983,left,both,ambiguous-switch,107,40,left,left,0.176
HKS1998WRNO,2019-10-01-14-42-28,6,35,0.5459086510531522,right,probe,biased-switch,-1,20,left,left,0.167
HKS1998WRNO,2019-10-01-14-42-28,6,36,0.5055734398710358,right,both,biased-switch,95,20,left,right,2.964
HKS1998WRNO,2019-10-01-14-42-28,6,37,0.6679229075793799,right,probe,ambiguous-switch,-1,20,left,left,0.176
HKS1998WRNO,2019-10-01-14-42-28,6,38,0.5977980821501421,right,both,ambiguous-switch,99,20,left,right,0.21
HKS1998WRNO,2019-10-01-14-42-28,6,39,0.6756451770718156,left,probe,ambiguous-switch,-1,0,left,left,0.128
HKS1998WRNO,2019-10-01-14-42-28,6,40,0.6608519680066656,left,both,ambiguous-switch,101,0,left,right,0.169
HKS1998WRNO,2019-10-01-14-42-28,6,41,0.6884567176539186,left,probe,ambiguous-switch,-1,-20,left,left,0.209
HKS1998WRNO,2019-10-01-14-42-28,6,42,0.5323286471389369,left,both,ambiguous-switch,97,-20,left,left,0.249
HKS1998WRNO,2019-10-01-14-42-28,6,43,0.5096943292038862,left,probe,biased-switch,-1,-30,left,left,0.19
HKS1998WRNO,2019-10-01-14-42-28,6,44,0.5130298808352326,left,both,biased-switch,98,-30,left,left,0.194
HKS1998WRNO,2019-10-01-14-42-28,6,45,0.5683106811633277,left,probe,biased-switch,-1,30,left,left,0.189
HKS1998WRNO,2019-10-01-14-42-28,6,46,0.5334536099284252,left,both,biased-switch,98,30,left,right,0.152
HKS1998WRNO,2019-10-01-14-42-28,6,47,0.5216798545889454,left,probe,biased-switch,-1,10,left,left,0.177
HKS1998WRNO,2019-10-01-14-42-28,6,48,0.6626470316233554,left,both,biased-switch,105,10,left,right,0.224
HKS1998WRNO,2019-10-01-14-42-28,6,49,0.5329684982099079,left,probe,biased-switch,-1,-5,left,left,0.22
HKS1998WRNO,2019-10-01-14-42-28,6,50,0.550882730973462,left,both,biased-switch,96,-5,left,right,0.269
HKS1998WRNO,2019-10-01-14-42-28,6,51,0.5225369011642309,left,probe,biased-switch,-1,5,right,right,0.267
HKS1998WRNO,2019-10-01-14-42-28,6,52,0.6413651193000272,left,both,biased-switch,106,5,right,left,0.257
HKS1998WRNO,2019-10-01-14-42-28,6,53,0.6923357288784387,left,probe,biased-switch,-1,-10,left,left,0.189
HKS1998WRNO,2019-10-01-14-42-28,6,54,0.5393218293715147,left,both,biased-switch,104,-10,left,left,0.228
HKS1998WRNO,2019-10-01-14-42-28,6,55,0.532589290265027,left,probe,ambiguous-switch,-1,5,right,right,0.235
HKS1998WRNO,2019-10-01-14-42-28,6,56,0.5909467913926014,left,both,ambiguous-switch,95,5,right,left,0.189
HKS1998WRNO,2019-10-01-14-42-28,6,57,0.5366508474613503,left,probe,biased-switch,-1,-20,left,left,0.205
HKS1998WRNO,2019-10-01-14-42-28,6,58,0.524285740199109,left,both,biased-switch,105,-20,left,left,0.241
HKS1998WRNO,2019-10-01-14-42-28,6,59,0.5871466667309212,right,probe,biased-switch,-1,40,left,left,0.252
HKS1998WRNO,2019-10-01-14-42-28,6,60,0.5846854014294661,right,both,biased-switch,100,40,left,left,0.193
HKS1998WRNO,2019-10-01-14-42-28,6,61,0.6270952496658321,right,probe,ambiguous-switch,-1,-30,left,left,0.212
HKS1998WRNO,2019-10-01-14-42-28,6,62,0.565269089092009,right,both,ambiguous-switch,104,-30,left,left,0.237
HKS1998WRNO,2019-10-01-14-42-28,6,63,0.5743658129924181,left,probe,ambiguous-switch,-1,10,left,left,0.278
HKS1998WRNO,2019-10-01-14-42-28,6,64,0.5422828176136069,left,both,ambiguous-switch,110,10,left,right,0.204
HKS1998WRNO,2019-10-01-14-42-28,6,65,0.6688579597094808,left,probe,ambiguous-switch,-1,30,left,left,0.18
HKS1998WRNO,2019-10-01-14-42-28,6,66,0.5892724746111524,left,both,ambiguous-switch,94,30,left,right,0.177
HKS1998WRNO,2019-10-01-14-42-28,6,67,0.5837938569381972,left,probe,ambiguous-switch,-1,-5,right,right,0.191
HKS1998WRNO,2019-10-01-14-42-28,6,68,0.673608427210152,left,both,ambiguous-switch,106,-5,right,left,0.276
HKS1998WRNO,2019-10-01-14-42-28,6,69,0.6508659763122896,right,probe,ambiguous-switch,-1,-10,right,right,0.319
HKS1998WRNO,2019-10-01-14-42-28,6,70,0.5490305425289066,right,both,ambiguous-switch,92,-10,right,left,0.143
HKS1998WRNO,2019-10-01-14-42-28,6,71,0.5261535496327081,left,probe,biased-switch,-1,0,left,left,0.2
HKS1998WRNO,2019-10-01-14-42-28,6,72,0.6974171467783105,left,both,biased-switch,100,0,left,right,0.233
HKS1998WRNO,2019-10-01-14-42-28,6,73,0.6036277595657624,left,probe,ambiguous-switch,-1,40,left,left,0.221
HKS1998WRNO,2019-10-01-14-42-28,6,74,0.555110785838395,left,both,ambiguous-switch,99,40,left,right,0.204
HKS1998WRNO,2019-10-01-14-42-28,6,75,0.521215532969195,right,probe,biased-switch,-1,20,left,left,0.214
HKS1998WRNO,2019-10-01-14-42-28,6,76,0.5103036218238615,right,both,biased-switch,95,20,left,right,0.213
HKS1998WRNO,2019-10-01-14-42-28,6,77,0.6348717190163765,right,probe,ambiguous-switch,-1,20,left,left,0.214
HKS1998WRNO,2019-10-01-14-42-28,6,78,0.6543843706370817,right,both,ambiguous-switch,100,20,left,right,0.27
HKS1998WRNO,2019-10-01-14-42-28,6,79,0.5887763484519166,left,probe,ambiguous-switch,-1,0,right,right,0.306
HKS1998WRNO,2019-10-01-14-42-28,6,80,0.5422604033534664,left,both,ambiguous-switch,109,0,right,left,0.243
HKS1998WRNO,2019-10-01-14-42-28,7,1,0.5941714300575208,left,probe,biased-switch,-1,20,right,right,0.218
HKS1998WRNO,2019-10-01-14-42-28,7,2,0.6890552298227727,left,both,biased-switch,102,20,right,left,0.188
HKS1998WRNO,2019-10-01-14-42-28,7,3,0.6536370980283538,left,probe,biased-switch,-1,-5,left,left,0.187
HKS1998WRNO,2019-10-01-14-42-28,7,4,0.5500664343270761,left,both,biased-switch,105,-5,left,right,0.242
HKS1998WRNO,2019-10-01-14-42-28,7,5,0.5373710872302048,left,probe,ambiguous-switch,-1,10,left,left,0.204
HKS1998WRNO,2019-10-01-14-42-28,7,6,0.6543080589794529,left,both,ambiguous-switch,100,10,left,right,0.247
HKS1998WRNO,2019-10-01-14-42-28,7,7,0.5072800254904667,right,probe,biased-switch,-1,-20,right,right,0.2
HKS1998WRNO,2019-10-01-14-42-28,7,8,0.5558136219568486,right,both,biased-switch,94,-20,right,right,0.205
HKS1998WRNO,2019-10-01-14-42-28,7,9,0.6291647454334983,right,probe,ambiguous-switch,-1,40,right,right,0.231
HKS1998WRNO,2019-10-01-14-42-28,7,10,0.5103647324512324,right,both,ambiguous-switch,101,40,right,left,0.263
HKS1998WRNO,2019-10-01-14-42-28,7,11,0.6398434133854196,left,probe,ambiguous-switch,-1,0,right,right,0.219
HKS1998WRNO,2019-10-01-14-42-28,7,12,0.5130852073257051,left,both,ambiguous-switch,99,0,right,left,0.225
HKS1998WRNO,2019-10-01-14-42-28,7,13,0.5510757406846711,right,probe,ambiguous-switch,-1,-30,right,right,0.186
HKS1998WRNO,2019-10-01-14-42-28,7,14,0.549196057110861,right,both,ambiguous-switch,95,-30,right,right,0.188
HKS1998WRNO,2019-10-01-14-42-28,7,15,0.5550531872702736,left,probe,biased-switch,-1,30,right,right,0.206
HKS1998WRNO,2019-10-01-14-42-28,7,16,0.5943677473148248,left,both,biased-switch,102,30,right,left,0.219
HKS1998WRNO,2019-10-01-14-42-28,7,17,0.612689619116178,left,probe,biased-switch,-1,40,left,left,0.339
HKS1998WRNO,2019-10-01-14-42-28,7,18,0.6522151408421744,left,both,biased-switch,108,40,left,right,0.181
HKS1998WRNO,2019-10-01-14-42-28,7,19,0.6104350929256723,left,probe,ambiguous-switch,-1,-5,right,right,0.224
HKS1998WRNO,2019-10-01-14-42-28,7,20,0.6927824042011552,left,both,ambiguous-switch,91,-5,right,left,0.285
HKS1998WRNO,2019-10-01-14-42-28,7,21,0.5208735830212986,right,probe,biased-switch,-1,5,right,right,0.232
HKS1998WRNO,2019-10-01-14-42-28,7,22,0.6527417267654979,right,both,biased-switch,95,5,right,left,0.224
HKS1998WRNO,2019-10-01-14-42-28,7,23,0.5339521803464731,right,probe,biased-switch,-1,-10,right,right,0.349
HKS1998WRNO,2019-10-01-14-42-28,7,24,0.6279642208026808,right,both,biased-switch,99,-10,right,right,0.249
HKS1998WRNO,2019-10-01-14-42-28,7,25,0.5086241009786922,right,probe,ambiguous-switch,-1,-10,right,right,0.542
HKS1998WRNO,2019-10-01-14-42-28,7,26,0.6439489594080636,right,both,ambiguous-switch,96,-10,right,right,0.262
HKS1998WRNO,2019-10-01-14-42-28,7,27,0.5205071527832096,right,probe,ambiguous-switch,-1,5,right,right,0.394
HKS1998WRNO,2019-10-01-14-42-28,7,28,0.6165785743402897,right,both,ambiguous-switch,93,5,right,right,0.241
HKS1998WRNO,2019-10-01-14-42-28,7,29,0.5767184477628866,left,probe,ambiguous-switch,-1,-20,right,right,0.429
HKS1998WRNO,2019-10-01-14-42-28,7,30,0.5493975578022505,left,both,ambiguous-switch,95,-20,right,left,0.221
HKS1998WRNO,2019-10-01-14-42-28,7,31,0.6075023907481865,left,probe,ambiguous-switch,-1,20,left,left,0.25
HKS1998WRNO,2019-10-01-14-42-28,7,32,0.5354332383532061,left,both,ambiguous-switch,93,20,left,right,0.223
HKS1998WRNO,2019-10-01-14-42-28,7,33,0.5759998602560912,right,probe,ambiguous-switch,-1,30,right,right,0.226
HKS1998WRNO,2019-10-01-14-42-28,7,34,0.6316178788959639,right,both,ambiguous-switch,93,30,right,left,0.244
HKS1998WRNO,2019-10-01-14-42-28,7,35,0.6118521746974948,left,probe,biased-switch,-1,10,right,right,0.179
HKS1998WRNO,2019-10-01-14-42-28,7,36,0.608767360776849,left,both,biased-switch,105,10,right,left,0.212
HKS1998WRNO,2019-10-01-14-42-28,7,37,0.5241462959765343,right,probe,biased-switch,-1,-30,right,right,0.312
HKS1998WRNO,2019-10-01-14-42-28,7,38,0.5536658933086858,right,both,biased-switch,91,-30,right,right,0.222
HKS1998WRNO,2019-10-01-14-42-28,7,39,0.5451592084804716,left,probe,biased-switch,-1,0,right,right,0.266
HKS1998WRNO,2019-10-01-14-42-28,7,40,0.6537876270382166,left,both,biased-switch,95,0,right,left,0.223
HKS1998WRNO,2019-10-01-14-42-28,7,41,0.5913339853385174,left,probe,biased-switch,-1,20,right,right,0.265
HKS1998WRNO,2019-10-01-14-42-28,7,42,0.5718742909776995,left,both,biased-switch,110,20,right,left,0.221
HKS1998WRNO,2019-10-01-14-42-28,7,43,0.516617887326894,left,probe,biased-switch,-1,-5,right,right,0.205
HKS1998WRNO,2019-10-01-14-42-28,7,44,0.5859826205165146,left,both,biased-switch,92,-5,right,left,0.238
HKS1998WRNO,2019-10-01-14-42-28,7,45,0.599598568013162,left,probe,ambiguous-switch,-1,10,left,left,0.277
HKS1998WRNO,2019-10-01-14-42-28,7,46,0.544618828439793,left,both,ambiguous-switch,106,10,left,right,0.244
HKS1998WRNO,2019-10-01-14-42-28,7,47,0.5103617185715645,right,probe,biased-switch,-1,-20,right,right,0.31
HKS1998WRNO,2019-10-01-14-42-28,7,48,0.6225947951948597,right,both,biased-switch,94,-20,right,right,0.21
HKS1998WRNO,2019-10-01-14-42-28,7,49,0.5693618444784643,left,probe,ambiguous-switch,-1,40,left,left,0.195
HKS1998WRNO,2019-10-01-14-42-28,7,50,0.6103204149642948,left,both,ambiguous-switch,99,40,left,right,0.252
HKS1998WRNO,2019-10-01-14-42-28,7,51,0.5761735631723378,left,probe,ambiguous-switch,-1,0,left,left,0.255
HKS1998WRNO,2019-10-01-14-42-28,7,52,0.5401948512081188,left,both,ambiguous-switch,103,0,left,right,0.235
HKS1998WRNO,2019-10-01-14-42-28,7,53,0.5133390474251592,right,probe,ambiguous-switch,-1,-30,right,right,0.268
HKS1998WRNO,2019-10-01-14-42-28,7,54,0.6997293831344036,right,both,ambiguous-switch,102,-30,right,right,0.211
HKS1998WRNO,2019-10-01-14-42-28,7,55,0.629892084169536,left,probe,biased-switch,-1,30,right,right,0.176
HKS1998WRNO,2019-10-01-14-42-28,7,56,0.6949779072132751,left,both,biased-switch,96,30,right,left,0.218
HKS1998WRNO,2019-10-01-14-42-28,7,57,0.5733052942280178,right,probe,biased-switch,-1,40,right,right,0.216
HKS1998WRNO,2019-10-01-14-42-28,7,58,0.6032810898224485,right,both,biased-switch,109,40,right,left,0.244
HKS1998WRNO,2019-10-01-14-42-28,7,59,0.5990281666667499,left,probe,ambiguous-switch,-1,-5,right,right,0.245
HKS1998WRNO,2019-10-01-14-42-28,7,60,0.5150549589777763,left,both,ambiguous-switch,104,-5,right,left,0.189
HKS1998WRNO,2019-10-01-14-42-28,7,61,0.5664512103609898,left,probe,biased-switch,-1,5,left,left,0.227
HKS1998WRNO,2019-10-01-14-42-28,7,62,0.6690508996866865,left,both,biased-switch,109,5,left,right,0.198
HKS1998WRNO,2019-10-01-14-42-28,7,63,0.6756731900028377,right,probe,biased-switch,-1,-10,right,right,0.086
HKS1998WRNO,2019-10-01-14-42-28,7,64,0.6418493337352436,right,both,biased-switch,90,-10,right,left,0.21
HKS1998WRNO,2019-10-01-14-42-28,7,65,0.6943739960328175,right,probe,ambiguous-switch,-1,-10,right,right,0.211
HKS1998WRNO,2019-10-01-14-42-28,7,66,0.5838722716106884,right,both,ambiguous-switch,91,-10,right,right,0.164
HKS1998WRNO,2019-10-01-14-42-28,7,67,0.6632712263097604,left,probe,ambiguous-switch,-1,5,right,right,0.228
HKS1998WRNO,2019-10-01-14-42-28,7,68,0.6745292736498164,left,both,ambiguous-switch,90,5,right,left,0.213
HKS1998WRNO,2019-10-01-14-42-28,7,69,0.5620865101117407,right,probe,ambiguous-switch,-1,-20,right,right,0.209
HKS1998WRNO,2019-10-01-14-42-28,7,70,0.5483565652863434,right,both,ambiguous-switch,99,-20,right,right,0.187
HKS1998WRNO,2019-10-01-14-42-28,7,71,0.629301108318168,right,probe,ambiguous-switch,-1,20,right,right,0.213
HKS1998WRNO,2019-10-01-14-42-28,7,72,0.5728836038168764,right,both,ambiguous-switch,91,20,right,left,0.23
HKS1998WRNO,2019-10-01-14-42-28,7,73,0.5563257918394848,left,probe,ambiguous-switch,-1,30,right,right,0.152
HKS1998WRNO,2019-10-01-14-42-28,7,74,0.5138781749319918,left,both,ambiguous-switch,90,30,right,left,0.263
HKS1998WRNO,2019-10-01-14-42-28,7,75,0.5781035631700301,left,probe,biased-switch,-1,10,right,right,0.212
HKS1998WRNO,2019-10-01-14-42-28,7,76,0.6236477913332281,left,both,biased-switch,103,10,right,left,0.206
HKS1998WRNO,2019-10-01-14-42-28,7,77,0.5731017846070209,left,probe,biased-switch,-1,-30,left,left,0.289
HKS1998WRNO,2019-10-01-14-42-28,7,78,0.6249516858881654,left,both,biased-switch,100,-30,left,left,0.192
HKS1998WRNO,2019-10-01-14-42-28,7,79,0.5317679092714317,right,probe,biased-switch,-1,0,right,right,0.206
HKS1998WRNO,2019-10-01-14-42-28,7,80,0.6828356712041639,right,both,biased-switch,97,0,right,left,0.225
HKS1998WRNO,2019-10-01-14-42-28,8,1,0.6630014680684686,left,probe,ambiguous-switch,-1,40,left,left,0.254
HKS1998WRNO,2019-10-01-14-42-28,8,2,0.5519441577667696,left,both,ambiguous-switch,109,40,left,right,0.211
HKS1998WRNO,2019-10-01-14-42-28,8,3,0.6945671989223903,left,probe,ambiguous-switch,-1,10,left,left,0.492
HKS1998WRNO,2019-10-01-14-42-28,8,4,0.6619696926355718,left,both,ambiguous-switch,107,10,left,right,0.255
HKS1998WRNO,2019-10-01-14-42-28,8,5,0.6867755641307851,left,probe,ambiguous-switch,-1,20,left,left,0.274
HKS1998WRNO,2019-10-01-14-42-28,8,6,0.5176582279925701,left,both,ambiguous-switch,106,20,left,right,0.204
HKS1998WRNO,2019-10-01-14-42-28,8,7,0.5935349757754373,left,probe,ambiguous-switch,-1,-30,left,left,0.217
HKS1998WRNO,2019-10-01-14-42-28,8,8,0.6244690654511629,left,both,ambiguous-switch,106,-30,left,right,0.253
HKS1998WRNO,2019-10-01-14-42-28,8,9,0.5970447870267483,right,probe,ambiguous-switch,-1,30,left,left,0.382
HKS1998WRNO,2019-10-01-14-42-28,8,10,0.6989784388717699,right,both,ambiguous-switch,92,30,left,left,0.168
HKS1998WRNO,2019-10-01-14-42-28,8,11,0.6127393517160413,right,probe,biased-switch,-1,5,left,left,0.194
HKS1998WRNO,2019-10-01-14-42-28,8,12,0.6502278503728147,right,both,biased-switch,93,5,left,right,0.182
HKS1998WRNO,2019-10-01-14-42-28,8,13,0.5756300612574201,right,probe,biased-switch,-1,30,left,left,0.192
HKS1998WRNO,2019-10-01-14-42-28,8,14,0.5377999384125008,right,both,biased-switch,107,30,left,right,0.204
HKS1998WRNO,2019-10-01-14-42-28,8,15,0.6467777523144178,left,probe,biased-switch,-1,20,left,left,0.205
HKS1998WRNO,2019-10-01-14-42-28,8,16,0.6416294827573487,left,both,biased-switch,99,20,left,right,0.212
HKS1998WRNO,2019-10-01-14-42-28,8,17,0.536225909162622,right,probe,ambiguous-switch,-1,-20,left,left,0.201
HKS1998WRNO,2019-10-01-14-42-28,8,18,0.5639854307573586,right,both,ambiguous-switch,99,-20,left,left,0.175
HKS1998WRNO,2019-10-01-14-42-28,8,19,0.5177630579173274,left,probe,ambiguous-switch,-1,0,right,right,0.21
HKS1998WRNO,2019-10-01-14-42-28,8,20,0.5555721540770476,left,both,ambiguous-switch,100,0,right,left,0.206
HKS1998WRNO,2019-10-01-14-42-28,8,21,0.5838254902017889,left,probe,biased-switch,-1,-10,left,left,0.24
HKS1998WRNO,2019-10-01-14-42-28,8,22,0.6771381067711191,left,both,biased-switch,108,-10,left,left,0.241
HKS1998WRNO,2019-10-01-14-42-28,8,23,0.6586142169017691,left,probe,ambiguous-switch,-1,5,left,left,0.201
HKS1998WRNO,2019-10-01-14-42-28,8,24,0.5751326440616594,left,both,ambiguous-switch,94,5,left,right,0.251
HKS1998WRNO,2019-10-01-14-42-28,8,25,0.5533574045800422,right,probe,biased-switch,-1,-20,left,left,0.241
HKS1998WRNO,2019-10-01-14-42-28,8,26,0.6560606056504069,right,both,biased-switch,97,-20,left,right,0.662
HKS1998WRNO,2019-10-01-14-42-28,8,27,0.6316273646943676,left,probe,ambiguous-switch,-1,-5,left,left,0.179
HKS1998WRNO,2019-10-01-14-42-28,8,28,0.5783327234670872,left,both,ambiguous-switch,106,-5,left,right,0.232
HKS1998WRNO,2019-10-01-14-42-28,8,29,0.6606939537791209,right,probe,biased-switch,-1,-5,left,left,0.221
HKS1998WRNO,2019-10-01-14-42-28,8,30,0.5047533448337663,right,both,biased-switch,101,-5,left,left,0.231
HKS1998WRNO,2019-10-01-14-42-28,8,31,0.5717695201110743,left,probe,biased-switch,-1,-30,right,right,0.23
HKS1998WRNO,2019-10-01-14-42-28,8,32,0.6581835564461014,left,both,biased-switch,109,-30,right,right,0.179
HKS1998WRNO,2019-10-01-14-42-28,8,33,0.5599936263645141,right,probe,biased-switch,-1,40,left,left,0.173
HKS1998WRNO,2019-10-01-14-42-28,8,34,0.6068860290635676,right,both,biased-switch,98,40,left,right,0.2
HKS1998WRNO,2019-10-01-14-42-28,8,35,0.674289009334721,left,probe,biased-switch,-1,10,left,left,0.114
HKS1998WRNO,2019-10-01-14-42-28,8,36,0.6370896558595746,left,both,biased-switch,95,10,left,right,0.197
HKS1998WRNO,2019-10-01-14-42-28,8,37,0.5992388854518654,right,probe,biased-switch,-1,0,left,left,0.17
HKS1998WRNO,2019-10-01-14-42-28,8,38,0.5578462329735738,right,both,biased-switch,98,0,left,right,0.214
HKS1998WRNO,2019-10-01-14-42-28,8,39,0.5498528479594955,right,probe,ambiguous-switch,-1,-10,right,right,0.303
HKS1998WRNO,2019-10-01-14-42-28,8,40,0.5088987264406395,right,both,ambiguous-switch,93,-10,right,left,0.22
HKS1998WRNO,2019-10-01-14-42-28,8,41,0.5183198313498103,left,probe,ambiguous-switch,-1,40,right,right,0.199
HKS1998WRNO,2019-10-01-14-42-28,8,42,0.5254963192717687,left,both,ambiguous-switch,103,40,right,right,0.105
HKS1998WRNO,2019-10-01-14-42-28,8,43,0.503476725370707,left,probe,ambiguous-switch,-1,10,right,right,0.192
HKS1998WRNO,2019-10-01-14-42-28,8,44,0.5026607493429225,left,both,ambiguous-switch,94,10,right,left,0.159
HKS1998WRNO,2019-10-01-14-42-28,8,45,0.5510227025756987,left,probe,ambiguous-switch,-1,20,right,right,0.091
HKS1998WRNO,2019-10-01-14-42-28,8,46,0.553692122343036,left,both,ambiguous-switch,106,20,right,left,0.359
HKS1998WRNO,2019-10-01-14-42-28,8,47,0.5560715402089763,right,probe,ambiguous-switch,-1,-30,right,right,0.204
HKS1998WRNO,2019-10-01-14-42-28,8,48,0.5977614865510344,right,both,ambiguous-switch,109,-30,right,right,0.215
HKS1998WRNO,2019-10-01-14-42-28,8,49,0.687796231108838,left,probe,ambiguous-switch,-1,30,right,right,0.253
HKS1998WRNO,2019-10-01-14-42-28,8,50,0.6203907816169155,left,both,ambiguous-switch,92,30,right,right,0.143
HKS1998WRNO,2019-10-01-14-42-28,8,51,0.5203842853157663,right,probe,biased-switch,-1,5,right,right,0.221
HKS1998WRNO,2019-10-01-14-42-28,8,52,0.5529673067025864,right,both,biased-switch,107,5,right,left,0.191
HKS1998WRNO,2019-10-01-14-42-28,8,53,0.5656293292415863,left,probe,biased-switch,-1,30,right,right,0.127
HKS1998WRNO,2019-10-01-14-42-28,8,54,0.5055602604647003,left,both,biased-switch,99,30,right,left,0.195
HKS1998WRNO,2019-10-01-14-42-28,8,55,0.600812005493824,right,probe,biased-switch,-1,20,right,right,0.201
HKS1998WRNO,2019-10-01-14-42-28,8,56,0.560728857250953,right,both,biased-switch,107,20,right,left,0.203
HKS1998WRNO,2019-10-01-14-42-28,8,57,0.5665714694313637,left,probe,ambiguous-switch,-1,-20,right,right,0.261
HKS1998WRNO,2019-10-01-14-42-28,8,58,0.5815849271936406,left,both,ambiguous-switch,96,-20,right,right,0.174
HKS1998WRNO,2019-10-01-14-42-28,8,59,0.5703510084551403,left,probe,ambiguous-switch,-1,0,right,right,0.226
HKS1998WRNO,2019-10-01-14-42-28,8,60,0.5394166898187325,left,both,ambiguous-switch,100,0,right,right,0.277
HKS1998WRNO,2019-10-01-14-42-28,8,61,0.5175790626850647,right,probe,biased-switch,-1,-10,right,right,0.204
HKS1998WRNO,2019-10-01-14-42-28,8,62,0.6285088232762157,right,both,biased-switch,108,-10,right,right,0.415
HKS1998WRNO,2019-10-01-14-42-28,8,63,0.6096139560110874,left,probe,ambiguous-switch,-1,5,right,right,0.235
HKS1998WRNO,2019-10-01-14-42-28,8,64,0.5944455669925413,left,both,ambiguous-switch,102,5,right,left,0.285
HKS1998WRNO,2019-10-01-14-42-28,8,65,0.5426727990899103,right,probe,biased-switch,-1,-20,right,right,0.164
HKS1998WRNO,2019-10-01-14-42-28,8,66,0.6689714575212735,right,both,biased-switch,91,-20,right,right,0.199
HKS1998WRNO,2019-10-01-14-42-28,8,67,0.6588915711548458,left,probe,ambiguous-switch,-1,-5,right,right,0.404
HKS1998WRNO,2019-10-01-14-42-28,8,68,0.6456069125624134,left,both,ambiguous-switch,103,-5,right,left,0.205
HKS1998WRNO,2019-10-01-14-42-28,8,69,0.6281612893158045,left,probe,biased-switch,-1,-5,right,right,0.189
HKS1998WRNO,2019-10-01-14-42-28,8,70,0.658346207510733,left,both,biased-switch,93,-5,right,left,0.176
HKS1998WRNO,2019-10-01-14-42-28,8,71,0.5774127367572746,right,probe,biased-switch,-1,-30,right,right,0.167
HKS1998WRNO,2019-10-01-14-42-28,8,72,0.5313935939556531,right,both,biased-switch,107,-30,right,right,0.22
HKS1998WRNO,2019-10-01-14-42-28,8,73,0.6526015673832978,right,probe,biased-switch,-1,40,right,right,0.194
HKS1998WRNO,2019-10-01-14-42-28,8,74,0.6321910771793353,right,both,biased-switch,103,40,right,right,0.242
HKS1998WRNO,2019-10-01-14-42-28,8,75,0.6697048470106929,right,probe,biased-switch,-1,10,right,right,0.201
HKS1998WRNO,2019-10-01-14-42-28,8,76,0.5391448466667044,right,both,biased-switch,106,10,right,left,0.287
HKS1998WRNO,2019-10-01-14-42-28,8,77,0.5425697754649436,right,probe,biased-switch,-1,0,right,right,0.226
HKS1998WRNO,2019-10-01-14-42-28,8,78,0.528915776190748,right,both,biased-switch,92,0,right,left,0.217
HKS1998WRNO,2019-10-01-14-42-28,8,79,0.543215365520025,left,probe,ambiguous-switch,-1,-10,right,right,0.171
HKS1998WRNO,2019-10-01-14-42-28,8,80,0.5184215351406493,left,both,ambiguous-switch,101,-10,right,right,0.202
HKS1998WRNO,2019-10-01-14-42-28,9,1,0.5220154318477654,left,probe,ambiguous-switch,-1,10,right,right,0.2
HKS1998WRNO,2019-10-01-14-42-28,9,2,0.5203003353146898,left,both,ambiguous-switch,108,10,right,left,0.199
HKS1998WRNO,2019-10-01-14-42-28,9,3,0.5110012424407571,right,probe,biased-switch,-1,-5,right,right,0.217
HKS1998WRNO,2019-10-01-14-42-28,9,4,0.5432292104817449,right,both,biased-switch,102,-5,right,left,0.252
HKS1998WRNO,2019-10-01-14-42-28,9,5,0.6105343167479199,right,probe,ambiguous-switch,-1,0,right,right,0.191
HKS1998WRNO,2019-10-01-14-42-28,9,6,0.5205685787936685,right,both,ambiguous-switch,102,0,right,right,0.185
HKS1998WRNO,2019-10-01-14-42-28,9,7,0.551058471835236,right,probe,biased-switch,-1,0,right,right,0.206
HKS1998WRNO,2019-10-01-14-42-28,9,8,0.6720569869648112,right,both,biased-switch,107,0,right,left,1.145
HKS1998WRNO,2019-10-01-14-42-28,9,9,0.5512152740754214,left,probe,biased-switch,-1,-10,left,left,0.223
HKS1998WRNO,2019-10-01-14-42-28,9,10,0.6224253538523121,left,both,biased-switch,106,-10,left,left,0.233
HKS1998WRNO,2019-10-01-14-42-28,9,11,0.6667911919254792,left,probe,biased-switch,-1,-20,left,left,0.389
HKS1998WRNO,2019-10-01-14-42-28,9,12,0.6203791172707397,left,both,biased-switch,109,-20,left,left,0.256
HKS1998WRNO,2019-10-01-14-42-28,9,13,0.6784637214350473,left,probe,ambiguous-switch,-1,5,left,left,0.204
HKS1998WRNO,2019-10-01-14-42-28,9,14,0.5611593819028275,left,both,ambiguous-switch,102,5,left,right,0.228
HKS1998WRNO,2019-10-01-14-42-28,9,15,0.6592723532320686,left,probe,biased-switch,-1,20,left,left,0.301
HKS1998WRNO,2019-10-01-14-42-28,9,16,0.5166380879022829,left,both,biased-switch,96,20,left,right,0.239
HKS1998WRNO,2019-10-01-14-42-28,9,17,0.5823843170203783,left,probe,biased-switch,-1,40,left,left,0.219
HKS1998WRNO,2019-10-01-14-42-28,9,18,0.6147415872870449,left,both,biased-switch,100,40,left,right,0.409
HKS1998WRNO,2019-10-01-14-42-28,9,19,0.6553398844421364,right,probe,ambiguous-switch,-1,30,left,left,0.219
HKS1998WRNO,2019-10-01-14-42-28,9,20,0.5341326186619468,right,both,ambiguous-switch,109,30,left,left,0.246
HKS1998WRNO,2019-10-01-14-42-28,9,21,0.5002594849859051,right,probe,biased-switch,-1,10,left,left,0.357
HKS1998WRNO,2019-10-01-14-42-28,9,22,0.6695710655461297,right,both,biased-switch,101,10,left,right,0.217
HKS1998WRNO,2019-10-01-14-42-28,9,23,0.5394500188637017,left,probe,ambiguous-switch,-1,20,left,left,0.244
HKS1998WRNO,2019-10-01-14-42-28,9,24,0.6875239611280565,left,both,ambiguous-switch,92,20,left,right,0.19
HKS1998WRNO,2019-10-01-14-42-28,9,25,0.6218560183224741,left,probe,ambiguous-switch,-1,-5,left,left,0.259
HKS1998WRNO,2019-10-01-14-42-28,9,26,0.6244034399681642,left,both,ambiguous-switch,96,-5,left,left,0.254
HKS1998WRNO,2019-10-01-14-42-28,9,27,0.6563323754478483,left,probe,ambiguous-switch,-1,-10,left,left,0.23
HKS1998WRNO,2019-10-01-14-42-28,9,28,0.5392967572013981,left,both,ambiguous-switch,104,-10,left,left,0.257
HKS1998WRNO,2019-10-01-14-42-28,9,29,0.6100774704265005,right,probe,ambiguous-switch,-1,-30,left,left,0.222
HKS1998WRNO,2019-10-01-14-42-28,9,30,0.5353887048832231,right,both,ambiguous-switch,101,-30,left,left,0.217
HKS1998WRNO,2019-10-01-14-42-28,9,31,0.6651483575744715,left,probe,biased-switch,-1,30,left,left,0.258
HKS1998WRNO,2019-10-01-14-42-28,9,32,0.5246865448510624,left,both,biased-switch,100,30,left,left,0.205
HKS1998WRNO,2019-10-01-14-42-28,9,33,0.6538009767374116,left,probe,ambiguous-switch,-1,40,left,left,0.233
HKS1998WRNO,2019-10-01-14-42-28,9,34,0.6184322027120767,left,both,ambiguous-switch,92,40,left,left,0.241
HKS1998WRNO,2019-10-01-14-42-28,9,35,0.5987265428351071,left,probe,ambiguous-switch,-1,-20,left,left,0.236
HKS1998WRNO,2019-10-01-14-42-28,9,36,0.6378467609853191,left,both,ambiguous-switch,108,-20,left,left,0.221
HKS1998WRNO,2019-10-01-14-42-28,9,37,0.6905045875700995,left,probe,biased-switch,-1,-30,left,left,0.216
HKS1998WRNO,2019-10-01-14-42-28,9,38,0.6229805616212257,left,both,biased-switch,107,-30,left,left,0.233
HKS1998WRNO,2019-10-01-14-42-28,9,39,0.5667503160528065,right,probe,biased-switch,-1,5,left,left,0.232
HKS1998WRNO,2019-10-01-14-42-28,9,40,0.6280601921958823,right,both,biased-switch,101,5,left,right,0.234
HKS1998WRNO,2019-10-01-14-42-28,9,41,0.5749503726914924,left,probe,ambiguous-switch,-1,10,left,left,0.217
HKS1998WRNO,2019-10-01-14-42-28,9,42,0.508409680444877,left,both,ambiguous-switch,92,10,left,right,0.247
HKS1998WRNO,2019-10-01-14-42-28,9,43,0.6175348990408858,right,probe,biased-switch,-1,-5,left,left,0.291
HKS1998WRNO,2019-10-01-14-42-28,9,44,0.6090349217117393,right,both,biased-switch,94,-5,left,right,0.222
HKS1998WRNO,2019-10-01-14-42-28,9,45,0.6769662670410712,right,probe,ambiguous-switch,-1,0,left,left,0.21
HKS1998WRNO,2019-10-01-14-42-28,9,46,0.6178515008021651,right,both,ambiguous-switch,110,0,left,left,0.193
HKS1998WRNO,2019-10-01-14-42-28,9,47,0.6130930202460764,left,probe,biased-switch,-1,0,left,left,0.244
HKS1998WRNO,2019-10-01-14-42-28,9,48,0.5120522415455178,left,both,biased-switch,91,0,left,right,0.2
HKS1998WRNO,2019-10-01-14-42-28,9,49,0.5369792429011246,left,probe,biased-switch,-1,-10,left,left,0.137
HKS1998WRNO,2019-10-01-14-42-28,9,50,0.5354212507858974,left,both,biased-switch,104,-10,left,left,0.215
HKS1998WRNO,2019-10-01-14-42-28,9,51,0.686540091330698,left,probe,biased-switch,-1,-20,left,left,0.242
HKS1998WRNO,2019-10-01-14-42-28,9,52,0.5650064240360536,left,both,biased-switch,103,-20,left,left,0.254
HKS1998WRNO,2019-10-01-14-42-28,9,53,0.6773682457146316,left,probe,ambiguous-switch,-1,5,left,left,0.265
HKS1998WRNO,2019-10-01-14-42-28,9,54,0.6743433586029645,left,both,ambiguous-switch,110,5,left,right,0.294
HKS1998WRNO,2019-10-01-14-42-28,9,55,0.6515811997377083,right,probe,biased-switch,-1,20,left,left,0.175
HKS1998WRNO,2019-10-01-14-42-28,9,56,0.5279778064867643,right,both,biased-switch,100,20,left,right,0.235
HKS1998WRNO,2019-10-01-14-42-28,9,57,0.6690046879147512,right,probe,biased-switch,-1,40,left,left,0.177
HKS1998WRNO,2019-10-01-14-42-28,9,58,0.6530579310345763,right,both,biased-switch,106,40,left,right,0.125
HKS1998WRNO,2019-10-01-14-42-28,9,59,0.543947583728897,left,probe,ambiguous-switch,-1,30,left,left,0.177
HKS1998WRNO,2019-10-01-14-42-28,9,60,0.5834703493449767,left,both,ambiguous-switch,109,30,left,left,0.151
HKS1998WRNO,2019-10-01-14-42-28,9,61,0.5246363124896178,left,probe,biased-switch,-1,10,left,left,0.264
HKS1998WRNO,2019-10-01-14-42-28,9,62,0.6072437122319894,left,both,biased-switch,105,10,left,right,0.232
HKS1998WRNO,2019-10-01-14-42-28,9,63,0.5779956546837169,right,probe,ambiguous-switch,-1,20,left,left,0.23
HKS1998WRNO,2019-10-01-14-42-28,9,64,0.5910775966235408,right,both,ambiguous-switch,91,20,left,right,0.241
HKS1998WRNO,2019-10-01-14-42-28,9,65,0.6307043276926998,right,probe,ambiguous-switch,-1,-5,right,right,0.307
HKS1998WRNO,2019-10-01-14-42-28,9,66,0.586692598867351,right,both,ambiguous-switch,104,-5,right,right,0.259
HKS1998WRNO,2019-10-01-14-42-28,9,67,0.6604254280462043,right,probe,ambiguous-switch,-1,-10,right,right,0.219
HKS1998WRNO,2019-10-01-14-42-28,9,68,0.5247234812703169,right,both,ambiguous-switch,105,-10,right,right,0.237
HKS1998WRNO,2019-10-01-14-42-28,9,69,0.5907120023982694,left,probe,ambiguous-switch,-1,-30,right,right,0.206
HKS1998WRNO,2019-10-01-14-42-28,9,70,0.5187953090007107,left,both,ambiguous-switch,107,-30,right,right,0.188
HKS1998WRNO,2019-10-01-14-42-28,9,71,0.6391617594548245,right,probe,biased-switch,-1,30,right,right,0.196
HKS1998WRNO,2019-10-01-14-42-28,9,72,0.6877243623639733,right,both,biased-switch,94,30,right,right,0.193
HKS1998WRNO,2019-10-01-14-42-28,9,73,0.5569107801042688,right,probe,ambiguous-switch,-1,40,right,right,0.192
HKS1998WRNO,2019-10-01-14-42-28,9,74,0.5985726289795039,right,both,ambiguous-switch,108,40,right,right,0.178
HKS1998WRNO,2019-10-01-14-42-28,9,75,0.6129174787950564,right,probe,ambiguous-switch,-1,-20,right,right,0.199
HKS1998WRNO,2019-10-01-14-42-28,9,76,0.673855992360102,right,both,ambiguous-switch,108,-20,right,right,0.196
HKS1998WRNO,2019-10-01-14-42-28,9,77,0.5295224256799538,right,probe,biased-switch,-1,-30,right,right,0.201
HKS1998WRNO,2019-10-01-14-42-28,9,78,0.5150991487352824,right,both,biased-switch,101,-30,right,right,0.222
HKS1998WRNO,2019-10-01-14-42-28,9,79,0.505108665653674,right,probe,biased-switch,-1,5,right,right,0.217
HKS1998WRNO,2019-10-01-14-42-28,9,80,0.6882370479786224,right,both,biased-switch,93,5,right,left,0.207
HKS1998WRNO,2019-10-01-14-42-28,10,1,0.6091107311574253,left,probe,biased-switch,-1,10,right,right,0.251
HKS1998WRNO,2019-10-01-14-42-28,10,2,0.6478685003201339,left,both,biased-switch,106,10,right,left,0.191
HKS1998WRNO,2019-10-01-14-42-28,10,3,0.6639694461120915,right,probe,biased-switch,-1,-5,right,right,0.192
HKS1998WRNO,2019-10-01-14-42-28,10,4,0.6791302239061843,right,both,biased-switch,103,-5,right,right,0.223
HKS1998WRNO,2019-10-01-14-42-28,10,5,0.6098436942265533,right,probe,biased-switch,-1,-10,right,right,0.198
HKS1998WRNO,2019-10-01-14-42-28,10,6,0.5897612010311941,right,both,biased-switch,94,-10,right,right,0.074
HKS1998WRNO,2019-10-01-14-42-28,10,7,0.6457001153743761,left,probe,ambiguous-switch,-1,-30,right,right,0.185
HKS1998WRNO,2019-10-01-14-42-28,10,8,0.6998814581711676,left,both,ambiguous-switch,108,-30,right,right,0.192
HKS1998WRNO,2019-10-01-14-42-28,10,9,0.600468136854373,left,probe,biased-switch,-1,5,right,right,0.181
HKS1998WRNO,2019-10-01-14-42-28,10,10,0.6219072113224037,left,both,biased-switch,102,5,right,left,0.229
HKS1998WRNO,2019-10-01-14-42-28,10,11,0.6514401265715322,left,probe,ambiguous-switch,-1,-20,right,right,0.168
HKS1998WRNO,2019-10-01-14-42-28,10,12,0.6866887620961046,left,both,ambiguous-switch,97,-20,right,right,0.208
HKS1998WRNO,2019-10-01-14-42-28,10,13,0.6891960483651177,right,probe,biased-switch,-1,20,right,right,0.197
HKS1998WRNO,2019-10-01-14-42-28,10,14,0.5566865566696177,right,both,biased-switch,95,20,right,right,0.124
HKS1998WRNO,2019-10-01-14-42-28,10,15,0.5424565342375582,left,probe,ambiguous-switch,-1,10,right,right,0.228
HKS1998WRNO,2019-10-01-14-42-28,10,16,0.5839997695811481,left,both,ambiguous-switch,97,10,right,left,0.186
HKS1998WRNO,2019-10-01-14-42-28,10,17,0.6321981757921209,left,probe,biased-switch,-1,0,right,right,0.111
HKS1998WRNO,2019-10-01-14-42-28,10,18,0.6150075909821999,left,both,biased-switch,95,0,right,left,0.26
HKS1998WRNO,2019-10-01-14-42-28,10,19,0.6855984786771007,right,probe,biased-switch,-1,-20,right,right,0.214
HKS1998WRNO,2019-10-01-14-42-28,10,20,0.6015315200842182,right,both,biased-switch,91,-20,right,right,0.279
HKS1998WRNO,2019-10-01-14-42-28,10,21,0.640272456694348,left,probe,ambiguous-switch,-1,5,left,left,0.14
HKS1998WRNO,2019-10-01-14-42-28,10,22,0.6775849613889167,left,both,ambiguous-switch,97,5,left,right,0.214
HKS1998WRNO,2019-10-01-14-42-28,10,23,0.6750141052930432,right,probe,ambiguous-switch,-1,-5,right,right,0.218
HKS1998WRNO,2019-10-01-14-42-28,10,24,0.6253615429265751,right,both,ambiguous-switch,92,-5,right,right,0.227
HKS1998WRNO,2019-10-01-14-42-28,10,25,0.5937091412241638,right,probe,ambiguous-switch,-1,30,right,right,0.235
HKS1998WRNO,2019-10-01-14-42-28,10,26,0.6866763709230221,right,both,ambiguous-switch,108,30,right,right,0.207
HKS1998WRNO,2019-10-01-14-42-28,10,27,0.6137912470448078,left,probe,ambiguous-switch,-1,-10,right,right,0.227
HKS1998WRNO,2019-10-01-14-42-28,10,28,0.5303993996270668,left,both,ambiguous-switch,110,-10,right,right,0.258
HKS1998WRNO,2019-10-01-14-42-28,10,29,0.6223124017198381,right,probe,ambiguous-switch,-1,40,right,right,0.229
HKS1998WRNO,2019-10-01-14-42-28,10,30,0.6767723513462279,right,both,ambiguous-switch,98,40,right,right,0.21
HKS1998WRNO,2019-10-01-14-42-28,10,31,0.5753473159722945,right,probe,biased-switch,-1,40,right,right,0.228
HKS1998WRNO,2019-10-01-14-42-28,10,32,0.567516021139659,right,both,biased-switch,102,40,right,right,0.211
HKS1998WRNO,2019-10-01-14-42-28,10,33,0.6290144468867621,right,probe,biased-switch,-1,30,right,right,0.219
HKS1998WRNO,2019-10-01-14-42-28,10,34,0.6275153399520569,right,both,biased-switch,104,30,right,right,0.215
HKS1998WRNO,2019-10-01-14-42-28,10,35,0.5519334526097809,left,probe,ambiguous-switch,-1,20,right,right,0.217
HKS1998WRNO,2019-10-01-14-42-28,10,36,0.694466061424314,left,both,ambiguous-switch,97,20,right,left,0.253
HKS1998WRNO,2019-10-01-14-42-28,10,37,0.6035486003884623,right,probe,ambiguous-switch,-1,0,right,right,0.247
HKS1998WRNO,2019-10-01-14-42-28,10,38,0.5995805301802034,right,both,ambiguous-switch,100,0,right,right,0.234
HKS1998WRNO,2019-10-01-14-42-28,10,39,0.6498884923863217,left,probe,biased-switch,-1,-30,left,left,0.194
HKS1998WRNO,2019-10-01-14-42-28,10,40,0.6443964553999428,left,both,biased-switch,108,-30,left,right,0.203
HKS1998WRNO,2019-10-01-14-42-28,10,41,0.5204686998096858,right,probe,biased-switch,-1,10,right,right,0.232
HKS1998WRNO,2019-10-01-14-42-28,10,42,0.5162536680243061,right,both,biased-switch,105,10,right,left,0.211
HKS1998WRNO,2019-10-01-14-42-28,10,43,0.6912898225433963,right,probe,biased-switch,-1,-5,right,right,0.184
HKS1998WRNO,2019-10-01-14-42-28,10,44,0.5075576433607113,right,both,biased-switch,104,-5,right,left,0.21
HKS1998WRNO,2019-10-01-14-42-28,10,45,0.6086303417951309,right,probe,biased-switch,-1,-10,right,right,0.205
HKS1998WRNO,2019-10-01-14-42-28,10,46,0.5223572791641392,right,both,biased-switch,109,-10,right,right,0.249
HKS1998WRNO,2019-10-01-14-42-28,10,47,0.5269416606069279,right,probe,ambiguous-switch,-1,-30,right,right,0.283
HKS1998WRNO,2019-10-01-14-42-28,10,48,0.6543752288368796,right,both,ambiguous-switch,100,-30,right,right,0.184
HKS1998WRNO,2019-10-01-14-42-28,10,49,0.5019143521381056,left,probe,biased-switch,-1,5,right,right,0.172
HKS1998WRNO,2019-10-01-14-42-28,10,50,0.6438045463513262,left,both,biased-switch,105,5,right,left,0.244
HKS1998WRNO,2019-10-01-14-42-28,10,51,0.5940101616183828,right,probe,ambiguous-switch,-1,-20,right,right,0.198
HKS1998WRNO,2019-10-01-14-42-28,10,52,0.6338700428892146,right,both,ambiguous-switch,109,-20,right,right,0.212
HKS1998WRNO,2019-10-01-14-42-28,10,53,0.5404831929994239,left,probe,biased-switch,-1,20,right,right,0.199
HKS1998WRNO,2019-10-01-14-42-28,10,54,0.6477348225767207,left,both,biased-switch,104,20,right,left,0.191
HKS1998WRNO,2019-10-01-14-42-28,10,55,0.6720242854642988,right,probe,ambiguous-switch,-1,10,right,right,0.195
HKS1998WRNO,2019-10-01-14-42-28,10,56,0.6936437499167901,right,both,ambiguous-switch,106,10,right,left,0.181
HKS1998WRNO,2019-10-01-14-42-28,10,57,0.6830590597924946,right,probe,biased-switch,-1,0,right,right,0.199
HKS1998WRNO,2019-10-01-14-42-28,10,58,0.5446939936331878,right,both,biased-switch,91,0,right,left,0.263
HKS1998WRNO,2019-10-01-14-42-28,10,59,0.6544042579464537,left,probe,biased-switch,-1,-20,right,right,0.137
HKS1998WRNO,2019-10-01-14-42-28,10,60,0.5753901331971567,left,both,biased-switch,96,-20,right,right,0.03
HKS1998WRNO,2019-10-01-14-42-28,10,61,0.5397066788224514,left,probe,ambiguous-switch,-1,5,right,right,0.25
HKS1998WRNO,2019-10-01-14-42-28,10,62,0.5361166081075511,left,both,ambiguous-switch,105,5,right,left,0.206
HKS1998WRNO,2019-10-01-14-42-28,10,63,0.5177507317220963,right,probe,ambiguous-switch,-1,-5,right,right,0.184
HKS1998WRNO,2019-10-01-14-42-28,10,64,0.5822986007097561,right,both,ambiguous-switch,92,-5,right,left,0.189
HKS1998WRNO,2019-10-01-14-42-28,10,65,0.5007938793793217,right,probe,ambiguous-switch,-1,30,right,right,0.184
HKS1998WRNO,2019-10-01-14-42-28,10,66,0.589724691223667,right,both,ambiguous-switch,108,30,right,left,0.193
HKS1998WRNO,2019-10-01-14-42-28,10,67,0.5217534748390127,right,probe,ambiguous-switch,-1,-10,right,right,0.217
HKS1998WRNO,2019-10-01-14-42-28,10,68,0.6722692887318613,right,both,ambiguous-switch,104,-10,right,right,0.192
HKS1998WRNO,2019-10-01-14-42-28,10,69,0.5335270026957131,right,probe,ambiguous-switch,-1,40,right,right,0.177
HKS1998WRNO,2019-10-01-14-42-28,10,70,0.5619167719713232,right,both,ambiguous-switch,102,40,right,right,0.202
HKS1998WRNO,2019-10-01-14-42-28,10,71,0.6910628440797725,right,probe,biased-switch,-1,40,right,right,0.185
HKS1998WRNO,2019-10-01-14-42-28,10,72,0.6936920167502428,right,both,biased-switch,110,40,right,left,0.194
HKS1998WRNO,2019-10-01-14-42-28,10,73,0.5740813595666473,right,probe,biased-switch,-1,30,right,right,0.19
HKS1998WRNO,2019-10-01-14-42-28,10,74,0.6352824131746437,right,both,biased-switch,94,30,right,left,0.21
HKS1998WRNO,2019-10-01-14-42-28,10,75,0.6443471519822123,right,probe,ambiguous-switch,-1,20,left,left,0.266
HKS1998WRNO,2019-10-01-14-42-28,10,76,0.5754287315821973,right,both,ambiguous-switch,101,20,left,right,0.205
HKS1998WRNO,2019-10-01-14-42-28,10,77,0.5520766040786931,left,probe,ambiguous-switch,-1,0,right,right,0.179
HKS1998WRNO,2019-10-01-14-42-28,10,78,0.5695353061058486,left,both,ambiguous-switch,109,0,right,right,0.279
HKS1998WRNO,2019-10-01-14-42-28,10,79,0.5193377010978024,right,probe,biased-switch,-1,-30,right,right,0.226
HKS1998WRNO,2019-10-01-14-42-28,10,80,0.6421809667115885,right,both,biased-switch,93,-30,right,right,0.181
