Participant,Session,Block,Trial,OnsetDelay,ProbeLocation,WhatIsReported,Condition,TriggerTime,ProbeSOA,PrimeDirection,Response,RT
MME2000MRNO,2019-10-15-13-01-19,1,1,0.5762362705150492,right,probe,biased-switch,-1,40,right,right,0.354
MME2000MRNO,2019-10-15-13-01-19,1,2,0.5109563463797205,right,both,biased-switch,93,40,right,right,0.169
MME2000MRNO,2019-10-15-13-01-19,1,3,0.569663152027153,left,probe,ambiguous-switch,-1,10,right,right,0.12
MME2000MRNO,2019-10-15-13-01-19,1,4,0.5451261900721179,left,both,ambiguous-switch,107,10,right,left,0.183
MME2000MRNO,2019-10-15-13-01-19,1,5,0.6223684556804546,left,probe,biased-switch,-1,5,right,right,0.166
MME2000MRNO,2019-10-15-13-01-19,1,6,0.5730851618790508,left,both,biased-switch,96,5,right,left,0.176
MME2000MRNO,2019-10-15-13-01-19,1,7,0.5209097284651906,left,probe,ambiguous-switch,-1,0,left,left,0.168
MME2000MRNO,2019-10-15-13-01-19,1,8,0.6148216209252733,left,both,ambiguous-switch,97,0,left,left,0.146
MME2000MRNO,2019-10-15-13-01-19,1,9,0.5933183577591743,left,probe,ambiguous-switch,-1,-5,left,left,0.209
MME2000MRNO,2019-10-15-13-01-19,1,10,0.5942825711437635,left,both,ambiguous-switch,101,-5,left,left,0.161
MME2000MRNO,2019-10-15-13-01-19,1,11,0.6408283133115364,right,probe,ambiguous-switch,-1,40,left,left,0.089
MME2000MRNO,2019-10-15-13-01-19,1,12,0.553832757076033,right,both,ambiguous-switch,97,40,left,left,0.115
MME2000MRNO,2019-10-15-13-01-19,1,13,0.5028663535588179,left,probe,ambiguous-switch,-1,5,left,left,0.21
MME2000MRNO,2019-10-15-13-01-19,1,14,0.5141688955012479,left,both,ambiguous-switch,102,5,left,left,0.165
MME2000MRNO,2019-10-15-13-01-19,1,15,0.5348801533116716,left,probe,biased-switch,-1,30,left,left,0.154
MME2000MRNO,2019-10-15-13-01-19,1,16,0.6265255257322255,left,both,biased-switch,91,30,left,right,0.05
MME2000MRNO,2019-10-15-13-01-19,1,17,0.6206329846033384,right,probe,biased-switch,-1,20,right,right,0.125
MME2000MRNO,2019-10-15-13-01-19,1,18,0.684795745156012,right,both,biased-switch,92,20,right,left,0.199
MME2000MRNO,2019-10-15-13-01-19,1,19,0.6607113981471129,right,probe,biased-switch,-1,-5,left,left,0.172
MME2000MRNO,2019-10-15-13-01-19,1,20,0.6404347306390805,right,both,biased-switch,103,-5,left,left,0.179
MME2000MRNO,2019-10-15-13-01-19,1,21,0.5454855627070402,right,probe,ambiguous-switch,-1,30,left,left,0.088
MME2000MRNO,2019-10-15-13-01-19,1,22,0.5739940287834309,right,both,ambiguous-switch,93,30,left,left,0.143
MME2000MRNO,2019-10-15-13-01-19,1,23,0.5260639139378983,right,probe,ambiguous-switch,-1,20,left,left,0.171
MME2000MRNO,2019-10-15-13-01-19,1,24,0.6097112651617599,right,both,ambiguous-switch,102,20,left,left,0.19
MME2000MRNO,2019-10-15-13-01-19,1,25,0.5695030042288843,right,probe,biased-switch,-1,-20,left,left,0.088
MME2000MRNO,2019-10-15-13-01-19,1,26,0.645132423232873,right,both,biased-switch,104,-20,left,left,0.225
MME2000MRNO,2019-10-15-13-01-19,1,27,0.5883887135796522,right,probe,ambiguous-switch,-1,-30,left,left,0.177
MME2000MRNO,2019-10-15-13-01-19,1,28,0.6140066198921496,right,both,ambiguous-switch,108,-30,left,left,0.185
MME2000MRNO,2019-10-15-13-01-19,1,29,0.5615947189316782,left,probe,biased-switch,-1,-10,left,left,0.103
MME2000MRNO,2019-10-15-13-01-19,1,30,0.6149308879106392,left,both,biased-switch,93,-10,left,left,0.161
MME2000MRNO,2019-10-15-13-01-19,1,31,0.521908640183879,right,probe,ambiguous-switch,-1,-10,left,left,0.253
MME2000MRNO,2019-10-15-13-01-19,1,32,0.6727932364038026,right,both,ambiguous-switch,104,-10,left,left,0.17
MME2000MRNO,2019-10-15-13-01-19,1,33,0.6781372260950803,left,probe,biased-switch,-1,-30,left,left,0.381
MME2000MRNO,2019-10-15-13-01-19,1,34,0.5292214293613346,left,both,biased-switch,91,-30,left,left,0.335
MME2000MRNO,2019-10-15-13-01-19,1,35,0.6752972098480897,right,probe,ambiguous-switch,-1,-20,left,left,0.211
MME2000MRNO,2019-10-15-13-01-19,1,36,0.5396294911820738,right,both,ambiguous-switch,91,-20,left,left,0.177
MME2000MRNO,2019-10-15-13-01-19,1,37,0.69084183734833,left,probe,biased-switch,-1,0,left,left,0.124
MME2000MRNO,2019-10-15-13-01-19,1,38,0.5103322384469638,left,both,biased-switch,93,0,left,right,0.198
MME2000MRNO,2019-10-15-13-01-19,1,39,0.6644095984811669,left,probe,biased-switch,-1,10,left,left,0.2
MME2000MRNO,2019-10-15-13-01-19,1,40,0.5877578666803579,left,both,biased-switch,101,10,left,right,0.178
MME2000MRNO,2019-10-15-13-01-19,1,41,0.5298512718247665,right,probe,biased-switch,-1,40,left,left,0.175
MME2000MRNO,2019-10-15-13-01-19,1,42,0.5979332768278253,right,both,biased-switch,93,40,left,left,0.11
MME2000MRNO,2019-10-15-13-01-19,1,43,0.552707777138412,left,probe,ambiguous-switch,-1,10,left,left,0.177
MME2000MRNO,2019-10-15-13-01-19,1,44,0.6592930024842308,left,both,ambiguous-switch,96,10,left,left,0.167
MME2000MRNO,2019-10-15-13-01-19,1,45,0.6008339120942816,right,probe,biased-switch,-1,5,left,left,0.152
MME2000MRNO,2019-10-15-13-01-19,1,46,0.6428122829957224,right,both,biased-switch,95,5,left,right,0.171
MME2000MRNO,2019-10-15-13-01-19,1,47,0.5069460422426212,right,probe,ambiguous-switch,-1,0,left,left,0.086
MME2000MRNO,2019-10-15-13-01-19,1,48,0.6531833048205608,right,both,ambiguous-switch,98,0,left,left,0.168
MME2000MRNO,2019-10-15-13-01-19,1,49,0.5038292124250144,left,probe,ambiguous-switch,-1,-5,left,left,0.207
MME2000MRNO,2019-10-15-13-01-19,1,50,0.6991068317230222,left,both,ambiguous-switch,97,-5,left,left,0.188
MME2000MRNO,2019-10-15-13-01-19,1,51,0.5197478113460237,left,probe,ambiguous-switch,-1,40,left,left,0.174
MME2000MRNO,2019-10-15-13-01-19,1,52,0.6870979605197006,left,both,ambiguous-switch,102,40,left,left,0.202
MME2000MRNO,2019-10-15-13-01-19,1,53,0.5648808966658867,right,probe,ambiguous-switch,-1,5,left,left,0.238
MME2000MRNO,2019-10-15-13-01-19,1,54,0.5433390412378628,right,both,ambiguous-switch,91,5,left,left,0.206
MME2000MRNO,2019-10-15-13-01-19,1,55,0.6405752786548222,right,probe,biased-switch,-1,30,left,left,0.145
MME2000MRNO,2019-10-15-13-01-19,1,56,0.5970565191820337,right,both,biased-switch,94,30,left,left,0.186
MME2000MRNO,2019-10-15-13-01-19,1,57,0.6838607966808696,left,probe,biased-switch,-1,20,left,left,0.124
MME2000MRNO,2019-10-15-13-01-19,1,58,0.5432077455605306,left,both,biased-switch,103,20,left,right,0.225
MME2000MRNO,2019-10-15-13-01-19,1,59,0.5336692841369456,right,probe,biased-switch,-1,-5,left,left,0.173
MME2000MRNO,2019-10-15-13-01-19,1,60,0.5340765168503254,right,both,biased-switch,97,-5,left,left,0.114
MME2000MRNO,2019-10-15-13-01-19,1,61,0.6491765964702936,right,probe,ambiguous-switch,-1,30,left,left,0.169
MME2000MRNO,2019-10-15-13-01-19,1,62,0.6050898182129906,right,both,ambiguous-switch,96,30,left,left,0.121
MME2000MRNO,2019-10-15-13-01-19,1,63,0.6655702023659662,left,probe,ambiguous-switch,-1,20,left,left,0.062
MME2000MRNO,2019-10-15-13-01-19,1,64,0.5639834062040778,left,both,ambiguous-switch,102,20,left,right,0.171
MME2000MRNO,2019-10-15-13-01-19,1,65,0.637643385660652,right,probe,biased-switch,-1,-20,left,left,0.193
MME2000MRNO,2019-10-15-13-01-19,1,66,0.532493002460995,right,both,biased-switch,106,-20,left,left,0.203
MME2000MRNO,2019-10-15-13-01-19,1,67,0.5030902049696433,left,probe,ambiguous-switch,-1,-30,left,left,0.135
MME2000MRNO,2019-10-15-13-01-19,1,68,0.6028020134168565,left,both,ambiguous-switch,92,-30,left,left,0.177
MME2000MRNO,2019-10-15-13-01-19,1,69,0.6392995607114876,right,probe,biased-switch,-1,-10,left,left,0.176
MME2000MRNO,2019-10-15-13-01-19,1,70,0.6783382469973346,right,both,biased-switch,96,-10,left,left,0.242
MME2000MRNO,2019-10-15-13-01-19,1,71,0.6989248633207492,right,probe,ambiguous-switch,-1,-10,left,left,0.173
MME2000MRNO,2019-10-15-13-01-19,1,72,0.6721527448001929,right,both,ambiguous-switch,101,-10,left,right,0.242
MME2000MRNO,2019-10-15-13-01-19,1,73,0.5032615467105117,left,probe,biased-switch,-1,-30,left,left,0.19
MME2000MRNO,2019-10-15-13-01-19,1,74,0.5880236945214977,left,both,biased-switch,105,-30,left,left,0.194
MME2000MRNO,2019-10-15-13-01-19,1,75,0.610674086000269,left,probe,ambiguous-switch,-1,-20,left,left,0.046
MME2000MRNO,2019-10-15-13-01-19,1,76,0.522842003971755,left,both,ambiguous-switch,104,-20,left,left,0.159
MME2000MRNO,2019-10-15-13-01-19,1,77,0.5773223918629253,left,probe,biased-switch,-1,0,left,left,0.052
MME2000MRNO,2019-10-15-13-01-19,1,78,0.5196519865375026,left,both,biased-switch,96,0,left,left,0.155
MME2000MRNO,2019-10-15-13-01-19,1,79,0.5428542247520219,left,probe,biased-switch,-1,10,left,left,0.195
MME2000MRNO,2019-10-15-13-01-19,1,80,0.5877272682061937,left,both,biased-switch,90,10,left,right,0.177
MME2000MRNO,2019-10-15-13-01-19,2,1,0.5435307568021738,left,probe,biased-switch,-1,-30,right,right,0.164
MME2000MRNO,2019-10-15-13-01-19,2,2,0.6280171029762112,left,both,biased-switch,102,-30,right,right,0.135
MME2000MRNO,2019-10-15-13-01-19,2,3,0.571183345023896,right,probe,biased-switch,-1,30,right,right,0.153
MME2000MRNO,2019-10-15-13-01-19,2,4,0.5108234091195076,right,both,biased-switch,107,30,right,left,0.17
MME2000MRNO,2019-10-15-13-01-19,2,5,0.525548944316551,right,probe,biased-switch,-1,-10,left,left,1.854
MME2000MRNO,2019-10-15-13-01-19,2,6,0.6684907703729457,right,both,biased-switch,92,-10,left,right,0.16
MME2000MRNO,2019-10-15-13-01-19,2,7,0.6382033158344276,right,probe,ambiguous-switch,-1,40,right,right,0.067
MME2000MRNO,2019-10-15-13-01-19,2,8,0.6717549943781942,right,both,ambiguous-switch,94,40,right,left,0.173
MME2000MRNO,2019-10-15-13-01-19,2,9,0.5111799044507932,left,probe,biased-switch,-1,-5,right,right,0.123
MME2000MRNO,2019-10-15-13-01-19,2,10,0.5569191151057091,left,both,biased-switch,91,-5,right,right,0.106
MME2000MRNO,2019-10-15-13-01-19,2,11,0.5294525856281438,left,probe,biased-switch,-1,20,right,right,0.129
MME2000MRNO,2019-10-15-13-01-19,2,12,0.6885659249731716,left,both,biased-switch,106,20,right,left,0.175
MME2000MRNO,2019-10-15-13-01-19,2,13,0.6761431319678198,right,probe,biased-switch,-1,40,right,right,0.17
MME2000MRNO,2019-10-15-13-01-19,2,14,0.5600662575517977,right,both,biased-switch,101,40,right,left,0.277
MME2000MRNO,2019-10-15-13-01-19,2,15,0.640416603389006,right,probe,biased-switch,-1,5,left,left,0.201
MME2000MRNO,2019-10-15-13-01-19,2,16,0.6637353953609879,right,both,biased-switch,91,5,left,right,0.215
MME2000MRNO,2019-10-15-13-01-19,2,17,0.5840437633752324,left,probe,biased-switch,-1,0,right,right,0.165
MME2000MRNO,2019-10-15-13-01-19,2,18,0.6699082262591315,left,both,biased-switch,96,0,right,right,0.227
MME2000MRNO,2019-10-15-13-01-19,2,19,0.6480164677729434,right,probe,ambiguous-switch,-1,-30,right,right,0.187
MME2000MRNO,2019-10-15-13-01-19,2,20,0.5290664962334448,right,both,ambiguous-switch,93,-30,right,right,0.215
MME2000MRNO,2019-10-15-13-01-19,2,21,0.5045084846185801,right,probe,ambiguous-switch,-1,10,right,right,0.22
MME2000MRNO,2019-10-15-13-01-19,2,22,0.5798688844617611,right,both,ambiguous-switch,92,10,right,left,0.174
MME2000MRNO,2019-10-15-13-01-19,2,23,0.6924884690778458,left,probe,biased-switch,-1,-20,right,right,0.217
MME2000MRNO,2019-10-15-13-01-19,2,24,0.6565885483184495,left,both,biased-switch,97,-20,right,right,0.163
MME2000MRNO,2019-10-15-13-01-19,2,25,0.6478980844508246,right,probe,ambiguous-switch,-1,30,right,right,0.178
MME2000MRNO,2019-10-15-13-01-19,2,26,0.5043390745771468,right,both,ambiguous-switch,107,30,right,right,0.183
MME2000MRNO,2019-10-15-13-01-19,2,27,0.6377184436916417,left,probe,ambiguous-switch,-1,20,right,right,0.148
MME2000MRNO,2019-10-15-13-01-19,2,28,0.5996418618131386,left,both,ambiguous-switch,96,20,right,right,0.152
MME2000MRNO,2019-10-15-13-01-19,2,29,0.670044411499294,left,probe,ambiguous-switch,-1,-10,right,right,0.105
MME2000MRNO,2019-10-15-13-01-19,2,30,0.6384819404726613,left,both,ambiguous-switch,91,-10,right,right,0.034
MME2000MRNO,2019-10-15-13-01-19,2,31,0.5848204609241563,left,probe,ambiguous-switch,-1,5,right,right,0.147
MME2000MRNO,2019-10-15-13-01-19,2,32,0.6760087468726851,left,both,ambiguous-switch,100,5,right,right,0.055
MME2000MRNO,2019-10-15-13-01-19,2,33,0.6360434621023425,right,probe,biased-switch,-1,10,right,right,0.161
MME2000MRNO,2019-10-15-13-01-19,2,34,0.5815607337387416,right,both,biased-switch,99,10,right,left,0.188
MME2000MRNO,2019-10-15-13-01-19,2,35,0.594438191841441,left,probe,ambiguous-switch,-1,0,right,right,0.167
MME2000MRNO,2019-10-15-13-01-19,2,36,0.6319510054746653,left,both,ambiguous-switch,99,0,right,right,0.146
MME2000MRNO,2019-10-15-13-01-19,2,37,0.6325648875147748,left,probe,ambiguous-switch,-1,-20,right,right,0.063
MME2000MRNO,2019-10-15-13-01-19,2,38,0.5015658014610811,left,both,ambiguous-switch,104,-20,right,right,0.109
MME2000MRNO,2019-10-15-13-01-19,2,39,0.6111431383399039,left,probe,ambiguous-switch,-1,-5,right,right,0.041
MME2000MRNO,2019-10-15-13-01-19,2,40,0.56528305921906,left,both,ambiguous-switch,108,-5,right,right,0.178
MME2000MRNO,2019-10-15-13-01-19,2,41,0.5122745953094332,left,probe,biased-switch,-1,-30,right,right,0.067
MME2000MRNO,2019-10-15-13-01-19,2,42,0.5399388115218179,left,both,biased-switch,109,-30,right,right,0.18
MME2000MRNO,2019-10-15-13-01-19,2,43,0.5273464230565528,left,probe,biased-switch,-1,30,right,right,0.088
MME2000MRNO,2019-10-15-13-01-19,2,44,0.6408446616459507,left,both,biased-switch,104,30,right,right,0.156
MME2000MRNO,2019-10-15-13-01-19,2,45,0.5573179431622226,right,probe,biased-switch,-1,-10,right,right,0.12
MME2000MRNO,2019-10-15-13-01-19,2,46,0.5764016436531432,right,both,biased-switch,96,-10,right,right,0.133
MME2000MRNO,2019-10-15-13-01-19,2,47,0.5395749321915926,left,probe,ambiguous-switch,-1,40,right,right,0.096
MME2000MRNO,2019-10-15-13-01-19,2,48,0.5895223592812509,left,both,ambiguous-switch,108,40,right,right,0.008
MME2000MRNO,2019-10-15-13-01-19,2,49,0.5385016350079532,left,probe,biased-switch,-1,-5,right,right,0.144
MME2000MRNO,2019-10-15-13-01-19,2,50,0.5018766430728882,left,both,biased-switch,101,-5,right,right,0.166
MME2000MRNO,2019-10-15-13-01-19,2,51,0.6763746146608909,left,probe,biased-switch,-1,20,right,right,0.086
MME2000MRNO,2019-10-15-13-01-19,2,52,0.6955473167679962,left,both,biased-switch,107,20,right,right,0.184
MME2000MRNO,2019-10-15-13-01-19,2,53,0.6815786017603263,left,probe,biased-switch,-1,40,right,right,0.175
MME2000MRNO,2019-10-15-13-01-19,2,54,0.5263348414562786,left,both,biased-switch,93,40,right,right,0.034
MME2000MRNO,2019-10-15-13-01-19,2,55,0.5648728544292916,right,probe,biased-switch,-1,5,right,right,0.106
MME2000MRNO,2019-10-15-13-01-19,2,56,0.6313374362481513,right,both,biased-switch,95,5,right,left,0.196
MME2000MRNO,2019-10-15-13-01-19,2,57,0.6213219586885869,right,probe,biased-switch,-1,0,right,right,0.117
MME2000MRNO,2019-10-15-13-01-19,2,58,0.6707822192491586,right,both,biased-switch,109,0,right,left,0.215
MME2000MRNO,2019-10-15-13-01-19,2,59,0.5131536686450711,left,probe,ambiguous-switch,-1,-30,right,right,0.188
MME2000MRNO,2019-10-15-13-01-19,2,60,0.5164371756537579,left,both,ambiguous-switch,92,-30,right,right,0.19
MME2000MRNO,2019-10-15-13-01-19,2,61,0.6549145113539598,right,probe,ambiguous-switch,-1,10,right,right,0.162
MME2000MRNO,2019-10-15-13-01-19,2,62,0.6100973378619744,right,both,ambiguous-switch,103,10,right,right,0.169
MME2000MRNO,2019-10-15-13-01-19,2,63,0.5947600032263071,right,probe,biased-switch,-1,-20,right,right,0.199
MME2000MRNO,2019-10-15-13-01-19,2,64,0.6365689606590234,right,both,biased-switch,93,-20,right,right,0.188
MME2000MRNO,2019-10-15-13-01-19,2,65,0.6205080309997719,right,probe,ambiguous-switch,-1,30,right,right,0.112
MME2000MRNO,2019-10-15-13-01-19,2,66,0.5712439360059771,right,both,ambiguous-switch,98,30,right,left,0.095
MME2000MRNO,2019-10-15-13-01-19,2,67,0.6233714209805306,right,probe,ambiguous-switch,-1,20,left,left,0.223
MME2000MRNO,2019-10-15-13-01-19,2,68,0.5125345368956239,right,both,ambiguous-switch,106,20,left,left,0.167
MME2000MRNO,2019-10-15-13-01-19,2,69,0.6955977531460766,left,probe,ambiguous-switch,-1,-10,left,left,0.159
MME2000MRNO,2019-10-15-13-01-19,2,70,0.5543732089672677,left,both,ambiguous-switch,106,-10,left,right,0.15
MME2000MRNO,2019-10-15-13-01-19,2,71,0.5866968963920128,left,probe,ambiguous-switch,-1,5,right,right,0.121
MME2000MRNO,2019-10-15-13-01-19,2,72,0.6279817749464893,left,both,ambiguous-switch,107,5,right,left,0.119
MME2000MRNO,2019-10-15-13-01-19,2,73,0.5792803414786186,left,probe,biased-switch,-1,10,right,right,0.176
MME2000MRNO,2019-10-15-13-01-19,2,74,0.5963995369617322,left,both,biased-switch,105,10,right,left,0.165
MME2000MRNO,2019-10-15-13-01-19,2,75,0.6413868367679536,right,probe,ambiguous-switch,-1,0,right,right,0.249
MME2000MRNO,2019-10-15-13-01-19,2,76,0.5683440797768573,right,both,ambiguous-switch,94,0,right,right,0.153
MME2000MRNO,2019-10-15-13-01-19,2,77,0.5804099573016478,left,probe,ambiguous-switch,-1,-20,right,right,0.102
MME2000MRNO,2019-10-15-13-01-19,2,78,0.6065287345474503,left,both,ambiguous-switch,107,-20,right,right,0.25
MME2000MRNO,2019-10-15-13-01-19,2,79,0.513544076439617,left,probe,ambiguous-switch,-1,-5,right,right,1.077
MME2000MRNO,2019-10-15-13-01-19,2,80,0.6657052621601894,left,both,ambiguous-switch,106,-5,right,right,0.14
MME2000MRNO,2019-10-15-13-01-19,3,1,0.5285509731177939,left,probe,ambiguous-switch,-1,5,right,right,0.173
MME2000MRNO,2019-10-15-13-01-19,3,2,0.6367827333782702,left,both,ambiguous-switch,109,5,right,left,0.207
MME2000MRNO,2019-10-15-13-01-19,3,3,0.6888292878494868,right,probe,ambiguous-switch,-1,-5,right,right,0.189
MME2000MRNO,2019-10-15-13-01-19,3,4,0.5281702851420221,right,both,ambiguous-switch,90,-5,right,right,0.215
MME2000MRNO,2019-10-15-13-01-19,3,5,0.6076775890473575,right,probe,ambiguous-switch,-1,-20,right,right,0.189
MME2000MRNO,2019-10-15-13-01-19,3,6,0.6365859190446309,right,both,ambiguous-switch,98,-20,right,right,0.125
MME2000MRNO,2019-10-15-13-01-19,3,7,0.5816064920844114,right,probe,biased-switch,-1,-30,right,right,0.098
MME2000MRNO,2019-10-15-13-01-19,3,8,0.6045336101995742,right,both,biased-switch,92,-30,right,right,0.285
MME2000MRNO,2019-10-15-13-01-19,3,9,0.6955839331843954,left,probe,biased-switch,-1,-5,right,right,0.11
MME2000MRNO,2019-10-15-13-01-19,3,10,0.576861952358446,left,both,biased-switch,95,-5,right,left,0.145
MME2000MRNO,2019-10-15-13-01-19,3,11,0.5264218157767382,left,probe,ambiguous-switch,-1,40,left,left,0.138
MME2000MRNO,2019-10-15-13-01-19,3,12,0.6106212378344978,left,both,ambiguous-switch,103,40,left,right,0.162
MME2000MRNO,2019-10-15-13-01-19,3,13,0.6137679014332587,left,probe,biased-switch,-1,5,right,right,0.145
MME2000MRNO,2019-10-15-13-01-19,3,14,0.5781693706777342,left,both,biased-switch,110,5,right,left,0.338
MME2000MRNO,2019-10-15-13-01-19,3,15,0.6657688662284387,right,probe,ambiguous-switch,-1,-10,right,right,0.131
MME2000MRNO,2019-10-15-13-01-19,3,16,0.6857602532398692,right,both,ambiguous-switch,95,-10,right,right,0.367
MME2000MRNO,2019-10-15-13-01-19,3,17,0.6945807942226792,right,probe,biased-switch,-1,0,right,right,0.266
MME2000MRNO,2019-10-15-13-01-19,3,18,0.5716757143475373,right,both,biased-switch,99,0,right,left,0.191
MME2000MRNO,2019-10-15-13-01-19,3,19,0.5192819306748196,right,probe,biased-switch,-1,30,left,left,0.187
MME2000MRNO,2019-10-15-13-01-19,3,20,0.569387538995227,right,both,biased-switch,101,30,left,left,0.282
MME2000MRNO,2019-10-15-13-01-19,3,21,0.631037280792289,left,probe,biased-switch,-1,40,left,left,0.356
MME2000MRNO,2019-10-15-13-01-19,3,22,0.5718950109110373,left,both,biased-switch,91,40,left,right,0.23
MME2000MRNO,2019-10-15-13-01-19,3,23,0.6460258355387886,right,probe,ambiguous-switch,-1,20,right,right,0.216
MME2000MRNO,2019-10-15-13-01-19,3,24,0.6336759147546196,right,both,ambiguous-switch,90,20,right,left,0.096
MME2000MRNO,2019-10-15-13-01-19,3,25,0.6557805784880888,left,probe,ambiguous-switch,-1,10,right,right,0.29
MME2000MRNO,2019-10-15-13-01-19,3,26,0.6197621616806606,left,both,ambiguous-switch,92,10,right,left,0.196
MME2000MRNO,2019-10-15-13-01-19,3,27,0.5687435669126604,right,probe,ambiguous-switch,-1,-30,left,left,0.106
MME2000MRNO,2019-10-15-13-01-19,3,28,0.612965971162216,right,both,ambiguous-switch,97,-30,left,left,0.054
MME2000MRNO,2019-10-15-13-01-19,3,29,0.6984565827915783,right,probe,biased-switch,-1,20,left,left,0.196
MME2000MRNO,2019-10-15-13-01-19,3,30,0.6384674187963746,right,both,biased-switch,108,20,left,right,0.204
MME2000MRNO,2019-10-15-13-01-19,3,31,0.6711422372427822,right,probe,biased-switch,-1,10,right,right,0.08
MME2000MRNO,2019-10-15-13-01-19,3,32,0.5338687046545944,right,both,biased-switch,96,10,right,left,0.181
MME2000MRNO,2019-10-15-13-01-19,3,33,0.5093525461986512,left,probe,biased-switch,-1,-20,right,right,0.17
MME2000MRNO,2019-10-15-13-01-19,3,34,0.6418677493689026,left,both,biased-switch,104,-20,right,right,0.148
MME2000MRNO,2019-10-15-13-01-19,3,35,0.5867838880570209,right,probe,biased-switch,-1,-10,right,right,0.244
MME2000MRNO,2019-10-15-13-01-19,3,36,0.5849465265306538,right,both,biased-switch,98,-10,right,left,0.246
MME2000MRNO,2019-10-15-13-01-19,3,37,0.6358109082211107,left,probe,ambiguous-switch,-1,0,right,right,1.411
MME2000MRNO,2019-10-15-13-01-19,3,38,0.5300904046317153,left,both,ambiguous-switch,102,0,right,right,0.178
MME2000MRNO,2019-10-15-13-01-19,3,39,0.6993902794802728,left,probe,ambiguous-switch,-1,30,right,right,0.151
MME2000MRNO,2019-10-15-13-01-19,3,40,0.6902431519067662,left,both,ambiguous-switch,93,30,right,left,0.133
MME2000MRNO,2019-10-15-13-01-19,3,41,0.6148827624647546,left,probe,ambiguous-switch,-1,5,right,right,0.143
MME2000MRNO,2019-10-15-13-01-19,3,42,0.6427138229007477,left,both,ambiguous-switch,108,5,right,left,0.17
MME2000MRNO,2019-10-15-13-01-19,3,43,0.6158593930528865,left,probe,ambiguous-switch,-1,-5,left,left,0.136
MME2000MRNO,2019-10-15-13-01-19,3,44,0.6981702311683483,left,both,ambiguous-switch,97,-5,left,right,0.106
MME2000MRNO,2019-10-15-13-01-19,3,45,0.5732570527577858,left,probe,ambiguous-switch,-1,-20,left,left,0.19
MME2000MRNO,2019-10-15-13-01-19,3,46,0.5678588601189354,left,both,ambiguous-switch,110,-20,left,left,0.137
MME2000MRNO,2019-10-15-13-01-19,3,47,0.5493727657913696,left,probe,biased-switch,-1,-30,left,left,0.19
MME2000MRNO,2019-10-15-13-01-19,3,48,0.5714752685919336,left,both,biased-switch,95,-30,left,left,0.195
MME2000MRNO,2019-10-15-13-01-19,3,49,0.6680640146609291,right,probe,biased-switch,-1,-5,left,left,0.101
MME2000MRNO,2019-10-15-13-01-19,3,50,0.6218615077113107,right,both,biased-switch,104,-5,left,left,0.152
MME2000MRNO,2019-10-15-13-01-19,3,51,0.6564613010000754,left,probe,ambiguous-switch,-1,40,left,left,0.008
MME2000MRNO,2019-10-15-13-01-19,3,52,0.5726867562801483,left,both,ambiguous-switch,103,40,left,left,0.189
MME2000MRNO,2019-10-15-13-01-19,3,53,0.5885674194081202,right,probe,biased-switch,-1,5,left,left,0.179
MME2000MRNO,2019-10-15-13-01-19,3,54,0.5950757100451264,right,both,biased-switch,98,5,left,right,0.228
MME2000MRNO,2019-10-15-13-01-19,3,55,0.5913548015514499,right,probe,ambiguous-switch,-1,-10,right,right,0.056
MME2000MRNO,2019-10-15-13-01-19,3,56,0.5612865289419773,right,both,ambiguous-switch,96,-10,right,right,0.115
MME2000MRNO,2019-10-15-13-01-19,3,57,0.6463438223577963,left,probe,biased-switch,-1,0,left,left,0.107
MME2000MRNO,2019-10-15-13-01-19,3,58,0.6311157072122718,left,both,biased-switch,107,0,left,left,0.182
MME2000MRNO,2019-10-15-13-01-19,3,59,0.6951139239093238,right,probe,biased-switch,-1,30,left,left,0.173
MME2000MRNO,2019-10-15-13-01-19,3,60,0.6722540386264045,right,both,biased-switch,109,30,left,left,0.114
MME2000MRNO,2019-10-15-13-01-19,3,61,0.5504288125383736,right,probe,biased-switch,-1,40,left,left,0.106
MME2000MRNO,2019-10-15-13-01-19,3,62,0.6597599218633479,right,both,biased-switch,94,40,left,left,0.133
MME2000MRNO,2019-10-15-13-01-19,3,63,0.6809775117233229,right,probe,ambiguous-switch,-1,20,left,left,0.025
MME2000MRNO,2019-10-15-13-01-19,3,64,0.5273824526481303,right,both,ambiguous-switch,106,20,left,right,0.042
MME2000MRNO,2019-10-15-13-01-19,3,65,0.6579350977347234,left,probe,ambiguous-switch,-1,10,left,left,0.138
MME2000MRNO,2019-10-15-13-01-19,3,66,0.5769062546185175,left,both,ambiguous-switch,94,10,left,left,0.172
MME2000MRNO,2019-10-15-13-01-19,3,67,0.5949744518715357,left,probe,ambiguous-switch,-1,-30,left,left,0.49
MME2000MRNO,2019-10-15-13-01-19,3,68,0.5567898060269297,left,both,ambiguous-switch,108,-30,left,left,0.144
MME2000MRNO,2019-10-15-13-01-19,3,69,0.5995421855307537,left,probe,biased-switch,-1,20,left,left,0.031
MME2000MRNO,2019-10-15-13-01-19,3,70,0.5802905688011937,left,both,biased-switch,103,20,left,left,0.06
MME2000MRNO,2019-10-15-13-01-19,3,71,0.6162819067775459,left,probe,biased-switch,-1,10,left,left,1.584
MME2000MRNO,2019-10-15-13-01-19,3,72,0.6748400843197105,left,both,biased-switch,108,10,left,right,0.165
MME2000MRNO,2019-10-15-13-01-19,3,73,0.5316332329429259,left,probe,biased-switch,-1,-20,left,left,0.22
MME2000MRNO,2019-10-15-13-01-19,3,74,0.5374973718198173,left,both,biased-switch,104,-20,left,left,0.162
MME2000MRNO,2019-10-15-13-01-19,3,75,0.6510279160577379,right,probe,biased-switch,-1,-10,left,left,0.229
MME2000MRNO,2019-10-15-13-01-19,3,76,0.6461021740037944,right,both,biased-switch,91,-10,left,right,0.236
MME2000MRNO,2019-10-15-13-01-19,3,77,0.5205600367412875,right,probe,ambiguous-switch,-1,0,left,left,0.308
MME2000MRNO,2019-10-15-13-01-19,3,78,0.6320873466652033,right,both,ambiguous-switch,94,0,left,left,0.207
MME2000MRNO,2019-10-15-13-01-19,3,79,0.5619592948056822,left,probe,ambiguous-switch,-1,30,left,left,0.261
MME2000MRNO,2019-10-15-13-01-19,3,80,0.5384811450072247,left,both,ambiguous-switch,106,30,left,left,0.145
MME2000MRNO,2019-10-15-13-01-19,4,1,0.5204115312466043,right,probe,ambiguous-switch,-1,-20,left,left,0.168
MME2000MRNO,2019-10-15-13-01-19,4,2,0.5507590542195163,right,both,ambiguous-switch,102,-20,left,left,0.228
MME2000MRNO,2019-10-15-13-01-19,4,3,0.5614349776488343,left,probe,biased-switch,-1,-10,left,left,0.266
MME2000MRNO,2019-10-15-13-01-19,4,4,0.6886900360982882,left,both,biased-switch,95,-10,left,left,0.186
MME2000MRNO,2019-10-15-13-01-19,4,5,0.5184465046466938,left,probe,ambiguous-switch,-1,40,left,left,0.196
MME2000MRNO,2019-10-15-13-01-19,4,6,0.5415030353074195,left,both,ambiguous-switch,108,40,left,left,0.153
MME2000MRNO,2019-10-15-13-01-19,4,7,0.6437071059245629,left,probe,ambiguous-switch,-1,20,left,left,0.174
MME2000MRNO,2019-10-15-13-01-19,4,8,0.5749212507172131,left,both,ambiguous-switch,106,20,left,right,0.177
MME2000MRNO,2019-10-15-13-01-19,4,9,0.5198126582000059,right,probe,biased-switch,-1,10,left,left,0.009
MME2000MRNO,2019-10-15-13-01-19,4,10,0.6275280718389492,right,both,biased-switch,102,10,left,right,0.194
MME2000MRNO,2019-10-15-13-01-19,4,11,0.6515898630679531,left,probe,biased-switch,-1,30,left,left,0.199
MME2000MRNO,2019-10-15-13-01-19,4,12,0.6275975847223163,left,both,biased-switch,103,30,left,left,0.151
MME2000MRNO,2019-10-15-13-01-19,4,13,0.625479886502796,right,probe,biased-switch,-1,-20,left,left,0.156
MME2000MRNO,2019-10-15-13-01-19,4,14,0.5129234668702135,right,both,biased-switch,91,-20,left,right,0.163
MME2000MRNO,2019-10-15-13-01-19,4,15,0.5647532661713307,left,probe,biased-switch,-1,20,left,left,0.129
MME2000MRNO,2019-10-15-13-01-19,4,16,0.5467470993316604,left,both,biased-switch,105,20,left,left,0.218
MME2000MRNO,2019-10-15-13-01-19,4,17,0.5741089141456749,left,probe,biased-switch,-1,0,left,left,0.09
MME2000MRNO,2019-10-15-13-01-19,4,18,0.5538239395530469,left,both,biased-switch,92,0,left,right,0.076
MME2000MRNO,2019-10-15-13-01-19,4,19,0.6989816806919569,left,probe,ambiguous-switch,-1,-30,left,left,0.132
MME2000MRNO,2019-10-15-13-01-19,4,20,0.5260362023457006,left,both,ambiguous-switch,100,-30,left,left,0.158
MME2000MRNO,2019-10-15-13-01-19,4,21,0.6181300081050937,right,probe,ambiguous-switch,-1,-10,left,left,0.175
MME2000MRNO,2019-10-15-13-01-19,4,22,0.5055778296949207,right,both,ambiguous-switch,97,-10,left,left,0.156
MME2000MRNO,2019-10-15-13-01-19,4,23,0.5908212624341225,left,probe,ambiguous-switch,-1,10,left,left,0.179
MME2000MRNO,2019-10-15-13-01-19,4,24,0.5750297305522123,left,both,ambiguous-switch,95,10,left,right,0.077
MME2000MRNO,2019-10-15-13-01-19,4,25,0.5845882228961596,right,probe,biased-switch,-1,40,left,left,0.075
MME2000MRNO,2019-10-15-13-01-19,4,26,0.5177359893594137,right,both,biased-switch,110,40,left,left,0.231
MME2000MRNO,2019-10-15-13-01-19,4,27,0.5645931905755837,right,probe,ambiguous-switch,-1,30,left,left,0.13
MME2000MRNO,2019-10-15-13-01-19,4,28,0.69462367138783,right,both,ambiguous-switch,104,30,left,left,0.154
MME2000MRNO,2019-10-15-13-01-19,4,29,0.6312355356739124,left,probe,ambiguous-switch,-1,0,left,left,0.154
MME2000MRNO,2019-10-15-13-01-19,4,30,0.6969930485334068,left,both,ambiguous-switch,103,0,left,left,0.154
MME2000MRNO,2019-10-15-13-01-19,4,31,0.6821883311041318,left,probe,ambiguous-switch,-1,5,left,left,0.182
MME2000MRNO,2019-10-15-13-01-19,4,32,0.5733004169158403,left,both,ambiguous-switch,110,5,left,right,0.135
MME2000MRNO,2019-10-15-13-01-19,4,33,0.6565633214787069,left,probe,ambiguous-switch,-1,-5,right,right,0.144
MME2000MRNO,2019-10-15-13-01-19,4,34,0.6418203859571416,left,both,ambiguous-switch,109,-5,right,right,0.045
MME2000MRNO,2019-10-15-13-01-19,4,35,0.6400031151837273,left,probe,biased-switch,-1,-30,right,right,0.182
MME2000MRNO,2019-10-15-13-01-19,4,36,0.6937696366577994,left,both,biased-switch,99,-30,right,right,0.195
MME2000MRNO,2019-10-15-13-01-19,4,37,0.5344649418983252,right,probe,biased-switch,-1,5,left,left,0.1
MME2000MRNO,2019-10-15-13-01-19,4,38,0.505551483915882,right,both,biased-switch,97,5,left,right,0.022
MME2000MRNO,2019-10-15-13-01-19,4,39,0.5577014208069115,right,probe,biased-switch,-1,-5,left,left,0.096
MME2000MRNO,2019-10-15-13-01-19,4,40,0.517141376435488,right,both,biased-switch,103,-5,left,right,0.166
MME2000MRNO,2019-10-15-13-01-19,4,41,0.6395093966712838,right,probe,ambiguous-switch,-1,-20,left,left,0.032
MME2000MRNO,2019-10-15-13-01-19,4,42,0.6130757799913739,right,both,ambiguous-switch,100,-20,left,left,0.169
MME2000MRNO,2019-10-15-13-01-19,4,43,0.6060900978521696,right,probe,biased-switch,-1,-10,left,left,0.186
MME2000MRNO,2019-10-15-13-01-19,4,44,0.6892950397539033,right,both,biased-switch,109,-10,left,left,0.223
MME2000MRNO,2019-10-15-13-01-19,4,45,0.6813517301578581,right,probe,ambiguous-switch,-1,40,left,left,0.041
MME2000MRNO,2019-10-15-13-01-19,4,46,0.6575426961800637,right,both,ambiguous-switch,91,40,left,left,0.04
MME2000MRNO,2019-10-15-13-01-19,4,47,0.5008549882972732,left,probe,ambiguous-switch,-1,20,left,left,0.201
MME2000MRNO,2019-10-15-13-01-19,4,48,0.5475655383476611,left,both,ambiguous-switch,95,20,left,right,0.102
MME2000MRNO,2019-10-15-13-01-19,4,49,0.5610722165021241,right,probe,biased-switch,-1,10,left,left,0.123
MME2000MRNO,2019-10-15-13-01-19,4,50,0.6290797738418228,right,both,biased-switch,99,10,left,right,0.1
MME2000MRNO,2019-10-15-13-01-19,4,51,0.5453624556217297,left,probe,biased-switch,-1,30,right,right,0.268
MME2000MRNO,2019-10-15-13-01-19,4,52,0.5484423118263083,left,both,biased-switch,105,30,right,left,0.195
MME2000MRNO,2019-10-15-13-01-19,4,53,0.5926813514222256,left,probe,biased-switch,-1,-20,right,right,0.063
MME2000MRNO,2019-10-15-13-01-19,4,54,0.5125670332303535,left,both,biased-switch,97,-20,right,right,0.415
MME2000MRNO,2019-10-15-13-01-19,4,55,0.6122565910282617,right,probe,biased-switch,-1,20,right,right,0.227
MME2000MRNO,2019-10-15-13-01-19,4,56,0.5237941079644126,right,both,biased-switch,93,20,right,left,0.048
MME2000MRNO,2019-10-15-13-01-19,4,57,0.5569000215942542,right,probe,biased-switch,-1,0,left,left,0.157
MME2000MRNO,2019-10-15-13-01-19,4,58,0.5727346022806593,right,both,biased-switch,92,0,left,right,0.259
MME2000MRNO,2019-10-15-13-01-19,4,59,0.6046108704845811,right,probe,ambiguous-switch,-1,-30,right,right,0.543
MME2000MRNO,2019-10-15-13-01-19,4,60,0.532590119119334,right,both,ambiguous-switch,105,-30,right,right,0.204
MME2000MRNO,2019-10-15-13-01-19,4,61,0.6317919994415562,left,probe,ambiguous-switch,-1,-10,right,right,0.197
MME2000MRNO,2019-10-15-13-01-19,4,62,0.6017299542178591,left,both,ambiguous-switch,107,-10,right,right,0.181
MME2000MRNO,2019-10-15-13-01-19,4,63,0.6667016967932952,left,probe,ambiguous-switch,-1,10,right,right,0.169
MME2000MRNO,2019-10-15-13-01-19,4,64,0.5311018772818039,left,both,ambiguous-switch,93,10,right,left,0.266
MME2000MRNO,2019-10-15-13-01-19,4,65,0.550136772125171,left,probe,biased-switch,-1,40,right,right,0.2
MME2000MRNO,2019-10-15-13-01-19,4,66,0.569540176075472,left,both,biased-switch,100,40,right,right,0.22
MME2000MRNO,2019-10-15-13-01-19,4,67,0.6689623596539265,right,probe,ambiguous-switch,-1,30,right,right,0.132
MME2000MRNO,2019-10-15-13-01-19,4,68,0.5042635721727876,right,both,ambiguous-switch,107,30,right,right,0.174
MME2000MRNO,2019-10-15-13-01-19,4,69,0.5649298924988315,right,probe,ambiguous-switch,-1,0,right,right,0.162
MME2000MRNO,2019-10-15-13-01-19,4,70,0.5301655678515077,right,both,ambiguous-switch,95,0,right,right,0.207
MME2000MRNO,2019-10-15-13-01-19,4,71,0.6733296695863903,right,probe,ambiguous-switch,-1,5,right,right,0.065
MME2000MRNO,2019-10-15-13-01-19,4,72,0.6103237918955776,right,both,ambiguous-switch,100,5,right,right,0.255
MME2000MRNO,2019-10-15-13-01-19,4,73,0.5101069938045253,left,probe,ambiguous-switch,-1,-5,left,left,0.48
MME2000MRNO,2019-10-15-13-01-19,4,74,0.6045285080448201,left,both,ambiguous-switch,92,-5,left,right,0.118
MME2000MRNO,2019-10-15-13-01-19,4,75,0.6893154181362583,left,probe,biased-switch,-1,-30,right,right,0.105
MME2000MRNO,2019-10-15-13-01-19,4,76,0.6814733780290305,left,both,biased-switch,99,-30,right,right,0.182
MME2000MRNO,2019-10-15-13-01-19,4,77,0.6101764418636848,left,probe,biased-switch,-1,5,right,right,0.099
MME2000MRNO,2019-10-15-13-01-19,4,78,0.68199364677596,left,both,biased-switch,102,5,right,left,0.189
MME2000MRNO,2019-10-15-13-01-19,4,79,0.6442519292916677,left,probe,biased-switch,-1,-5,left,left,0.054
MME2000MRNO,2019-10-15-13-01-19,4,80,0.5818635842252569,left,both,biased-switch,93,-5,left,left,0.17
MME2000MRNO,2019-10-15-13-01-19,5,1,0.6578655672785605,left,probe,biased-switch,-1,5,left,left,0.171
MME2000MRNO,2019-10-15-13-01-19,5,2,0.6814912555944882,left,both,biased-switch,108,5,left,right,0.096
MME2000MRNO,2019-10-15-13-01-19,5,3,0.6477164004511301,left,probe,biased-switch,-1,0,right,right,0.207
MME2000MRNO,2019-10-15-13-01-19,5,4,0.5450730263773409,left,both,biased-switch,106,0,right,left,0.12
MME2000MRNO,2019-10-15-13-01-19,5,5,0.6159187802075479,right,probe,ambiguous-switch,-1,10,right,right,0.209
MME2000MRNO,2019-10-15-13-01-19,5,6,0.645781792021332,right,both,ambiguous-switch,96,10,right,right,0.16
MME2000MRNO,2019-10-15-13-01-19,5,7,0.5960163205057664,right,probe,ambiguous-switch,-1,-10,right,right,0.277
MME2000MRNO,2019-10-15-13-01-19,5,8,0.6804785182585069,right,both,ambiguous-switch,97,-10,right,right,0.133
MME2000MRNO,2019-10-15-13-01-19,5,9,0.6900298092945858,left,probe,biased-switch,-1,-5,right,right,0.13
MME2000MRNO,2019-10-15-13-01-19,5,10,0.5021643145486758,left,both,biased-switch,94,-5,right,right,0.215
MME2000MRNO,2019-10-15-13-01-19,5,11,0.556695916032693,left,probe,ambiguous-switch,-1,20,right,right,0.007
MME2000MRNO,2019-10-15-13-01-19,5,12,0.5728090661232087,left,both,ambiguous-switch,104,20,right,left,0.128
MME2000MRNO,2019-10-15-13-01-19,5,13,0.5148925137678688,right,probe,ambiguous-switch,-1,-5,right,right,0.099
MME2000MRNO,2019-10-15-13-01-19,5,14,0.6953195193481706,right,both,ambiguous-switch,96,-5,right,right,0.131
MME2000MRNO,2019-10-15-13-01-19,5,15,0.5318960240622665,left,probe,ambiguous-switch,-1,30,right,right,0.034
MME2000MRNO,2019-10-15-13-01-19,5,16,0.5717539031680583,left,both,ambiguous-switch,100,30,right,left,0.114
MME2000MRNO,2019-10-15-13-01-19,5,17,0.6895858122750529,left,probe,biased-switch,-1,20,left,left,0.177
MME2000MRNO,2019-10-15-13-01-19,5,18,0.5753081974672734,left,both,biased-switch,98,20,left,right,0.254
MME2000MRNO,2019-10-15-13-01-19,5,19,0.6950910258567755,left,probe,biased-switch,-1,40,left,left,0.179
MME2000MRNO,2019-10-15-13-01-19,5,20,0.5000476346805188,left,both,biased-switch,94,40,left,left,0.045
MME2000MRNO,2019-10-15-13-01-19,5,21,0.553209510274112,left,probe,ambiguous-switch,-1,5,left,left,0.207
MME2000MRNO,2019-10-15-13-01-19,5,22,0.5313978563207319,left,both,ambiguous-switch,109,5,left,right,0.078
MME2000MRNO,2019-10-15-13-01-19,5,23,0.5163669076820101,left,probe,biased-switch,-1,-10,right,right,0.138
MME2000MRNO,2019-10-15-13-01-19,5,24,0.6400181902101528,left,both,biased-switch,93,-10,right,right,0.154
MME2000MRNO,2019-10-15-13-01-19,5,25,0.5814917979453793,right,probe,ambiguous-switch,-1,0,right,right,0.054
MME2000MRNO,2019-10-15-13-01-19,5,26,0.6653421629166846,right,both,ambiguous-switch,97,0,right,right,0.172
MME2000MRNO,2019-10-15-13-01-19,5,27,0.5486109953611007,right,probe,ambiguous-switch,-1,-30,right,right,0.144
MME2000MRNO,2019-10-15-13-01-19,5,28,0.6942399853493829,right,both,ambiguous-switch,108,-30,right,right,0.116
MME2000MRNO,2019-10-15-13-01-19,5,29,0.6279158712583012,left,probe,biased-switch,-1,-20,right,right,0.093
MME2000MRNO,2019-10-15-13-01-19,5,30,0.6615643448584205,left,both,biased-switch,93,-20,right,right,0.101
MME2000MRNO,2019-10-15-13-01-19,5,31,0.6584667178396705,right,probe,ambiguous-switch,-1,40,right,right,0.199
MME2000MRNO,2019-10-15-13-01-19,5,32,0.6399848582197585,right,both,ambiguous-switch,95,40,right,right,0.084
MME2000MRNO,2019-10-15-13-01-19,5,33,0.5775786001240466,left,probe,biased-switch,-1,10,right,right,0.051
MME2000MRNO,2019-10-15-13-01-19,5,34,0.5507569145095301,left,both,biased-switch,107,10,right,left,0.274
MME2000MRNO,2019-10-15-13-01-19,5,35,0.6797886234197899,left,probe,biased-switch,-1,-30,right,right,0.146
MME2000MRNO,2019-10-15-13-01-19,5,36,0.6880957498060138,left,both,biased-switch,110,-30,right,right,0.094
MME2000MRNO,2019-10-15-13-01-19,5,37,0.6111658241736848,right,probe,biased-switch,-1,30,left,left,0.097
MME2000MRNO,2019-10-15-13-01-19,5,38,0.646020966636085,right,both,biased-switch,100,30,left,left,1.526
MME2000MRNO,2019-10-15-13-01-19,5,39,0.6585114755726998,left,probe,ambiguous-switch,-1,-20,right,right,0.104
MME2000MRNO,2019-10-15-13-01-19,5,40,0.6912816207825409,left,both,ambiguous-switch,110,-20,right,right,0.166
MME2000MRNO,2019-10-15-13-01-19,5,41,0.6807065710614861,right,probe,biased-switch,-1,5,right,right,0.146
MME2000MRNO,2019-10-15-13-01-19,5,42,0.6514485496708734,right,both,biased-switch,106,5,right,left,0.116
MME2000MRNO,2019-10-15-13-01-19,5,43,0.5421163358937906,left,probe,biased-switch,-1,0,right,right,0.012
MME2000MRNO,2019-10-15-13-01-19,5,44,0.6578301912896525,left,both,biased-switch,92,0,right,left,0.137
MME2000MRNO,2019-10-15-13-01-19,5,45,0.5038231516844491,right,probe,ambiguous-switch,-1,10,right,right,0.088
MME2000MRNO,2019-10-15-13-01-19,5,46,0.6131979602770878,right,both,ambiguous-switch,110,10,right,left,0.088
MME2000MRNO,2019-10-15-13-01-19,5,47,0.5159634657649393,right,probe,ambiguous-switch,-1,-10,right,right,0.206
MME2000MRNO,2019-10-15-13-01-19,5,48,0.625485983989439,right,both,ambiguous-switch,104,-10,right,right,0.192
MME2000MRNO,2019-10-15-13-01-19,5,49,0.6838537494101277,right,probe,biased-switch,-1,-5,right,right,0.303
MME2000MRNO,2019-10-15-13-01-19,5,50,0.572454050859226,right,both,biased-switch,105,-5,right,right,0.121
MME2000MRNO,2019-10-15-13-01-19,5,51,0.5823974777099415,left,probe,ambiguous-switch,-1,20,right,right,0.322
MME2000MRNO,2019-10-15-13-01-19,5,52,0.6750879853345,left,both,ambiguous-switch,108,20,right,left,0.187
MME2000MRNO,2019-10-15-13-01-19,5,53,0.5624315516304842,right,probe,ambiguous-switch,-1,-5,right,right,0.098
MME2000MRNO,2019-10-15-13-01-19,5,54,0.6709140415134123,right,both,ambiguous-switch,109,-5,right,right,0.137
MME2000MRNO,2019-10-15-13-01-19,5,55,0.5480640855138849,left,probe,ambiguous-switch,-1,30,right,right,0.138
MME2000MRNO,2019-10-15-13-01-19,5,56,0.6796731078107163,left,both,ambiguous-switch,94,30,right,left,0.254
MME2000MRNO,2019-10-15-13-01-19,5,57,0.6883596127954386,left,probe,biased-switch,-1,20,left,left,0.082
MME2000MRNO,2019-10-15-13-01-19,5,58,0.6673798024171002,left,both,biased-switch,109,20,left,right,0.116
MME2000MRNO,2019-10-15-13-01-19,5,59,0.6534575957925226,right,probe,biased-switch,-1,40,left,left,0.081
MME2000MRNO,2019-10-15-13-01-19,5,60,0.5662320303931224,right,both,biased-switch,99,40,left,right,0.073
MME2000MRNO,2019-10-15-13-01-19,5,61,0.6832841408077904,left,probe,ambiguous-switch,-1,5,left,left,0.08
MME2000MRNO,2019-10-15-13-01-19,5,62,0.6059096252416459,left,both,ambiguous-switch,94,5,left,right,0.098
MME2000MRNO,2019-10-15-13-01-19,5,63,0.658025825516231,left,probe,biased-switch,-1,-10,right,right,0.191
MME2000MRNO,2019-10-15-13-01-19,5,64,0.6680846307487972,left,both,biased-switch,94,-10,right,right,0.077
MME2000MRNO,2019-10-15-13-01-19,5,65,0.608463450643162,left,probe,ambiguous-switch,-1,0,left,left,0.21
MME2000MRNO,2019-10-15-13-01-19,5,66,0.646796917943337,left,both,ambiguous-switch,102,0,left,left,0.036
MME2000MRNO,2019-10-15-13-01-19,5,67,0.5407251877695337,left,probe,ambiguous-switch,-1,-30,left,left,0.054
MME2000MRNO,2019-10-15-13-01-19,5,68,0.6586058144257241,left,both,ambiguous-switch,102,-30,left,left,0.143
MME2000MRNO,2019-10-15-13-01-19,5,69,0.5037087022518949,right,probe,biased-switch,-1,-20,left,left,0.124
MME2000MRNO,2019-10-15-13-01-19,5,70,0.5724038522688435,right,both,biased-switch,92,-20,left,left,0.058
MME2000MRNO,2019-10-15-13-01-19,5,71,0.691619597942462,left,probe,ambiguous-switch,-1,40,left,left,0.032
MME2000MRNO,2019-10-15-13-01-19,5,72,0.6156297553113538,left,both,ambiguous-switch,109,40,left,left,0.114
MME2000MRNO,2019-10-15-13-01-19,5,73,0.6167917437795793,right,probe,biased-switch,-1,10,left,left,0.076
MME2000MRNO,2019-10-15-13-01-19,5,74,0.5441950366255768,right,both,biased-switch,91,10,left,right,0.17
MME2000MRNO,2019-10-15-13-01-19,5,75,0.5950235304231707,right,probe,biased-switch,-1,-30,left,left,0.23
MME2000MRNO,2019-10-15-13-01-19,5,76,0.5561054347180581,right,both,biased-switch,96,-30,left,left,0.149
MME2000MRNO,2019-10-15-13-01-19,5,77,0.5135959141769773,left,probe,biased-switch,-1,30,right,right,0.066
MME2000MRNO,2019-10-15-13-01-19,5,78,0.5753002767876089,left,both,biased-switch,100,30,right,right,0.005
MME2000MRNO,2019-10-15-13-01-19,5,79,0.698422898767336,right,probe,ambiguous-switch,-1,-20,right,right,0.108
MME2000MRNO,2019-10-15-13-01-19,5,80,0.6112363935091403,right,both,ambiguous-switch,99,-20,right,left,0.154
MME2000MRNO,2019-10-15-13-01-19,6,1,0.5518829403099447,left,probe,biased-switch,-1,5,left,left,0.018
MME2000MRNO,2019-10-15-13-01-19,6,2,0.5367402919027038,left,both,biased-switch,101,5,left,right,0.072
MME2000MRNO,2019-10-15-13-01-19,6,3,0.6371027460015287,left,probe,biased-switch,-1,0,right,right,0.009
MME2000MRNO,2019-10-15-13-01-19,6,4,0.5110308658627782,left,both,biased-switch,105,0,right,left,0.1
MME2000MRNO,2019-10-15-13-01-19,6,5,0.510762529224019,left,probe,ambiguous-switch,-1,-10,right,right,0.023
MME2000MRNO,2019-10-15-13-01-19,6,6,0.6709033694561292,left,both,ambiguous-switch,108,-10,right,right,0.096
MME2000MRNO,2019-10-15-13-01-19,6,7,0.576107980998384,left,probe,biased-switch,-1,20,right,right,1.776
MME2000MRNO,2019-10-15-13-01-19,6,8,0.5793597336951128,left,both,biased-switch,91,20,right,right,0.121
MME2000MRNO,2019-10-15-13-01-19,6,9,0.6486825526918729,right,probe,biased-switch,-1,-20,right,right,0.085
MME2000MRNO,2019-10-15-13-01-19,6,10,0.6638631449641701,right,both,biased-switch,109,-20,right,right,0.07
MME2000MRNO,2019-10-15-13-01-19,6,11,0.6071032105358509,right,probe,ambiguous-switch,-1,0,right,right,0.075
MME2000MRNO,2019-10-15-13-01-19,6,12,0.6295050632412542,right,both,ambiguous-switch,96,0,right,right,0.067
MME2000MRNO,2019-10-15-13-01-19,6,13,0.6802071141474793,left,probe,ambiguous-switch,-1,30,right,right,0.099
MME2000MRNO,2019-10-15-13-01-19,6,14,0.5376219312578432,left,both,ambiguous-switch,107,30,right,left,0.145
MME2000MRNO,2019-10-15-13-01-19,6,15,0.5819505607104483,right,probe,biased-switch,-1,-30,right,right,0.157
MME2000MRNO,2019-10-15-13-01-19,6,16,0.6213192543438751,right,both,biased-switch,90,-30,right,right,0.079
MME2000MRNO,2019-10-15-13-01-19,6,17,0.6558475329344213,left,probe,ambiguous-switch,-1,40,right,right,0.024
MME2000MRNO,2019-10-15-13-01-19,6,18,0.5780640306038465,left,both,ambiguous-switch,105,40,right,right,0.165
MME2000MRNO,2019-10-15-13-01-19,6,19,0.5145530683416716,right,probe,ambiguous-switch,-1,5,right,right,0.073
MME2000MRNO,2019-10-15-13-01-19,6,20,0.5990098486563017,right,both,ambiguous-switch,94,5,right,right,0.103
MME2000MRNO,2019-10-15-13-01-19,6,21,0.5976857634578204,left,probe,ambiguous-switch,-1,10,right,right,0.156
MME2000MRNO,2019-10-15-13-01-19,6,22,0.567309693270497,left,both,ambiguous-switch,99,10,right,left,0.109
MME2000MRNO,2019-10-15-13-01-19,6,23,0.555178682241619,left,probe,ambiguous-switch,-1,20,left,left,0.177
MME2000MRNO,2019-10-15-13-01-19,6,24,0.5618625345958868,left,both,ambiguous-switch,102,20,left,left,0.086
MME2000MRNO,2019-10-15-13-01-19,6,25,0.5466873115575661,left,probe,biased-switch,-1,10,right,right,0.209
MME2000MRNO,2019-10-15-13-01-19,6,26,0.566578498593691,left,both,biased-switch,92,10,right,left,0.188
MME2000MRNO,2019-10-15-13-01-19,6,27,0.5431960710280495,right,probe,biased-switch,-1,40,right,right,0.055
MME2000MRNO,2019-10-15-13-01-19,6,28,0.5364281358180675,right,both,biased-switch,92,40,right,right,0.107
MME2000MRNO,2019-10-15-13-01-19,6,29,0.557731660601279,left,probe,ambiguous-switch,-1,-5,left,left,0.149
MME2000MRNO,2019-10-15-13-01-19,6,30,0.5032766009787143,left,both,ambiguous-switch,94,-5,left,left,0.182
MME2000MRNO,2019-10-15-13-01-19,6,31,0.6784642589642969,left,probe,biased-switch,-1,30,left,left,0.031
MME2000MRNO,2019-10-15-13-01-19,6,32,0.6678304932509407,left,both,biased-switch,105,30,left,left,3.116
MME2000MRNO,2019-10-15-13-01-19,6,33,0.5721894587457844,left,probe,biased-switch,-1,-10,left,left,0.128
MME2000MRNO,2019-10-15-13-01-19,6,34,0.6401640832639927,left,both,biased-switch,103,-10,left,left,0.029
MME2000MRNO,2019-10-15-13-01-19,6,35,0.6886470525430262,left,probe,ambiguous-switch,-1,-20,left,left,0.128
MME2000MRNO,2019-10-15-13-01-19,6,36,0.512394841777559,left,both,ambiguous-switch,103,-20,left,left,0.159
MME2000MRNO,2019-10-15-13-01-19,6,37,0.5039429648814968,right,probe,ambiguous-switch,-1,-30,left,left,1.815
MME2000MRNO,2019-10-15-13-01-19,6,38,0.511067598897367,right,both,ambiguous-switch,94,-30,left,left,0.193
MME2000MRNO,2019-10-15-13-01-19,6,39,0.5927112904741233,right,probe,biased-switch,-1,-5,left,left,0.112
MME2000MRNO,2019-10-15-13-01-19,6,40,0.5566627392390513,right,both,biased-switch,105,-5,left,left,0.034
MME2000MRNO,2019-10-15-13-01-19,6,41,0.517918785591553,left,probe,biased-switch,-1,5,left,left,0.174
MME2000MRNO,2019-10-15-13-01-19,6,42,0.6519717350985303,left,both,biased-switch,94,5,left,right,0.173
MME2000MRNO,2019-10-15-13-01-19,6,43,0.6311040567173244,right,probe,biased-switch,-1,0,left,left,0.139
MME2000MRNO,2019-10-15-13-01-19,6,44,0.6809924185086165,right,both,biased-switch,110,0,left,right,0.102
MME2000MRNO,2019-10-15-13-01-19,6,45,0.5072675885510093,left,probe,ambiguous-switch,-1,-10,left,left,0.192
MME2000MRNO,2019-10-15-13-01-19,6,46,0.6302999863373357,left,both,ambiguous-switch,96,-10,left,left,0.121
MME2000MRNO,2019-10-15-13-01-19,6,47,0.6907005906737484,right,probe,biased-switch,-1,20,left,left,0.144
MME2000MRNO,2019-10-15-13-01-19,6,48,0.6387785318518168,right,both,biased-switch,98,20,left,right,0.093
MME2000MRNO,2019-10-15-13-01-19,6,49,0.5470691579095408,left,probe,biased-switch,-1,-20,left,left,0.111
MME2000MRNO,2019-10-15-13-01-19,6,50,0.5232102588648553,left,both,biased-switch,92,-20,left,left,0.106
MME2000MRNO,2019-10-15-13-01-19,6,51,0.5570184669222772,left,probe,ambiguous-switch,-1,0,left,left,1.784
MME2000MRNO,2019-10-15-13-01-19,6,52,0.6884988904663651,left,both,ambiguous-switch,97,0,left,left,0.182
MME2000MRNO,2019-10-15-13-01-19,6,53,0.5716773136414156,left,probe,ambiguous-switch,-1,30,left,left,0.167
MME2000MRNO,2019-10-15-13-01-19,6,54,0.5829967633664999,left,both,ambiguous-switch,96,30,left,left,0.069
MME2000MRNO,2019-10-15-13-01-19,6,55,0.5292422767528567,left,probe,biased-switch,-1,-30,left,left,0.17
MME2000MRNO,2019-10-15-13-01-19,6,56,0.5090101650385077,left,both,biased-switch,107,-30,left,left,1.495
MME2000MRNO,2019-10-15-13-01-19,6,57,0.6599845288229671,left,probe,ambiguous-switch,-1,40,left,left,0.161
MME2000MRNO,2019-10-15-13-01-19,6,58,0.6815563301669635,left,both,ambiguous-switch,103,40,left,left,0.221
MME2000MRNO,2019-10-15-13-01-19,6,59,0.5363244890001506,left,probe,ambiguous-switch,-1,5,left,left,0.196
MME2000MRNO,2019-10-15-13-01-19,6,60,0.6715521416380072,left,both,ambiguous-switch,93,5,left,left,0.171
MME2000MRNO,2019-10-15-13-01-19,6,61,0.642855324249041,left,probe,ambiguous-switch,-1,10,left,left,0.16
MME2000MRNO,2019-10-15-13-01-19,6,62,0.5038454790517193,left,both,ambiguous-switch,95,10,left,left,0.182
MME2000MRNO,2019-10-15-13-01-19,6,63,0.6165042098137731,right,probe,ambiguous-switch,-1,20,left,left,0.183
MME2000MRNO,2019-10-15-13-01-19,6,64,0.536474347773841,right,both,ambiguous-switch,98,20,left,right,0.206
MME2000MRNO,2019-10-15-13-01-19,6,65,0.6031643436190792,left,probe,biased-switch,-1,10,left,left,0.155
MME2000MRNO,2019-10-15-13-01-19,6,66,0.6725822998377129,left,both,biased-switch,98,10,left,right,0.018
MME2000MRNO,2019-10-15-13-01-19,6,67,0.5124620612697162,right,probe,biased-switch,-1,40,right,right,0.046
MME2000MRNO,2019-10-15-13-01-19,6,68,0.5496797331647638,right,both,biased-switch,99,40,right,left,0.18
MME2000MRNO,2019-10-15-13-01-19,6,69,0.6612360445799988,left,probe,ambiguous-switch,-1,-5,right,right,0.091
MME2000MRNO,2019-10-15-13-01-19,6,70,0.6005400946171824,left,both,ambiguous-switch,110,-5,right,right,0.041
MME2000MRNO,2019-10-15-13-01-19,6,71,0.6072222351955623,right,probe,biased-switch,-1,30,right,right,0.119
MME2000MRNO,2019-10-15-13-01-19,6,72,0.6023373227245165,right,both,biased-switch,91,30,right,right,0.048
MME2000MRNO,2019-10-15-13-01-19,6,73,0.5530407644451389,right,probe,biased-switch,-1,-10,right,right,0.03
MME2000MRNO,2019-10-15-13-01-19,6,74,0.5028722922558249,right,both,biased-switch,92,-10,right,right,0.367
MME2000MRNO,2019-10-15-13-01-19,6,75,0.563295777859008,right,probe,ambiguous-switch,-1,-20,right,right,1.773
MME2000MRNO,2019-10-15-13-01-19,6,76,0.5936053872917195,right,both,ambiguous-switch,95,-20,right,right,0.232
MME2000MRNO,2019-10-15-13-01-19,6,77,0.6421529773237524,right,probe,ambiguous-switch,-1,-30,right,right,0.013
MME2000MRNO,2019-10-15-13-01-19,6,78,0.6331399891085339,right,both,ambiguous-switch,103,-30,right,right,0.126
MME2000MRNO,2019-10-15-13-01-19,6,79,0.6436721973498865,right,probe,biased-switch,-1,-5,right,right,0.181
MME2000MRNO,2019-10-15-13-01-19,6,80,0.6222623967035668,right,both,biased-switch,109,-5,right,right,0.258
MME2000MRNO,2019-10-15-13-01-19,7,1,0.5124199631363132,right,probe,biased-switch,-1,-30,right,right,0.183
MME2000MRNO,2019-10-15-13-01-19,7,2,0.6707182539466888,right,both,biased-switch,96,-30,right,right,0.118
MME2000MRNO,2019-10-15-13-01-19,7,3,0.5265715421173089,left,probe,biased-switch,-1,-10,right,right,0.16
MME2000MRNO,2019-10-15-13-01-19,7,4,0.6981115535124962,left,both,biased-switch,102,-10,right,right,0.015
MME2000MRNO,2019-10-15-13-01-19,7,5,0.6364678443343253,right,probe,ambiguous-switch,-1,-30,right,right,0.006
MME2000MRNO,2019-10-15-13-01-19,7,6,0.6688506635259956,right,both,ambiguous-switch,93,-30,right,right,0.159
MME2000MRNO,2019-10-15-13-01-19,7,7,0.6667688888231492,left,probe,ambiguous-switch,-1,30,right,right,0.068
MME2000MRNO,2019-10-15-13-01-19,7,8,0.6333515395923602,left,both,ambiguous-switch,102,30,right,right,0.103
MME2000MRNO,2019-10-15-13-01-19,7,9,0.567090440413114,left,probe,biased-switch,-1,30,right,right,0.017
MME2000MRNO,2019-10-15-13-01-19,7,10,0.622455629230368,left,both,biased-switch,109,30,right,left,0.11
MME2000MRNO,2019-10-15-13-01-19,7,11,0.5701230800350656,left,probe,biased-switch,-1,5,left,left,0.19
MME2000MRNO,2019-10-15-13-01-19,7,12,0.6791432494058904,left,both,biased-switch,98,5,left,right,0.172
MME2000MRNO,2019-10-15-13-01-19,7,13,0.5529418871826379,right,probe,ambiguous-switch,-1,10,right,right,0.085
MME2000MRNO,2019-10-15-13-01-19,7,14,0.5934626686161026,right,both,ambiguous-switch,102,10,right,left,0.042
MME2000MRNO,2019-10-15-13-01-19,7,15,0.5545461860902533,right,probe,ambiguous-switch,-1,5,right,right,1.711
MME2000MRNO,2019-10-15-13-01-19,7,16,0.5809474217272885,right,both,ambiguous-switch,104,5,right,left,0.082
MME2000MRNO,2019-10-15-13-01-19,7,17,0.6729866355987528,right,probe,ambiguous-switch,-1,-20,left,left,0.075
MME2000MRNO,2019-10-15-13-01-19,7,18,0.6580397555291173,right,both,ambiguous-switch,97,-20,left,left,0.103
MME2000MRNO,2019-10-15-13-01-19,7,19,0.6276040229885458,right,probe,biased-switch,-1,10,left,left,0.042
MME2000MRNO,2019-10-15-13-01-19,7,20,0.5806015868260799,right,both,biased-switch,95,10,left,right,0.145
MME2000MRNO,2019-10-15-13-01-19,7,21,0.6177518561412566,left,probe,biased-switch,-1,-20,left,left,0.053
MME2000MRNO,2019-10-15-13-01-19,7,22,0.6984255509679343,left,both,biased-switch,104,-20,left,left,0.054
MME2000MRNO,2019-10-15-13-01-19,7,23,0.6796234077835296,left,probe,biased-switch,-1,0,left,left,1.391
MME2000MRNO,2019-10-15-13-01-19,7,24,0.5072924033609589,left,both,biased-switch,92,0,left,right,0.138
MME2000MRNO,2019-10-15-13-01-19,7,25,0.6272898135435776,right,probe,ambiguous-switch,-1,0,left,left,0.035
MME2000MRNO,2019-10-15-13-01-19,7,26,0.6409735902158599,right,both,ambiguous-switch,102,0,left,right,0.013
MME2000MRNO,2019-10-15-13-01-19,7,27,0.5989582234874584,left,probe,ambiguous-switch,-1,40,left,left,0.064
MME2000MRNO,2019-10-15-13-01-19,7,28,0.6269852542253755,left,both,ambiguous-switch,95,40,left,left,0.17
MME2000MRNO,2019-10-15-13-01-19,7,29,0.6523153324203719,right,probe,ambiguous-switch,-1,-5,left,left,0.033
MME2000MRNO,2019-10-15-13-01-19,7,30,0.582748037296529,right,both,ambiguous-switch,100,-5,left,left,0.014
MME2000MRNO,2019-10-15-13-01-19,7,31,0.614215755435179,right,probe,biased-switch,-1,20,left,left,1.395
MME2000MRNO,2019-10-15-13-01-19,7,32,0.502066872276506,right,both,biased-switch,93,20,left,right,0.072
MME2000MRNO,2019-10-15-13-01-19,7,33,0.6638163335498632,left,probe,ambiguous-switch,-1,-10,left,left,0.002
MME2000MRNO,2019-10-15-13-01-19,7,34,0.5407105911140251,left,both,ambiguous-switch,105,-10,left,left,0.092
MME2000MRNO,2019-10-15-13-01-19,7,35,0.6005114088153833,right,probe,ambiguous-switch,-1,20,left,left,1.809
MME2000MRNO,2019-10-15-13-01-19,7,36,0.5030429383541961,right,both,ambiguous-switch,93,20,left,right,0.071
MME2000MRNO,2019-10-15-13-01-19,7,37,0.5074138916722829,left,probe,biased-switch,-1,40,left,left,0.112
MME2000MRNO,2019-10-15-13-01-19,7,38,0.6598797046969966,left,both,biased-switch,101,40,left,left,1.506
MME2000MRNO,2019-10-15-13-01-19,7,39,0.5590907705262051,left,probe,biased-switch,-1,-5,left,left,0.294
MME2000MRNO,2019-10-15-13-01-19,7,40,0.6699282761960136,left,both,biased-switch,92,-5,left,left,0.135
MME2000MRNO,2019-10-15-13-01-19,7,41,0.5841092396473296,left,probe,biased-switch,-1,-30,left,left,0.064
MME2000MRNO,2019-10-15-13-01-19,7,42,0.5340053917906995,left,both,biased-switch,96,-30,left,left,0.055
MME2000MRNO,2019-10-15-13-01-19,7,43,0.5554467472697648,left,probe,biased-switch,-1,-10,left,left,0.1
MME2000MRNO,2019-10-15-13-01-19,7,44,0.5082687553165336,left,both,biased-switch,105,-10,left,left,2.664
MME2000MRNO,2019-10-15-13-01-19,7,45,0.6378238270972884,right,probe,ambiguous-switch,-1,-30,left,left,0.029
MME2000MRNO,2019-10-15-13-01-19,7,46,0.5085458046266331,right,both,ambiguous-switch,102,-30,left,left,0.129
MME2000MRNO,2019-10-15-13-01-19,7,47,0.6805842763295833,left,probe,ambiguous-switch,-1,30,left,left,0.028
MME2000MRNO,2019-10-15-13-01-19,7,48,0.5333934078906943,left,both,ambiguous-switch,102,30,left,left,0.129
MME2000MRNO,2019-10-15-13-01-19,7,49,0.6847857589384254,right,probe,biased-switch,-1,30,left,left,0.151
MME2000MRNO,2019-10-15-13-01-19,7,50,0.5501881659721467,right,both,biased-switch,95,30,left,right,0.017
MME2000MRNO,2019-10-15-13-01-19,7,51,0.5144758198474239,right,probe,biased-switch,-1,5,right,right,0.177
MME2000MRNO,2019-10-15-13-01-19,7,52,0.6210657086198781,right,both,biased-switch,94,5,right,left,0.149
MME2000MRNO,2019-10-15-13-01-19,7,53,0.6356818471381631,left,probe,ambiguous-switch,-1,10,left,left,0.063
MME2000MRNO,2019-10-15-13-01-19,7,54,0.5321229841390601,left,both,ambiguous-switch,94,10,left,right,0.13
MME2000MRNO,2019-10-15-13-01-19,7,55,0.5168285807499212,left,probe,ambiguous-switch,-1,5,left,left,0.012
MME2000MRNO,2019-10-15-13-01-19,7,56,0.6180345093999464,left,both,ambiguous-switch,95,5,left,left,0.172
MME2000MRNO,2019-10-15-13-01-19,7,57,0.6477466194355007,right,probe,ambiguous-switch,-1,-20,left,left,0.053
MME2000MRNO,2019-10-15-13-01-19,7,58,0.6232900654850484,right,both,ambiguous-switch,97,-20,left,left,0.009
MME2000MRNO,2019-10-15-13-01-19,7,59,0.5066477674435335,left,probe,biased-switch,-1,10,left,left,0.057
MME2000MRNO,2019-10-15-13-01-19,7,60,0.6344973892509572,left,both,biased-switch,106,10,left,right,0.075
MME2000MRNO,2019-10-15-13-01-19,7,61,0.6860185865566761,right,probe,biased-switch,-1,-20,left,left,0.331
MME2000MRNO,2019-10-15-13-01-19,7,62,0.5969408723154059,right,both,biased-switch,109,-20,left,left,0.081
MME2000MRNO,2019-10-15-13-01-19,7,63,0.5539718382419943,right,probe,biased-switch,-1,0,left,left,0.147
MME2000MRNO,2019-10-15-13-01-19,7,64,0.661229613083387,right,both,biased-switch,96,0,left,right,0.127
MME2000MRNO,2019-10-15-13-01-19,7,65,0.5389817296628672,left,probe,ambiguous-switch,-1,0,right,right,0.101
MME2000MRNO,2019-10-15-13-01-19,7,66,0.5989132144252507,left,both,ambiguous-switch,104,0,right,left,0.179
MME2000MRNO,2019-10-15-13-01-19,7,67,0.5547993991562189,right,probe,ambiguous-switch,-1,40,right,right,0.169
MME2000MRNO,2019-10-15-13-01-19,7,68,0.5545971545699159,right,both,ambiguous-switch,101,40,right,right,0.093
MME2000MRNO,2019-10-15-13-01-19,7,69,0.6487348786611428,left,probe,ambiguous-switch,-1,-5,right,right,0.213
MME2000MRNO,2019-10-15-13-01-19,7,70,0.5056250814000598,left,both,ambiguous-switch,101,-5,right,right,0.232
MME2000MRNO,2019-10-15-13-01-19,7,71,0.5713563534674125,right,probe,biased-switch,-1,20,right,right,0.135
MME2000MRNO,2019-10-15-13-01-19,7,72,0.5254459805187969,right,both,biased-switch,99,20,right,left,0.223
MME2000MRNO,2019-10-15-13-01-19,7,73,0.5182518938040355,left,probe,ambiguous-switch,-1,-10,right,right,0.297
MME2000MRNO,2019-10-15-13-01-19,7,74,0.5220505244387476,left,both,ambiguous-switch,106,-10,right,right,0.265
MME2000MRNO,2019-10-15-13-01-19,7,75,0.5754976124452515,right,probe,ambiguous-switch,-1,20,right,right,0.236
MME2000MRNO,2019-10-15-13-01-19,7,76,0.6853940274446382,right,both,ambiguous-switch,101,20,right,left,0.213
MME2000MRNO,2019-10-15-13-01-19,7,77,0.5437420741778272,right,probe,biased-switch,-1,40,right,right,0.299
MME2000MRNO,2019-10-15-13-01-19,7,78,0.6624670972710975,right,both,biased-switch,103,40,right,right,0.216
MME2000MRNO,2019-10-15-13-01-19,7,79,0.5582292932404036,left,probe,biased-switch,-1,-5,right,right,0.281
MME2000MRNO,2019-10-15-13-01-19,7,80,0.5138193671766875,left,both,biased-switch,90,-5,right,right,0.358
MME2000MRNO,2019-10-15-13-01-19,8,1,0.6332990005089099,left,probe,biased-switch,-1,-5,right,right,0.311
MME2000MRNO,2019-10-15-13-01-19,8,2,0.5485032700190395,left,both,biased-switch,97,-5,right,right,0.054
MME2000MRNO,2019-10-15-13-01-19,8,3,0.6707545882249206,left,probe,ambiguous-switch,-1,40,right,right,0.197
MME2000MRNO,2019-10-15-13-01-19,8,4,0.5584109382469398,left,both,ambiguous-switch,95,40,right,right,0.188
MME2000MRNO,2019-10-15-13-01-19,8,5,0.6564360725547317,right,probe,ambiguous-switch,-1,-10,right,right,0.18
MME2000MRNO,2019-10-15-13-01-19,8,6,0.5970027075153239,right,both,ambiguous-switch,108,-10,right,right,0.231
MME2000MRNO,2019-10-15-13-01-19,8,7,0.6997577931704964,left,probe,ambiguous-switch,-1,5,right,right,0.177
MME2000MRNO,2019-10-15-13-01-19,8,8,0.6174769717066364,left,both,ambiguous-switch,108,5,right,left,0.173
MME2000MRNO,2019-10-15-13-01-19,8,9,0.5090836755594838,right,probe,biased-switch,-1,20,right,right,0.199
MME2000MRNO,2019-10-15-13-01-19,8,10,0.5154478539368759,right,both,biased-switch,101,20,right,left,0.152
MME2000MRNO,2019-10-15-13-01-19,8,11,0.5195174000654562,right,probe,biased-switch,-1,-20,right,right,0.119
MME2000MRNO,2019-10-15-13-01-19,8,12,0.6780413223812701,right,both,biased-switch,106,-20,right,right,0.048
MME2000MRNO,2019-10-15-13-01-19,8,13,0.5112409123116604,left,probe,biased-switch,-1,5,right,right,0.084
MME2000MRNO,2019-10-15-13-01-19,8,14,0.5494910686232742,left,both,biased-switch,107,5,right,left,0.291
MME2000MRNO,2019-10-15-13-01-19,8,15,0.6807949511460059,right,probe,ambiguous-switch,-1,10,right,right,0.365
MME2000MRNO,2019-10-15-13-01-19,8,16,0.6421157658276546,right,both,ambiguous-switch,92,10,right,left,0.203
MME2000MRNO,2019-10-15-13-01-19,8,17,0.541942851421161,left,probe,biased-switch,-1,30,right,right,0.176
MME2000MRNO,2019-10-15-13-01-19,8,18,0.6273659959984922,left,both,biased-switch,95,30,right,right,1.297
MME2000MRNO,2019-10-15-13-01-19,8,19,0.6207890109165379,right,probe,ambiguous-switch,-1,0,right,right,0.166
MME2000MRNO,2019-10-15-13-01-19,8,20,0.5770483985975597,right,both,ambiguous-switch,90,0,right,right,0.173
MME2000MRNO,2019-10-15-13-01-19,8,21,0.6910800196927223,left,probe,ambiguous-switch,-1,30,right,right,0.158
MME2000MRNO,2019-10-15-13-01-19,8,22,0.5092480063708038,left,both,ambiguous-switch,105,30,right,right,0.121
MME2000MRNO,2019-10-15-13-01-19,8,23,0.5311561266148679,right,probe,ambiguous-switch,-1,-30,right,right,0.133
MME2000MRNO,2019-10-15-13-01-19,8,24,0.5786557579704277,right,both,ambiguous-switch,96,-30,right,right,0.172
MME2000MRNO,2019-10-15-13-01-19,8,25,0.6744373665695765,right,probe,biased-switch,-1,10,right,right,0.129
MME2000MRNO,2019-10-15-13-01-19,8,26,0.5656825260757375,right,both,biased-switch,90,10,right,left,0.23
MME2000MRNO,2019-10-15-13-01-19,8,27,0.5991416253136869,right,probe,biased-switch,-1,40,right,right,0.327
MME2000MRNO,2019-10-15-13-01-19,8,28,0.6333434258171391,right,both,biased-switch,102,40,right,right,0.1
MME2000MRNO,2019-10-15-13-01-19,8,29,0.649881244646342,right,probe,ambiguous-switch,-1,-5,right,right,0.148
MME2000MRNO,2019-10-15-13-01-19,8,30,0.6878535133439946,right,both,ambiguous-switch,96,-5,right,right,0.166
MME2000MRNO,2019-10-15-13-01-19,8,31,0.6554643374865701,right,probe,biased-switch,-1,-10,right,right,0.146
MME2000MRNO,2019-10-15-13-01-19,8,32,0.6663497501657633,right,both,biased-switch,110,-10,right,right,0.266
MME2000MRNO,2019-10-15-13-01-19,8,33,0.6448534543074446,right,probe,biased-switch,-1,0,right,right,0.235
MME2000MRNO,2019-10-15-13-01-19,8,34,0.6554978057544298,right,both,biased-switch,90,0,right,left,0.495
MME2000MRNO,2019-10-15-13-01-19,8,35,0.5239819080837604,right,probe,ambiguous-switch,-1,-20,right,right,0.576
MME2000MRNO,2019-10-15-13-01-19,8,36,0.6395491314217495,right,both,ambiguous-switch,100,-20,right,right,0.091
MME2000MRNO,2019-10-15-13-01-19,8,37,0.5300990733605438,right,probe,ambiguous-switch,-1,20,right,right,0.15
MME2000MRNO,2019-10-15-13-01-19,8,38,0.5155819391383293,right,both,ambiguous-switch,108,20,right,left,0.144
MME2000MRNO,2019-10-15-13-01-19,8,39,0.5363959217713689,right,probe,biased-switch,-1,-30,left,left,0.209
MME2000MRNO,2019-10-15-13-01-19,8,40,0.6500333010364594,right,both,biased-switch,96,-30,left,left,0.182
MME2000MRNO,2019-10-15-13-01-19,8,41,0.5840768334807466,left,probe,biased-switch,-1,-5,right,right,0.097
MME2000MRNO,2019-10-15-13-01-19,8,42,0.5506950873549924,left,both,biased-switch,98,-5,right,right,0.046
MME2000MRNO,2019-10-15-13-01-19,8,43,0.5275881909691247,left,probe,ambiguous-switch,-1,40,right,right,0.149
MME2000MRNO,2019-10-15-13-01-19,8,44,0.6060780207997278,left,both,ambiguous-switch,93,40,right,right,0.125
MME2000MRNO,2019-10-15-13-01-19,8,45,0.5209948026023099,right,probe,ambiguous-switch,-1,-10,right,right,0.061
MME2000MRNO,2019-10-15-13-01-19,8,46,0.6333837271534604,right,both,ambiguous-switch,99,-10,right,right,0.166
MME2000MRNO,2019-10-15-13-01-19,8,47,0.6361121615418254,right,probe,ambiguous-switch,-1,5,right,right,0.165
MME2000MRNO,2019-10-15-13-01-19,8,48,0.6709259751778517,right,both,ambiguous-switch,95,5,right,right,0.161
MME2000MRNO,2019-10-15-13-01-19,8,49,0.5890201365930424,left,probe,biased-switch,-1,20,right,right,1.901
MME2000MRNO,2019-10-15-13-01-19,8,50,0.682245839346391,left,both,biased-switch,99,20,right,right,0.134
MME2000MRNO,2019-10-15-13-01-19,8,51,0.6585848768420642,left,probe,biased-switch,-1,-20,right,right,0.083
MME2000MRNO,2019-10-15-13-01-19,8,52,0.6082999474819699,left,both,biased-switch,102,-20,right,right,0.174
MME2000MRNO,2019-10-15-13-01-19,8,53,0.6710470842907186,right,probe,biased-switch,-1,5,right,right,0.16
MME2000MRNO,2019-10-15-13-01-19,8,54,0.5908742793119554,right,both,biased-switch,105,5,right,left,0.133
MME2000MRNO,2019-10-15-13-01-19,8,55,0.6525792650879242,left,probe,ambiguous-switch,-1,10,right,right,0.155
MME2000MRNO,2019-10-15-13-01-19,8,56,0.562144211220946,left,both,ambiguous-switch,103,10,right,left,0.237
MME2000MRNO,2019-10-15-13-01-19,8,57,0.591257175727251,right,probe,biased-switch,-1,30,right,right,0.0
MME2000MRNO,2019-10-15-13-01-19,8,58,0.6243332750125969,right,both,biased-switch,97,30,right,left,0.141
MME2000MRNO,2019-10-15-13-01-19,8,59,0.5628877419941456,left,probe,ambiguous-switch,-1,0,right,right,0.14
MME2000MRNO,2019-10-15-13-01-19,8,60,0.5807680399889612,left,both,ambiguous-switch,95,0,right,right,0.276
MME2000MRNO,2019-10-15-13-01-19,8,61,0.6178388131741281,left,probe,ambiguous-switch,-1,30,right,right,0.148
MME2000MRNO,2019-10-15-13-01-19,8,62,0.6501862298508398,left,both,ambiguous-switch,104,30,right,right,0.009
MME2000MRNO,2019-10-15-13-01-19,8,63,0.6582606909859801,right,probe,ambiguous-switch,-1,-30,right,right,0.008
MME2000MRNO,2019-10-15-13-01-19,8,64,0.5462633520025713,right,both,ambiguous-switch,102,-30,right,right,0.188
MME2000MRNO,2019-10-15-13-01-19,8,65,0.5381084885961558,right,probe,biased-switch,-1,10,right,right,0.173
MME2000MRNO,2019-10-15-13-01-19,8,66,0.6705834094501262,right,both,biased-switch,92,10,right,left,0.212
MME2000MRNO,2019-10-15-13-01-19,8,67,0.5366770606576055,left,probe,biased-switch,-1,40,right,right,0.086
MME2000MRNO,2019-10-15-13-01-19,8,68,0.5799355687985015,left,both,biased-switch,97,40,right,right,0.152
MME2000MRNO,2019-10-15-13-01-19,8,69,0.6182924685602365,left,probe,ambiguous-switch,-1,-5,right,right,0.179
MME2000MRNO,2019-10-15-13-01-19,8,70,0.5500968556559978,left,both,ambiguous-switch,99,-5,right,right,0.158
MME2000MRNO,2019-10-15-13-01-19,8,71,0.6373359324454284,left,probe,biased-switch,-1,-10,right,right,0.198
MME2000MRNO,2019-10-15-13-01-19,8,72,0.6733063344848229,left,both,biased-switch,103,-10,right,right,0.19
MME2000MRNO,2019-10-15-13-01-19,8,73,0.6159778247130334,right,probe,biased-switch,-1,0,right,right,0.18
MME2000MRNO,2019-10-15-13-01-19,8,74,0.6459161822695457,right,both,biased-switch,91,0,right,left,0.222
MME2000MRNO,2019-10-15-13-01-19,8,75,0.5307841043187164,right,probe,ambiguous-switch,-1,-20,right,right,0.405
MME2000MRNO,2019-10-15-13-01-19,8,76,0.6014287647015709,right,both,ambiguous-switch,96,-20,right,left,0.221
MME2000MRNO,2019-10-15-13-01-19,8,77,0.6656317374602041,left,probe,ambiguous-switch,-1,20,right,right,0.134
MME2000MRNO,2019-10-15-13-01-19,8,78,0.5621150681190682,left,both,ambiguous-switch,100,20,right,left,0.164
MME2000MRNO,2019-10-15-13-01-19,8,79,0.6570760274016938,right,probe,biased-switch,-1,-30,left,left,0.249
MME2000MRNO,2019-10-15-13-01-19,8,80,0.6212851614688417,right,both,biased-switch,104,-30,left,left,0.354
MME2000MRNO,2019-10-15-13-01-19,9,1,0.6906071323804022,right,probe,biased-switch,-1,-30,left,left,0.196
MME2000MRNO,2019-10-15-13-01-19,9,2,0.5689922627245403,right,both,biased-switch,91,-30,left,left,0.018
MME2000MRNO,2019-10-15-13-01-19,9,3,0.6635218610390331,right,probe,biased-switch,-1,5,left,left,0.099
MME2000MRNO,2019-10-15-13-01-19,9,4,0.6179891415639178,right,both,biased-switch,102,5,left,right,0.138
MME2000MRNO,2019-10-15-13-01-19,9,5,0.5406869989274249,left,probe,biased-switch,-1,-20,left,left,0.163
MME2000MRNO,2019-10-15-13-01-19,9,6,0.6781133061612024,left,both,biased-switch,94,-20,left,left,0.148
MME2000MRNO,2019-10-15-13-01-19,9,7,0.5908519878827306,right,probe,biased-switch,-1,30,left,left,0.142
MME2000MRNO,2019-10-15-13-01-19,9,8,0.5887006668800484,right,both,biased-switch,100,30,left,left,0.107
MME2000MRNO,2019-10-15-13-01-19,9,9,0.6022195594787375,left,probe,biased-switch,-1,0,left,left,0.189
MME2000MRNO,2019-10-15-13-01-19,9,10,0.6553512959797423,left,both,biased-switch,95,0,left,right,0.174
MME2000MRNO,2019-10-15-13-01-19,9,11,0.59105946969949,left,probe,biased-switch,-1,10,right,right,0.106
MME2000MRNO,2019-10-15-13-01-19,9,12,0.6423926545556488,left,both,biased-switch,101,10,right,left,0.168
MME2000MRNO,2019-10-15-13-01-19,9,13,0.5280183510226922,left,probe,ambiguous-switch,-1,0,right,right,0.121
MME2000MRNO,2019-10-15-13-01-19,9,14,0.5817416864244369,left,both,ambiguous-switch,92,0,right,left,0.253
MME2000MRNO,2019-10-15-13-01-19,9,15,0.5941272539761394,left,probe,ambiguous-switch,-1,-30,left,left,0.125
MME2000MRNO,2019-10-15-13-01-19,9,16,0.6717839767014887,left,both,ambiguous-switch,102,-30,left,left,0.402
MME2000MRNO,2019-10-15-13-01-19,9,17,0.6507409457026658,left,probe,biased-switch,-1,40,left,left,0.266
MME2000MRNO,2019-10-15-13-01-19,9,18,0.6401719972657113,left,both,biased-switch,98,40,left,right,0.173
MME2000MRNO,2019-10-15-13-01-19,9,19,0.5402980857450184,right,probe,ambiguous-switch,-1,5,left,left,0.188
MME2000MRNO,2019-10-15-13-01-19,9,20,0.659742191635489,right,both,ambiguous-switch,95,5,left,left,0.31
MME2000MRNO,2019-10-15-13-01-19,9,21,0.597557600147889,right,probe,ambiguous-switch,-1,-5,left,left,0.213
MME2000MRNO,2019-10-15-13-01-19,9,22,0.5564567575159005,right,both,ambiguous-switch,110,-5,left,left,0.151
MME2000MRNO,2019-10-15-13-01-19,9,23,0.5217181561712831,left,probe,ambiguous-switch,-1,-20,left,left,0.067
MME2000MRNO,2019-10-15-13-01-19,9,24,0.5340660129341694,left,both,ambiguous-switch,99,-20,left,left,0.132
MME2000MRNO,2019-10-15-13-01-19,9,25,0.6240195484488722,left,probe,biased-switch,-1,-5,left,left,0.173
MME2000MRNO,2019-10-15-13-01-19,9,26,0.6437313511542917,left,both,biased-switch,99,-5,left,left,0.186
MME2000MRNO,2019-10-15-13-01-19,9,27,0.5720706863543418,left,probe,ambiguous-switch,-1,-10,left,left,0.093
MME2000MRNO,2019-10-15-13-01-19,9,28,0.6064017840707602,left,both,ambiguous-switch,110,-10,left,left,0.281
MME2000MRNO,2019-10-15-13-01-19,9,29,0.6115301750379469,right,probe,biased-switch,-1,-10,left,left,0.39
MME2000MRNO,2019-10-15-13-01-19,9,30,0.6978284716540786,right,both,biased-switch,96,-10,left,left,0.039
MME2000MRNO,2019-10-15-13-01-19,9,31,0.6838826738153818,left,probe,ambiguous-switch,-1,30,left,left,0.074
MME2000MRNO,2019-10-15-13-01-19,9,32,0.6634308019732434,left,both,ambiguous-switch,96,30,left,left,0.228
MME2000MRNO,2019-10-15-13-01-19,9,33,0.5986779908051242,left,probe,ambiguous-switch,-1,20,left,left,0.176
MME2000MRNO,2019-10-15-13-01-19,9,34,0.6445482101047765,left,both,ambiguous-switch,106,20,left,left,0.183
MME2000MRNO,2019-10-15-13-01-19,9,35,0.5742472586390944,left,probe,biased-switch,-1,20,left,left,0.193
MME2000MRNO,2019-10-15-13-01-19,9,36,0.5507720647515904,left,both,biased-switch,94,20,left,left,0.157
MME2000MRNO,2019-10-15-13-01-19,9,37,0.6542929104500284,right,probe,ambiguous-switch,-1,10,left,left,0.17
MME2000MRNO,2019-10-15-13-01-19,9,38,0.519667705974585,right,both,ambiguous-switch,95,10,left,left,0.238
MME2000MRNO,2019-10-15-13-01-19,9,39,0.6589204708754404,right,probe,ambiguous-switch,-1,40,left,left,0.187
MME2000MRNO,2019-10-15-13-01-19,9,40,0.5460869283786542,right,both,ambiguous-switch,104,40,left,left,0.2
MME2000MRNO,2019-10-15-13-01-19,9,41,0.5936121464537559,right,probe,biased-switch,-1,-30,left,left,0.253
MME2000MRNO,2019-10-15-13-01-19,9,42,0.6841397465773342,right,both,biased-switch,92,-30,left,left,0.297
MME2000MRNO,2019-10-15-13-01-19,9,43,0.674929579775236,right,probe,biased-switch,-1,5,left,left,0.144
MME2000MRNO,2019-10-15-13-01-19,9,44,0.5629590923889273,right,both,biased-switch,91,5,left,right,0.194
MME2000MRNO,2019-10-15-13-01-19,9,45,0.6823256269985503,left,probe,biased-switch,-1,-20,left,left,0.193
MME2000MRNO,2019-10-15-13-01-19,9,46,0.5367224771501165,left,both,biased-switch,97,-20,left,left,0.026
MME2000MRNO,2019-10-15-13-01-19,9,47,0.6336677132683982,right,probe,biased-switch,-1,30,left,left,0.135
MME2000MRNO,2019-10-15-13-01-19,9,48,0.564983929410325,right,both,biased-switch,104,30,left,left,0.466
MME2000MRNO,2019-10-15-13-01-19,9,49,0.578029114918458,right,probe,biased-switch,-1,0,left,left,0.131
MME2000MRNO,2019-10-15-13-01-19,9,50,0.5898056222101868,right,both,biased-switch,90,0,left,right,0.194
MME2000MRNO,2019-10-15-13-01-19,9,51,0.6009076607830147,right,probe,biased-switch,-1,10,right,right,0.177
MME2000MRNO,2019-10-15-13-01-19,9,52,0.6997216169208764,right,both,biased-switch,94,10,right,left,0.239
MME2000MRNO,2019-10-15-13-01-19,9,53,0.5705090440850218,right,probe,ambiguous-switch,-1,0,left,left,0.177
MME2000MRNO,2019-10-15-13-01-19,9,54,0.6931011213078371,right,both,ambiguous-switch,98,0,left,right,0.221
MME2000MRNO,2019-10-15-13-01-19,9,55,0.688114820093733,left,probe,ambiguous-switch,-1,-30,left,left,0.212
MME2000MRNO,2019-10-15-13-01-19,9,56,0.6363703394816844,left,both,ambiguous-switch,108,-30,left,left,0.195
MME2000MRNO,2019-10-15-13-01-19,9,57,0.5009970595889293,left,probe,biased-switch,-1,40,left,left,0.16
MME2000MRNO,2019-10-15-13-01-19,9,58,0.5856889306855606,left,both,biased-switch,109,40,left,left,0.194
MME2000MRNO,2019-10-15-13-01-19,9,59,0.551123204835908,left,probe,ambiguous-switch,-1,5,left,left,0.136
MME2000MRNO,2019-10-15-13-01-19,9,60,0.5292480681308448,left,both,ambiguous-switch,100,5,left,left,0.148
MME2000MRNO,2019-10-15-13-01-19,9,61,0.536682665676476,right,probe,ambiguous-switch,-1,-5,left,left,0.039
MME2000MRNO,2019-10-15-13-01-19,9,62,0.5806205593819452,right,both,ambiguous-switch,104,-5,left,right,0.737
MME2000MRNO,2019-10-15-13-01-19,9,63,0.6418190688332177,left,probe,ambiguous-switch,-1,-20,left,left,0.066
MME2000MRNO,2019-10-15-13-01-19,9,64,0.6288987665816176,left,both,ambiguous-switch,106,-20,left,left,0.127
MME2000MRNO,2019-10-15-13-01-19,9,65,0.5309962904118182,left,probe,biased-switch,-1,-5,left,left,0.052
MME2000MRNO,2019-10-15-13-01-19,9,66,0.5622017246802724,left,both,biased-switch,92,-5,left,left,0.103
MME2000MRNO,2019-10-15-13-01-19,9,67,0.5894097644376614,right,probe,ambiguous-switch,-1,-10,left,left,0.096
MME2000MRNO,2019-10-15-13-01-19,9,68,0.6643489347721843,right,both,ambiguous-switch,106,-10,left,left,0.097
MME2000MRNO,2019-10-15-13-01-19,9,69,0.6320143227732369,left,probe,biased-switch,-1,-10,left,left,0.062
MME2000MRNO,2019-10-15-13-01-19,9,70,0.620009818119964,left,both,biased-switch,107,-10,left,left,0.041
MME2000MRNO,2019-10-15-13-01-19,9,71,0.6985465536952732,left,probe,ambiguous-switch,-1,30,left,left,0.034
MME2000MRNO,2019-10-15-13-01-19,9,72,0.5707031660537006,left,both,ambiguous-switch,105,30,left,left,0.152
MME2000MRNO,2019-10-15-13-01-19,9,73,0.5639107556729458,left,probe,ambiguous-switch,-1,20,left,left,0.078
MME2000MRNO,2019-10-15-13-01-19,9,74,0.5440821035542498,left,both,ambiguous-switch,101,20,left,left,0.141
MME2000MRNO,2019-10-15-13-01-19,9,75,0.6609311461735128,right,probe,biased-switch,-1,20,left,left,0.157
MME2000MRNO,2019-10-15-13-01-19,9,76,0.6000236890670272,right,both,biased-switch,99,20,left,right,0.187
MME2000MRNO,2019-10-15-13-01-19,9,77,0.648565296132881,right,probe,ambiguous-switch,-1,10,left,left,0.156
MME2000MRNO,2019-10-15-13-01-19,9,78,0.6265143167806742,right,both,ambiguous-switch,90,10,left,right,0.082
MME2000MRNO,2019-10-15-13-01-19,9,79,0.5906828978680474,left,probe,ambiguous-switch,-1,40,left,left,0.266
MME2000MRNO,2019-10-15-13-01-19,9,80,0.5189550901727076,left,both,ambiguous-switch,91,40,left,left,0.042
MME2000MRNO,2019-10-15-13-01-19,10,1,0.6344279997985384,right,probe,biased-switch,-1,30,left,left,0.017
MME2000MRNO,2019-10-15-13-01-19,10,2,0.6228338191612732,right,both,biased-switch,95,30,left,left,0.116
MME2000MRNO,2019-10-15-13-01-19,10,3,0.5799091996542457,left,probe,biased-switch,-1,-20,left,left,0.125
MME2000MRNO,2019-10-15-13-01-19,10,4,0.6561367522482686,left,both,biased-switch,105,-20,left,left,0.046
MME2000MRNO,2019-10-15-13-01-19,10,5,0.6205830509079449,left,probe,biased-switch,-1,0,left,left,0.128
MME2000MRNO,2019-10-15-13-01-19,10,6,0.592464286876147,left,both,biased-switch,95,0,left,left,0.062
MME2000MRNO,2019-10-15-13-01-19,10,7,0.5111996957157554,left,probe,ambiguous-switch,-1,5,left,left,0.088
MME2000MRNO,2019-10-15-13-01-19,10,8,0.6657114803441949,left,both,ambiguous-switch,109,5,left,left,0.152
MME2000MRNO,2019-10-15-13-01-19,10,9,0.5300654686967177,left,probe,ambiguous-switch,-1,40,left,left,0.154
MME2000MRNO,2019-10-15-13-01-19,10,10,0.6181663665104444,left,both,ambiguous-switch,98,40,left,left,0.206
MME2000MRNO,2019-10-15-13-01-19,10,11,0.6643465899856256,right,probe,biased-switch,-1,-30,left,left,0.053
MME2000MRNO,2019-10-15-13-01-19,10,12,0.5866798534480548,right,both,biased-switch,109,-30,left,left,0.256
MME2000MRNO,2019-10-15-13-01-19,10,13,0.5739170366186308,right,probe,biased-switch,-1,-10,left,left,0.049
MME2000MRNO,2019-10-15-13-01-19,10,14,0.544798247377135,right,both,biased-switch,107,-10,left,right,0.223
MME2000MRNO,2019-10-15-13-01-19,10,15,0.5907822571513736,left,probe,ambiguous-switch,-1,0,left,left,0.681
MME2000MRNO,2019-10-15-13-01-19,10,16,0.660999126733685,left,both,ambiguous-switch,100,0,left,left,0.199
MME2000MRNO,2019-10-15-13-01-19,10,17,0.5518918707453159,right,probe,ambiguous-switch,-1,-30,left,left,0.087
MME2000MRNO,2019-10-15-13-01-19,10,18,0.6330377879559832,right,both,ambiguous-switch,93,-30,left,left,0.131
MME2000MRNO,2019-10-15-13-01-19,10,19,0.5468945527122023,right,probe,ambiguous-switch,-1,-20,left,left,0.183
MME2000MRNO,2019-10-15-13-01-19,10,20,0.5196267067463691,right,both,ambiguous-switch,103,-20,left,left,0.211
MME2000MRNO,2019-10-15-13-01-19,10,21,0.6973429898880658,right,probe,biased-switch,-1,-5,left,left,0.105
MME2000MRNO,2019-10-15-13-01-19,10,22,0.5767942925217382,right,both,biased-switch,104,-5,left,right,0.232
MME2000MRNO,2019-10-15-13-01-19,10,23,0.5668295285191862,left,probe,biased-switch,-1,10,left,left,0.223
MME2000MRNO,2019-10-15-13-01-19,10,24,0.6249901139743724,left,both,biased-switch,93,10,left,right,0.173
MME2000MRNO,2019-10-15-13-01-19,10,25,0.6558615274282918,left,probe,biased-switch,-1,40,right,right,0.178
MME2000MRNO,2019-10-15-13-01-19,10,26,0.667344078285177,left,both,biased-switch,95,40,right,right,0.034
MME2000MRNO,2019-10-15-13-01-19,10,27,0.6131838818632696,right,probe,biased-switch,-1,20,left,left,0.173
MME2000MRNO,2019-10-15-13-01-19,10,28,0.6077874539545679,right,both,biased-switch,110,20,left,right,0.315
MME2000MRNO,2019-10-15-13-01-19,10,29,0.5904698032933305,left,probe,ambiguous-switch,-1,20,left,left,0.302
MME2000MRNO,2019-10-15-13-01-19,10,30,0.5770087369701771,left,both,ambiguous-switch,92,20,left,right,0.127
MME2000MRNO,2019-10-15-13-01-19,10,31,0.5279409456853563,right,probe,ambiguous-switch,-1,30,left,left,0.157
MME2000MRNO,2019-10-15-13-01-19,10,32,0.5595793695740083,right,both,ambiguous-switch,96,30,left,left,0.166
MME2000MRNO,2019-10-15-13-01-19,10,33,0.6021728414757188,left,probe,biased-switch,-1,5,left,left,0.213
MME2000MRNO,2019-10-15-13-01-19,10,34,0.6766138597099506,left,both,biased-switch,104,5,left,right,0.285
MME2000MRNO,2019-10-15-13-01-19,10,35,0.6237400657633334,left,probe,ambiguous-switch,-1,-10,right,right,0.198
MME2000MRNO,2019-10-15-13-01-19,10,36,0.5809271724763279,left,both,ambiguous-switch,97,-10,right,right,0.344
MME2000MRNO,2019-10-15-13-01-19,10,37,0.6482619009636115,right,probe,ambiguous-switch,-1,-5,left,left,0.229
MME2000MRNO,2019-10-15-13-01-19,10,38,0.5940629499956712,right,both,ambiguous-switch,101,-5,left,left,0.142
MME2000MRNO,2019-10-15-13-01-19,10,39,0.5675385512280519,left,probe,ambiguous-switch,-1,10,right,right,0.123
MME2000MRNO,2019-10-15-13-01-19,10,40,0.6996724556394247,left,both,ambiguous-switch,99,10,right,left,0.238
MME2000MRNO,2019-10-15-13-01-19,10,41,0.5561507667919989,right,probe,biased-switch,-1,30,right,right,0.013
MME2000MRNO,2019-10-15-13-01-19,10,42,0.5024200214406194,right,both,biased-switch,104,30,right,left,0.173
MME2000MRNO,2019-10-15-13-01-19,10,43,0.5587460158309365,left,probe,biased-switch,-1,-20,right,right,0.164
MME2000MRNO,2019-10-15-13-01-19,10,44,0.5007462668144794,left,both,biased-switch,104,-20,right,right,1.796
MME2000MRNO,2019-10-15-13-01-19,10,45,0.5954636678288009,right,probe,biased-switch,-1,0,right,right,0.259
MME2000MRNO,2019-10-15-13-01-19,10,46,0.5942298566678584,right,both,biased-switch,98,0,right,left,0.377
MME2000MRNO,2019-10-15-13-01-19,10,47,0.6441429233796332,right,probe,ambiguous-switch,-1,5,left,left,0.128
MME2000MRNO,2019-10-15-13-01-19,10,48,0.525504600633619,right,both,ambiguous-switch,91,5,left,right,0.235
MME2000MRNO,2019-10-15-13-01-19,10,49,0.5389698289046998,left,probe,ambiguous-switch,-1,40,right,right,0.077
MME2000MRNO,2019-10-15-13-01-19,10,50,0.5110629834129979,left,both,ambiguous-switch,93,40,right,right,3.027
MME2000MRNO,2019-10-15-13-01-19,10,51,0.5925833035486129,right,probe,biased-switch,-1,-30,right,right,0.168
MME2000MRNO,2019-10-15-13-01-19,10,52,0.5158657908398135,right,both,biased-switch,96,-30,right,right,0.071
MME2000MRNO,2019-10-15-13-01-19,10,53,0.6250708578576398,left,probe,biased-switch,-1,-10,right,right,0.051
MME2000MRNO,2019-10-15-13-01-19,10,54,0.6469525130860146,left,both,biased-switch,99,-10,right,right,0.053
MME2000MRNO,2019-10-15-13-01-19,10,55,0.5878514973678352,left,probe,ambiguous-switch,-1,0,right,right,1.297
MME2000MRNO,2019-10-15-13-01-19,10,56,0.6975989055586855,left,both,ambiguous-switch,108,0,right,right,0.044
MME2000MRNO,2019-10-15-13-01-19,10,57,0.635595079449169,left,probe,ambiguous-switch,-1,-30,right,right,0.087
MME2000MRNO,2019-10-15-13-01-19,10,58,0.5348483018084732,left,both,ambiguous-switch,100,-30,right,right,0.048
MME2000MRNO,2019-10-15-13-01-19,10,59,0.6821625574691461,left,probe,ambiguous-switch,-1,-20,right,right,0.083
MME2000MRNO,2019-10-15-13-01-19,10,60,0.5160479829494108,left,both,ambiguous-switch,91,-20,right,right,0.112
MME2000MRNO,2019-10-15-13-01-19,10,61,0.6081583184435472,right,probe,biased-switch,-1,-5,right,right,0.067
MME2000MRNO,2019-10-15-13-01-19,10,62,0.6817114674479903,right,both,biased-switch,98,-5,right,right,0.189
MME2000MRNO,2019-10-15-13-01-19,10,63,0.6211079542014345,right,probe,biased-switch,-1,10,right,right,0.045
MME2000MRNO,2019-10-15-13-01-19,10,64,0.6321890703945552,right,both,biased-switch,98,10,right,left,0.118
MME2000MRNO,2019-10-15-13-01-19,10,65,0.5491404749425278,left,probe,biased-switch,-1,40,right,right,0.021
MME2000MRNO,2019-10-15-13-01-19,10,66,0.544383425734503,left,both,biased-switch,109,40,right,right,0.022
MME2000MRNO,2019-10-15-13-01-19,10,67,0.6727449925460028,right,probe,biased-switch,-1,20,right,right,0.054
MME2000MRNO,2019-10-15-13-01-19,10,68,0.6120463633639259,right,both,biased-switch,92,20,right,left,0.047
MME2000MRNO,2019-10-15-13-01-19,10,69,0.6229068380554164,right,probe,ambiguous-switch,-1,20,left,left,0.206
MME2000MRNO,2019-10-15-13-01-19,10,70,0.6250812825984475,right,both,ambiguous-switch,107,20,left,right,0.179
MME2000MRNO,2019-10-15-13-01-19,10,71,0.6955468099052219,right,probe,ambiguous-switch,-1,30,right,right,0.155
MME2000MRNO,2019-10-15-13-01-19,10,72,0.6317707012125984,right,both,ambiguous-switch,95,30,right,right,0.034
MME2000MRNO,2019-10-15-13-01-19,10,73,0.5222090531541427,left,probe,biased-switch,-1,5,left,left,0.164
MME2000MRNO,2019-10-15-13-01-19,10,74,0.5430690364939572,left,both,biased-switch,105,5,left,right,0.043
MME2000MRNO,2019-10-15-13-01-19,10,75,0.5424865341735445,left,probe,ambiguous-switch,-1,-10,right,right,0.096
MME2000MRNO,2019-10-15-13-01-19,10,76,0.5620137422542402,left,both,ambiguous-switch,106,-10,right,right,0.067
MME2000MRNO,2019-10-15-13-01-19,10,77,0.6342783076107761,right,probe,ambiguous-switch,-1,-5,right,right,1.835
MME2000MRNO,2019-10-15-13-01-19,10,78,0.6244128518025192,right,both,ambiguous-switch,99,-5,right,right,0.078
MME2000MRNO,2019-10-15-13-01-19,10,79,0.6881635856241795,left,probe,ambiguous-switch,-1,10,right,right,0.155
MME2000MRNO,2019-10-15-13-01-19,10,80,0.5029750847132886,left,both,ambiguous-switch,96,10,right,left,0.093
