Participant,Session,Block,Trial,OnsetDelay,ProbeLocation,WhatIsReported,Condition,TriggerTime,ProbeSOA,PrimeDirection,Response,RT
MON1991WRNO,2019-10-28-12-02-46,1,1,0.5127436822306974,right,probe,ambiguous-switch,-1,40,right,right,0.466
MON1991WRNO,2019-10-28-12-02-46,1,2,0.5750636789681695,right,both,ambiguous-switch,102,40,right,right,0.282
MON1991WRNO,2019-10-28-12-02-46,1,3,0.5963580201043617,left,probe,biased-switch,-1,-20,right,right,0.345
MON1991WRNO,2019-10-28-12-02-46,1,4,0.5010684986504019,left,both,biased-switch,100,-20,right,right,0.186
MON1991WRNO,2019-10-28-12-02-46,1,5,0.5684271326712624,left,probe,biased-switch,-1,20,right,right,0.224
MON1991WRNO,2019-10-28-12-02-46,1,6,0.5835413096059966,left,both,biased-switch,109,20,right,right,0.214
MON1991WRNO,2019-10-28-12-02-46,1,7,0.533295800117211,right,probe,ambiguous-switch,-1,20,right,right,0.218
MON1991WRNO,2019-10-28-12-02-46,1,8,0.5773261633877395,right,both,ambiguous-switch,99,20,right,right,0.2
MON1991WRNO,2019-10-28-12-02-46,1,9,0.647235720734084,left,probe,ambiguous-switch,-1,0,right,right,0.237
MON1991WRNO,2019-10-28-12-02-46,1,10,0.6184473860638582,left,both,ambiguous-switch,98,0,right,right,0.226
MON1991WRNO,2019-10-28-12-02-46,1,11,0.661768061912791,right,probe,biased-switch,-1,40,right,right,0.207
MON1991WRNO,2019-10-28-12-02-46,1,12,0.5269852381801794,right,both,biased-switch,96,40,right,right,0.243
MON1991WRNO,2019-10-28-12-02-46,1,13,0.5093124521203679,right,probe,biased-switch,-1,10,right,right,0.235
MON1991WRNO,2019-10-28-12-02-46,1,14,0.6593421051111645,right,both,biased-switch,94,10,right,right,0.088
MON1991WRNO,2019-10-28-12-02-46,1,15,0.6091088718693548,right,probe,ambiguous-switch,-1,30,right,right,0.007
MON1991WRNO,2019-10-28-12-02-46,1,16,0.5296718514302302,right,both,ambiguous-switch,101,30,right,right,0.182
MON1991WRNO,2019-10-28-12-02-46,1,17,0.6459985635166566,left,probe,ambiguous-switch,-1,-5,right,right,0.222
MON1991WRNO,2019-10-28-12-02-46,1,18,0.5735968452225785,left,both,ambiguous-switch,103,-5,right,right,0.218
MON1991WRNO,2019-10-28-12-02-46,1,19,0.61716785194226,left,probe,ambiguous-switch,-1,-30,right,right,0.212
MON1991WRNO,2019-10-28-12-02-46,1,20,0.5748310087152579,left,both,ambiguous-switch,94,-30,right,right,0.203
MON1991WRNO,2019-10-28-12-02-46,1,21,0.5912737805043716,right,probe,ambiguous-switch,-1,5,right,right,0.22
MON1991WRNO,2019-10-28-12-02-46,1,22,0.6695576747575703,right,both,ambiguous-switch,94,5,right,right,0.191
MON1991WRNO,2019-10-28-12-02-46,1,23,0.6904191548936834,left,probe,ambiguous-switch,-1,-10,right,right,0.23
MON1991WRNO,2019-10-28-12-02-46,1,24,0.6817820912588373,left,both,ambiguous-switch,97,-10,right,right,0.214
MON1991WRNO,2019-10-28-12-02-46,1,25,0.6714105212985446,left,probe,biased-switch,-1,-30,right,right,0.203
MON1991WRNO,2019-10-28-12-02-46,1,26,0.538417650366145,left,both,biased-switch,95,-30,right,right,0.023
MON1991WRNO,2019-10-28-12-02-46,1,27,0.5909008010962475,right,probe,biased-switch,-1,30,right,right,0.172
MON1991WRNO,2019-10-28-12-02-46,1,28,0.6604188426025666,right,both,biased-switch,100,30,right,right,0.203
MON1991WRNO,2019-10-28-12-02-46,1,29,0.6458653176796997,right,probe,biased-switch,-1,0,right,right,0.2
MON1991WRNO,2019-10-28-12-02-46,1,30,0.5406796541796981,right,both,biased-switch,99,0,right,right,0.147
MON1991WRNO,2019-10-28-12-02-46,1,31,0.6404363396833374,right,probe,biased-switch,-1,5,right,right,0.016
MON1991WRNO,2019-10-28-12-02-46,1,32,0.6728284772764517,right,both,biased-switch,101,5,right,right,0.189
MON1991WRNO,2019-10-28-12-02-46,1,33,0.6851648365822434,right,probe,biased-switch,-1,-5,right,right,0.217
MON1991WRNO,2019-10-28-12-02-46,1,34,0.6388606475959322,right,both,biased-switch,93,-5,right,right,0.195
MON1991WRNO,2019-10-28-12-02-46,1,35,0.6747649218086709,right,probe,biased-switch,-1,-10,right,right,0.221
MON1991WRNO,2019-10-28-12-02-46,1,36,0.5114982296826187,right,both,biased-switch,107,-10,right,right,0.232
MON1991WRNO,2019-10-28-12-02-46,1,37,0.6111964543820901,left,probe,ambiguous-switch,-1,10,right,right,0.238
MON1991WRNO,2019-10-28-12-02-46,1,38,0.509440357785898,left,both,ambiguous-switch,105,10,right,right,0.202
MON1991WRNO,2019-10-28-12-02-46,1,39,0.623279846618914,right,probe,ambiguous-switch,-1,-20,right,right,0.175
MON1991WRNO,2019-10-28-12-02-46,1,40,0.6174554202823376,right,both,ambiguous-switch,100,-20,right,right,0.111
MON1991WRNO,2019-10-28-12-02-46,1,41,0.6779100435574477,right,probe,ambiguous-switch,-1,40,right,right,0.195
MON1991WRNO,2019-10-28-12-02-46,1,42,0.5396485366829828,right,both,ambiguous-switch,92,40,right,right,0.223
MON1991WRNO,2019-10-28-12-02-46,1,43,0.5468657570557924,left,probe,biased-switch,-1,-20,right,right,0.205
MON1991WRNO,2019-10-28-12-02-46,1,44,0.6552550828629455,left,both,biased-switch,91,-20,right,right,0.183
MON1991WRNO,2019-10-28-12-02-46,1,45,0.5863700129165018,right,probe,biased-switch,-1,20,right,right,0.083
MON1991WRNO,2019-10-28-12-02-46,1,46,0.5086437743520468,right,both,biased-switch,106,20,right,right,0.226
MON1991WRNO,2019-10-28-12-02-46,1,47,0.6996183415424115,right,probe,ambiguous-switch,-1,20,right,right,0.215
MON1991WRNO,2019-10-28-12-02-46,1,48,0.6716423007325768,right,both,ambiguous-switch,91,20,right,right,0.245
MON1991WRNO,2019-10-28-12-02-46,1,49,0.6871151309831229,right,probe,ambiguous-switch,-1,0,right,right,0.237
MON1991WRNO,2019-10-28-12-02-46,1,50,0.6484971374071039,right,both,ambiguous-switch,104,0,right,right,0.217
MON1991WRNO,2019-10-28-12-02-46,1,51,0.6722060999821193,left,probe,biased-switch,-1,40,right,right,0.201
MON1991WRNO,2019-10-28-12-02-46,1,52,0.5879981314261107,left,both,biased-switch,98,40,right,right,0.09
MON1991WRNO,2019-10-28-12-02-46,1,53,0.5719864243001301,left,probe,biased-switch,-1,10,right,right,0.377
MON1991WRNO,2019-10-28-12-02-46,1,54,0.6946567605086859,left,both,biased-switch,93,10,right,right,0.221
MON1991WRNO,2019-10-28-12-02-46,1,55,0.5734830788642641,right,probe,ambiguous-switch,-1,30,right,right,0.267
MON1991WRNO,2019-10-28-12-02-46,1,56,0.537410594530327,right,both,ambiguous-switch,99,30,right,right,0.19
MON1991WRNO,2019-10-28-12-02-46,1,57,0.6944611208935461,left,probe,ambiguous-switch,-1,-5,right,right,0.232
MON1991WRNO,2019-10-28-12-02-46,1,58,0.6696883074619688,left,both,ambiguous-switch,98,-5,right,right,0.216
MON1991WRNO,2019-10-28-12-02-46,1,59,0.5532906391692873,left,probe,ambiguous-switch,-1,-30,right,right,0.252
MON1991WRNO,2019-10-28-12-02-46,1,60,0.5246474790976967,left,both,ambiguous-switch,95,-30,right,right,0.283
MON1991WRNO,2019-10-28-12-02-46,1,61,0.5908331721285174,right,probe,ambiguous-switch,-1,5,right,right,0.268
MON1991WRNO,2019-10-28-12-02-46,1,62,0.5812879660297238,right,both,ambiguous-switch,101,5,right,right,0.189
MON1991WRNO,2019-10-28-12-02-46,1,63,0.5599411313023864,left,probe,ambiguous-switch,-1,-10,right,right,0.19
MON1991WRNO,2019-10-28-12-02-46,1,64,0.6084400480728867,left,both,ambiguous-switch,96,-10,right,right,0.195
MON1991WRNO,2019-10-28-12-02-46,1,65,0.5358046252280724,right,probe,biased-switch,-1,-30,right,right,0.225
MON1991WRNO,2019-10-28-12-02-46,1,66,0.519746112684605,right,both,biased-switch,93,-30,right,right,0.148
MON1991WRNO,2019-10-28-12-02-46,1,67,0.6375338530961914,left,probe,biased-switch,-1,30,right,right,0.014
MON1991WRNO,2019-10-28-12-02-46,1,68,0.504774336196668,left,both,biased-switch,103,30,right,right,1.541
MON1991WRNO,2019-10-28-12-02-46,1,69,0.5322034272066909,right,probe,biased-switch,-1,0,right,right,0.205
MON1991WRNO,2019-10-28-12-02-46,1,70,0.5051101945889751,right,both,biased-switch,97,0,right,right,0.068
MON1991WRNO,2019-10-28-12-02-46,1,71,0.6583080894317065,left,probe,biased-switch,-1,5,right,right,0.114
MON1991WRNO,2019-10-28-12-02-46,1,72,0.6228541229602819,left,both,biased-switch,95,5,right,right,2.567
MON1991WRNO,2019-10-28-12-02-46,1,73,0.5765244515149217,left,probe,biased-switch,-1,-5,right,right,0.095
MON1991WRNO,2019-10-28-12-02-46,1,74,0.5781666229323056,left,both,biased-switch,100,-5,right,right,0.089
MON1991WRNO,2019-10-28-12-02-46,1,75,0.6727155046454789,left,probe,biased-switch,-1,-10,right,right,0.256
MON1991WRNO,2019-10-28-12-02-46,1,76,0.5129323240986351,left,both,biased-switch,97,-10,right,right,0.233
MON1991WRNO,2019-10-28-12-02-46,1,77,0.6479584630073681,left,probe,ambiguous-switch,-1,10,right,right,0.225
MON1991WRNO,2019-10-28-12-02-46,1,78,0.6098280008036655,left,both,ambiguous-switch,97,10,right,right,0.029
MON1991WRNO,2019-10-28-12-02-46,1,79,0.6310543428295233,left,probe,ambiguous-switch,-1,-20,right,right,0.304
MON1991WRNO,2019-10-28-12-02-46,1,80,0.6131706339521562,left,both,ambiguous-switch,93,-20,right,right,0.236
MON1991WRNO,2019-10-28-12-02-46,2,1,0.5610427609114088,left,probe,ambiguous-switch,-1,-10,right,right,0.293
MON1991WRNO,2019-10-28-12-02-46,2,2,0.5504246024807931,left,both,ambiguous-switch,96,-10,right,right,0.026
MON1991WRNO,2019-10-28-12-02-46,2,3,0.5926323080831539,left,probe,ambiguous-switch,-1,10,right,right,0.268
MON1991WRNO,2019-10-28-12-02-46,2,4,0.5875327393892505,left,both,ambiguous-switch,99,10,right,right,0.187
MON1991WRNO,2019-10-28-12-02-46,2,5,0.6358913113632965,right,probe,biased-switch,-1,20,right,right,0.262
MON1991WRNO,2019-10-28-12-02-46,2,6,0.6317416205431491,right,both,biased-switch,99,20,right,right,1.82
MON1991WRNO,2019-10-28-12-02-46,2,7,0.6946030021707892,left,probe,biased-switch,-1,30,right,right,0.281
MON1991WRNO,2019-10-28-12-02-46,2,8,0.6087021644155834,left,both,biased-switch,97,30,right,right,0.269
MON1991WRNO,2019-10-28-12-02-46,2,9,0.6971265351983265,right,probe,biased-switch,-1,-30,right,right,0.252
MON1991WRNO,2019-10-28-12-02-46,2,10,0.6764119867471707,right,both,biased-switch,103,-30,right,right,0.243
MON1991WRNO,2019-10-28-12-02-46,2,11,0.6879072789002376,left,probe,ambiguous-switch,-1,-20,right,right,0.241
MON1991WRNO,2019-10-28-12-02-46,2,12,0.5424954657690123,left,both,ambiguous-switch,102,-20,right,right,0.042
MON1991WRNO,2019-10-28-12-02-46,2,13,0.6214159287607128,left,probe,ambiguous-switch,-1,20,right,right,0.046
MON1991WRNO,2019-10-28-12-02-46,2,14,0.6635264135745897,left,both,ambiguous-switch,96,20,right,right,0.25
MON1991WRNO,2019-10-28-12-02-46,2,15,0.6702852942145852,right,probe,ambiguous-switch,-1,0,right,right,0.206
MON1991WRNO,2019-10-28-12-02-46,2,16,0.6308784227899358,right,both,ambiguous-switch,100,0,right,right,0.057
MON1991WRNO,2019-10-28-12-02-46,2,17,0.5003410788557525,right,probe,ambiguous-switch,-1,40,right,right,0.199
MON1991WRNO,2019-10-28-12-02-46,2,18,0.6616419957244127,right,both,ambiguous-switch,95,40,right,right,0.194
MON1991WRNO,2019-10-28-12-02-46,2,19,0.521208067036617,right,probe,ambiguous-switch,-1,-5,right,right,0.261
MON1991WRNO,2019-10-28-12-02-46,2,20,0.6464960403367515,right,both,ambiguous-switch,95,-5,right,right,1.299
MON1991WRNO,2019-10-28-12-02-46,2,21,0.5705884775358965,right,probe,ambiguous-switch,-1,5,right,right,0.081
MON1991WRNO,2019-10-28-12-02-46,2,22,0.6447348261783894,right,both,ambiguous-switch,103,5,right,right,0.242
MON1991WRNO,2019-10-28-12-02-46,2,23,0.6749264212953912,right,probe,ambiguous-switch,-1,-30,right,right,0.269
MON1991WRNO,2019-10-28-12-02-46,2,24,0.6518511970891014,right,both,ambiguous-switch,103,-30,right,right,1.674
MON1991WRNO,2019-10-28-12-02-46,2,25,0.6807727161244546,right,probe,ambiguous-switch,-1,30,right,right,0.254
MON1991WRNO,2019-10-28-12-02-46,2,26,0.6735513490502707,right,both,ambiguous-switch,102,30,right,right,0.216
MON1991WRNO,2019-10-28-12-02-46,2,27,0.5707837439316925,right,probe,biased-switch,-1,0,right,right,0.183
MON1991WRNO,2019-10-28-12-02-46,2,28,0.6293708038813102,right,both,biased-switch,94,0,right,right,0.229
MON1991WRNO,2019-10-28-12-02-46,2,29,0.6868842847753981,right,probe,biased-switch,-1,40,right,right,0.22
MON1991WRNO,2019-10-28-12-02-46,2,30,0.5562650101990654,right,both,biased-switch,93,40,right,right,0.243
MON1991WRNO,2019-10-28-12-02-46,2,31,0.5271628687007825,left,probe,biased-switch,-1,10,right,right,0.245
MON1991WRNO,2019-10-28-12-02-46,2,32,0.539498808612286,left,both,biased-switch,104,10,right,right,0.165
MON1991WRNO,2019-10-28-12-02-46,2,33,0.6046792664222689,left,probe,biased-switch,-1,-20,right,right,0.211
MON1991WRNO,2019-10-28-12-02-46,2,34,0.5659139675583137,left,both,biased-switch,106,-20,right,right,0.012
MON1991WRNO,2019-10-28-12-02-46,2,35,0.650181520045203,right,probe,biased-switch,-1,-10,right,right,0.204
MON1991WRNO,2019-10-28-12-02-46,2,36,0.6249326701986613,right,both,biased-switch,108,-10,right,right,0.112
MON1991WRNO,2019-10-28-12-02-46,2,37,0.5947161146758841,right,probe,biased-switch,-1,5,right,right,0.188
MON1991WRNO,2019-10-28-12-02-46,2,38,0.6444492567723306,right,both,biased-switch,102,5,right,right,1.466
MON1991WRNO,2019-10-28-12-02-46,2,39,0.586067774383871,left,probe,biased-switch,-1,-5,right,right,0.256
MON1991WRNO,2019-10-28-12-02-46,2,40,0.5608065238847854,left,both,biased-switch,104,-5,right,right,1.211
MON1991WRNO,2019-10-28-12-02-46,2,41,0.6524161598290303,left,probe,ambiguous-switch,-1,-10,right,right,0.268
MON1991WRNO,2019-10-28-12-02-46,2,42,0.6356753536732023,left,both,ambiguous-switch,108,-10,right,right,0.204
MON1991WRNO,2019-10-28-12-02-46,2,43,0.6814380870088292,left,probe,ambiguous-switch,-1,10,right,right,0.032
MON1991WRNO,2019-10-28-12-02-46,2,44,0.5666497077521534,left,both,ambiguous-switch,90,10,right,right,0.107
MON1991WRNO,2019-10-28-12-02-46,2,45,0.6823576479424452,left,probe,biased-switch,-1,20,right,right,0.152
MON1991WRNO,2019-10-28-12-02-46,2,46,0.6968664247449203,left,both,biased-switch,101,20,right,right,0.237
MON1991WRNO,2019-10-28-12-02-46,2,47,0.5329388788219177,right,probe,biased-switch,-1,30,right,right,0.214
MON1991WRNO,2019-10-28-12-02-46,2,48,0.5156528170229909,right,both,biased-switch,92,30,right,right,0.081
MON1991WRNO,2019-10-28-12-02-46,2,49,0.5780380151509353,right,probe,biased-switch,-1,-30,right,right,0.189
MON1991WRNO,2019-10-28-12-02-46,2,50,0.656474973472337,right,both,biased-switch,94,-30,right,right,0.243
MON1991WRNO,2019-10-28-12-02-46,2,51,0.5402392152014232,left,probe,ambiguous-switch,-1,-20,right,right,0.303
MON1991WRNO,2019-10-28-12-02-46,2,52,0.5175009201794253,left,both,ambiguous-switch,105,-20,right,right,0.175
MON1991WRNO,2019-10-28-12-02-46,2,53,0.6730655422306402,right,probe,ambiguous-switch,-1,20,right,right,0.123
MON1991WRNO,2019-10-28-12-02-46,2,54,0.6174011876865074,right,both,ambiguous-switch,106,20,right,right,0.079
MON1991WRNO,2019-10-28-12-02-46,2,55,0.5287745210338006,right,probe,ambiguous-switch,-1,0,right,right,0.106
MON1991WRNO,2019-10-28-12-02-46,2,56,0.5542163198828334,right,both,ambiguous-switch,93,0,right,right,0.268
MON1991WRNO,2019-10-28-12-02-46,2,57,0.6642408240252407,right,probe,ambiguous-switch,-1,40,right,right,0.239
MON1991WRNO,2019-10-28-12-02-46,2,58,0.5390324703845729,right,both,ambiguous-switch,99,40,right,right,0.171
MON1991WRNO,2019-10-28-12-02-46,2,59,0.653745946070237,right,probe,ambiguous-switch,-1,-5,right,right,0.19
MON1991WRNO,2019-10-28-12-02-46,2,60,0.6255842826209281,right,both,ambiguous-switch,98,-5,right,right,1.501
MON1991WRNO,2019-10-28-12-02-46,2,61,0.6306519614762003,right,probe,ambiguous-switch,-1,5,right,right,0.386
MON1991WRNO,2019-10-28-12-02-46,2,62,0.6808215128639771,right,both,ambiguous-switch,92,5,right,right,0.19
MON1991WRNO,2019-10-28-12-02-46,2,63,0.5916024520627584,left,probe,ambiguous-switch,-1,-30,right,right,0.302
MON1991WRNO,2019-10-28-12-02-46,2,64,0.6070317714874012,left,both,ambiguous-switch,94,-30,right,right,0.247
MON1991WRNO,2019-10-28-12-02-46,2,65,0.5458874336471989,right,probe,ambiguous-switch,-1,30,right,right,0.226
MON1991WRNO,2019-10-28-12-02-46,2,66,0.5495797973569359,right,both,ambiguous-switch,100,30,right,right,0.033
MON1991WRNO,2019-10-28-12-02-46,2,67,0.6266194642241874,left,probe,biased-switch,-1,0,right,right,0.221
MON1991WRNO,2019-10-28-12-02-46,2,68,0.6636952595291954,left,both,biased-switch,93,0,right,right,0.24
MON1991WRNO,2019-10-28-12-02-46,2,69,0.500973040101337,right,probe,biased-switch,-1,40,right,right,0.284
MON1991WRNO,2019-10-28-12-02-46,2,70,0.6253682552380124,right,both,biased-switch,109,40,right,right,0.361
MON1991WRNO,2019-10-28-12-02-46,2,71,0.5101349680901169,right,probe,biased-switch,-1,10,right,right,0.402
MON1991WRNO,2019-10-28-12-02-46,2,72,0.5710890662992898,right,both,biased-switch,94,10,right,right,0.327
MON1991WRNO,2019-10-28-12-02-46,2,73,0.6294169123797627,right,probe,biased-switch,-1,-20,right,right,0.296
MON1991WRNO,2019-10-28-12-02-46,2,74,0.6584447932400742,right,both,biased-switch,92,-20,right,right,0.288
MON1991WRNO,2019-10-28-12-02-46,2,75,0.5608053156121843,right,probe,biased-switch,-1,-10,right,right,0.306
MON1991WRNO,2019-10-28-12-02-46,2,76,0.6765813011071188,right,both,biased-switch,98,-10,right,right,0.138
MON1991WRNO,2019-10-28-12-02-46,2,77,0.5703218878295253,right,probe,biased-switch,-1,5,right,right,0.452
MON1991WRNO,2019-10-28-12-02-46,2,78,0.6125085887607196,right,both,biased-switch,108,5,right,right,0.155
MON1991WRNO,2019-10-28-12-02-46,2,79,0.5839513735374994,right,probe,biased-switch,-1,-5,right,right,0.385
MON1991WRNO,2019-10-28-12-02-46,2,80,0.6375212721112334,right,both,biased-switch,102,-5,right,right,0.239
MON1991WRNO,2019-10-28-12-02-46,3,1,0.5109166511512684,left,probe,ambiguous-switch,-1,30,right,right,0.218
MON1991WRNO,2019-10-28-12-02-46,3,2,0.6530843283731435,left,both,ambiguous-switch,104,30,right,right,0.285
MON1991WRNO,2019-10-28-12-02-46,3,3,0.5712555854152779,right,probe,biased-switch,-1,-10,right,right,0.283
MON1991WRNO,2019-10-28-12-02-46,3,4,0.5787956157946867,right,both,biased-switch,96,-10,right,right,0.265
MON1991WRNO,2019-10-28-12-02-46,3,5,0.6255574846192848,left,probe,ambiguous-switch,-1,5,right,right,0.231
MON1991WRNO,2019-10-28-12-02-46,3,6,0.5641297163847795,left,both,ambiguous-switch,107,5,right,right,0.241
MON1991WRNO,2019-10-28-12-02-46,3,7,0.5774485789379505,left,probe,biased-switch,-1,-30,right,right,0.316
MON1991WRNO,2019-10-28-12-02-46,3,8,0.5505736872587917,left,both,biased-switch,107,-30,right,right,0.239
MON1991WRNO,2019-10-28-12-02-46,3,9,0.5373177629028231,left,probe,ambiguous-switch,-1,20,right,right,0.23
MON1991WRNO,2019-10-28-12-02-46,3,10,0.5879287364034587,left,both,ambiguous-switch,109,20,right,right,0.409
MON1991WRNO,2019-10-28-12-02-46,3,11,0.5217737415589573,left,probe,biased-switch,-1,5,right,right,0.24
MON1991WRNO,2019-10-28-12-02-46,3,12,0.6399816742814257,left,both,biased-switch,106,5,right,left,0.181
MON1991WRNO,2019-10-28-12-02-46,3,13,0.5662691208840619,left,probe,ambiguous-switch,-1,-10,right,right,0.262
MON1991WRNO,2019-10-28-12-02-46,3,14,0.6654698735290485,left,both,ambiguous-switch,94,-10,right,right,0.098
MON1991WRNO,2019-10-28-12-02-46,3,15,0.5060825691098793,right,probe,ambiguous-switch,-1,-20,right,right,0.299
MON1991WRNO,2019-10-28-12-02-46,3,16,0.55653389090376,right,both,ambiguous-switch,101,-20,right,right,0.034
MON1991WRNO,2019-10-28-12-02-46,3,17,0.5324838166483824,right,probe,ambiguous-switch,-1,-5,right,right,0.222
MON1991WRNO,2019-10-28-12-02-46,3,18,0.5513363826112551,right,both,ambiguous-switch,92,-5,right,right,0.189
MON1991WRNO,2019-10-28-12-02-46,3,19,0.5578530844883267,left,probe,ambiguous-switch,-1,10,right,right,0.23
MON1991WRNO,2019-10-28-12-02-46,3,20,0.6659274307708203,left,both,ambiguous-switch,103,10,right,right,0.305
MON1991WRNO,2019-10-28-12-02-46,3,21,0.6568376791817234,left,probe,biased-switch,-1,0,right,right,0.27
MON1991WRNO,2019-10-28-12-02-46,3,22,0.6118349780201092,left,both,biased-switch,97,0,right,right,0.241
MON1991WRNO,2019-10-28-12-02-46,3,23,0.5485167689488926,right,probe,biased-switch,-1,-5,right,right,0.303
MON1991WRNO,2019-10-28-12-02-46,3,24,0.6894423826849219,right,both,biased-switch,101,-5,right,right,0.208
MON1991WRNO,2019-10-28-12-02-46,3,25,0.50438106798993,left,probe,ambiguous-switch,-1,40,right,right,0.258
MON1991WRNO,2019-10-28-12-02-46,3,26,0.5794507078107427,left,both,ambiguous-switch,109,40,right,right,0.35
MON1991WRNO,2019-10-28-12-02-46,3,27,0.6200096798587935,right,probe,biased-switch,-1,-20,right,right,0.228
MON1991WRNO,2019-10-28-12-02-46,3,28,0.5600554599131574,right,both,biased-switch,93,-20,right,right,0.1
MON1991WRNO,2019-10-28-12-02-46,3,29,0.5332957737681085,right,probe,biased-switch,-1,30,right,right,0.131
MON1991WRNO,2019-10-28-12-02-46,3,30,0.6958153733599701,right,both,biased-switch,103,30,right,right,0.24
MON1991WRNO,2019-10-28-12-02-46,3,31,0.525005419721422,right,probe,biased-switch,-1,40,right,right,0.424
MON1991WRNO,2019-10-28-12-02-46,3,32,0.5770499665214808,right,both,biased-switch,106,40,right,right,0.229
MON1991WRNO,2019-10-28-12-02-46,3,33,0.6946917241794195,left,probe,biased-switch,-1,20,right,right,0.34
MON1991WRNO,2019-10-28-12-02-46,3,34,0.5444364721902739,left,both,biased-switch,110,20,right,left,0.303
MON1991WRNO,2019-10-28-12-02-46,3,35,0.5506682433106135,left,probe,ambiguous-switch,-1,-30,right,right,0.305
MON1991WRNO,2019-10-28-12-02-46,3,36,0.6116738510007825,left,both,ambiguous-switch,109,-30,right,right,0.229
MON1991WRNO,2019-10-28-12-02-46,3,37,0.5581625659178564,right,probe,ambiguous-switch,-1,0,right,right,0.469
MON1991WRNO,2019-10-28-12-02-46,3,38,0.636957211726996,right,both,ambiguous-switch,92,0,right,right,0.488
MON1991WRNO,2019-10-28-12-02-46,3,39,0.6819318093220661,right,probe,biased-switch,-1,10,right,right,0.38
MON1991WRNO,2019-10-28-12-02-46,3,40,0.5323620941328479,right,both,biased-switch,106,10,right,right,0.244
MON1991WRNO,2019-10-28-12-02-46,3,41,0.5842869913648315,right,probe,ambiguous-switch,-1,30,right,right,0.291
MON1991WRNO,2019-10-28-12-02-46,3,42,0.5183966281243644,right,both,ambiguous-switch,106,30,right,right,0.241
MON1991WRNO,2019-10-28-12-02-46,3,43,0.5659953063296218,right,probe,biased-switch,-1,-10,right,right,0.235
MON1991WRNO,2019-10-28-12-02-46,3,44,0.5154317410514947,right,both,biased-switch,91,-10,right,right,0.3
MON1991WRNO,2019-10-28-12-02-46,3,45,0.6118560970787779,right,probe,ambiguous-switch,-1,5,right,right,0.067
MON1991WRNO,2019-10-28-12-02-46,3,46,0.6428324549562805,right,both,ambiguous-switch,104,5,right,right,0.267
MON1991WRNO,2019-10-28-12-02-46,3,47,0.6364793878558945,right,probe,biased-switch,-1,-30,right,right,0.195
MON1991WRNO,2019-10-28-12-02-46,3,48,0.509892685502217,right,both,biased-switch,93,-30,right,right,0.316
MON1991WRNO,2019-10-28-12-02-46,3,49,0.6121237330455241,right,probe,ambiguous-switch,-1,20,right,right,0.318
MON1991WRNO,2019-10-28-12-02-46,3,50,0.6232688619920688,right,both,ambiguous-switch,110,20,right,right,0.228
MON1991WRNO,2019-10-28-12-02-46,3,51,0.612713038380454,left,probe,biased-switch,-1,5,right,right,0.223
MON1991WRNO,2019-10-28-12-02-46,3,52,0.6844922554927099,left,both,biased-switch,99,5,right,left,0.219
MON1991WRNO,2019-10-28-12-02-46,3,53,0.6598736789666418,left,probe,ambiguous-switch,-1,-10,left,left,0.233
MON1991WRNO,2019-10-28-12-02-46,3,54,0.5804965122014716,left,both,ambiguous-switch,105,-10,left,left,0.06
MON1991WRNO,2019-10-28-12-02-46,3,55,0.512316238310741,right,probe,ambiguous-switch,-1,-20,right,right,0.296
MON1991WRNO,2019-10-28-12-02-46,3,56,0.5275852969911969,right,both,ambiguous-switch,102,-20,right,right,0.286
MON1991WRNO,2019-10-28-12-02-46,3,57,0.6329531536405242,right,probe,ambiguous-switch,-1,-5,right,right,0.167
MON1991WRNO,2019-10-28-12-02-46,3,58,0.5171464936780142,right,both,ambiguous-switch,109,-5,right,right,0.129
MON1991WRNO,2019-10-28-12-02-46,3,59,0.6783774979859342,right,probe,ambiguous-switch,-1,10,right,right,0.044
MON1991WRNO,2019-10-28-12-02-46,3,60,0.5091669998202523,right,both,ambiguous-switch,96,10,right,right,0.213
MON1991WRNO,2019-10-28-12-02-46,3,61,0.6410851477334963,left,probe,biased-switch,-1,0,right,right,0.196
MON1991WRNO,2019-10-28-12-02-46,3,62,0.6543647528625675,left,both,biased-switch,99,0,right,left,0.233
MON1991WRNO,2019-10-28-12-02-46,3,63,0.6293213950430067,right,probe,biased-switch,-1,-5,right,right,0.11
MON1991WRNO,2019-10-28-12-02-46,3,64,0.6405050082453058,right,both,biased-switch,90,-5,right,right,0.228
MON1991WRNO,2019-10-28-12-02-46,3,65,0.5265882302198386,left,probe,ambiguous-switch,-1,40,right,right,0.014
MON1991WRNO,2019-10-28-12-02-46,3,66,0.5868632605736331,left,both,ambiguous-switch,91,40,right,right,0.282
MON1991WRNO,2019-10-28-12-02-46,3,67,0.5153572822152477,left,probe,biased-switch,-1,-20,left,left,0.245
MON1991WRNO,2019-10-28-12-02-46,3,68,0.5486051907719803,left,both,biased-switch,94,-20,left,left,0.124
MON1991WRNO,2019-10-28-12-02-46,3,69,0.6209532697092629,left,probe,biased-switch,-1,30,left,left,0.284
MON1991WRNO,2019-10-28-12-02-46,3,70,0.6373306500145414,left,both,biased-switch,91,30,left,left,0.405
MON1991WRNO,2019-10-28-12-02-46,3,71,0.618189312467401,right,probe,biased-switch,-1,40,right,right,0.15
MON1991WRNO,2019-10-28-12-02-46,3,72,0.5847380786731348,right,both,biased-switch,100,40,right,right,0.253
MON1991WRNO,2019-10-28-12-02-46,3,73,0.6209395057439366,left,probe,biased-switch,-1,20,right,right,0.248
MON1991WRNO,2019-10-28-12-02-46,3,74,0.6346378003802884,left,both,biased-switch,99,20,right,left,0.063
MON1991WRNO,2019-10-28-12-02-46,3,75,0.5815160531390591,left,probe,ambiguous-switch,-1,-30,left,left,0.249
MON1991WRNO,2019-10-28-12-02-46,3,76,0.6802432224986242,left,both,ambiguous-switch,93,-30,left,left,1.542
MON1991WRNO,2019-10-28-12-02-46,3,77,0.5851811240503573,right,probe,ambiguous-switch,-1,0,right,right,0.25
MON1991WRNO,2019-10-28-12-02-46,3,78,0.6740693995191483,right,both,ambiguous-switch,91,0,right,right,0.266
MON1991WRNO,2019-10-28-12-02-46,3,79,0.6235678061069098,left,probe,biased-switch,-1,10,left,left,0.229
MON1991WRNO,2019-10-28-12-02-46,3,80,0.5291677485298818,left,both,biased-switch,92,10,left,left,0.249
MON1991WRNO,2019-10-28-12-02-46,4,1,0.506624482910181,left,probe,ambiguous-switch,-1,-5,left,left,0.251
MON1991WRNO,2019-10-28-12-02-46,4,2,0.5279793297380743,left,both,ambiguous-switch,95,-5,left,left,0.21
MON1991WRNO,2019-10-28-12-02-46,4,3,0.610428055762652,left,probe,biased-switch,-1,10,left,left,0.174
MON1991WRNO,2019-10-28-12-02-46,4,4,0.6533882724783899,left,both,biased-switch,91,10,left,right,0.156
MON1991WRNO,2019-10-28-12-02-46,4,5,0.5578116915913189,right,probe,ambiguous-switch,-1,-20,right,right,0.234
MON1991WRNO,2019-10-28-12-02-46,4,6,0.5828419149579479,right,both,ambiguous-switch,106,-20,right,right,0.073
MON1991WRNO,2019-10-28-12-02-46,4,7,0.5352314458302836,left,probe,biased-switch,-1,30,right,right,0.33
MON1991WRNO,2019-10-28-12-02-46,4,8,0.5472875221071964,left,both,biased-switch,94,30,right,right,0.197
MON1991WRNO,2019-10-28-12-02-46,4,9,0.6270316428599332,right,probe,biased-switch,-1,40,right,right,0.212
MON1991WRNO,2019-10-28-12-02-46,4,10,0.6254041279699314,right,both,biased-switch,100,40,right,right,0.123
MON1991WRNO,2019-10-28-12-02-46,4,11,0.5123010810923369,right,probe,ambiguous-switch,-1,20,right,right,0.085
MON1991WRNO,2019-10-28-12-02-46,4,12,0.5589570944971791,right,both,ambiguous-switch,95,20,right,right,0.221
MON1991WRNO,2019-10-28-12-02-46,4,13,0.5591424404356854,left,probe,biased-switch,-1,5,right,right,0.175
MON1991WRNO,2019-10-28-12-02-46,4,14,0.575590421457683,left,both,biased-switch,94,5,right,left,0.274
MON1991WRNO,2019-10-28-12-02-46,4,15,0.6714859043200501,left,probe,ambiguous-switch,-1,-30,left,left,0.167
MON1991WRNO,2019-10-28-12-02-46,4,16,0.5474723561148828,left,both,ambiguous-switch,92,-30,left,left,0.195
MON1991WRNO,2019-10-28-12-02-46,4,17,0.689744479122755,right,probe,ambiguous-switch,-1,0,right,right,0.135
MON1991WRNO,2019-10-28-12-02-46,4,18,0.5164441282230802,right,both,ambiguous-switch,103,0,right,right,0.18
MON1991WRNO,2019-10-28-12-02-46,4,19,0.5798331488479389,right,probe,biased-switch,-1,0,right,right,0.282
MON1991WRNO,2019-10-28-12-02-46,4,20,0.5499921269795799,right,both,biased-switch,93,0,right,right,0.211
MON1991WRNO,2019-10-28-12-02-46,4,21,0.6579122468084625,left,probe,biased-switch,-1,-10,right,right,0.252
MON1991WRNO,2019-10-28-12-02-46,4,22,0.5086013168450542,left,both,biased-switch,97,-10,right,right,0.236
MON1991WRNO,2019-10-28-12-02-46,4,23,0.5685651969946197,left,probe,ambiguous-switch,-1,40,right,right,0.173
MON1991WRNO,2019-10-28-12-02-46,4,24,0.5323974239283762,left,both,ambiguous-switch,99,40,right,right,0.099
MON1991WRNO,2019-10-28-12-02-46,4,25,0.6610811467105014,left,probe,ambiguous-switch,-1,5,right,right,0.047
MON1991WRNO,2019-10-28-12-02-46,4,26,0.6408599818523162,left,both,ambiguous-switch,97,5,right,right,0.187
MON1991WRNO,2019-10-28-12-02-46,4,27,0.6979766264717151,left,probe,biased-switch,-1,-5,right,right,0.403
MON1991WRNO,2019-10-28-12-02-46,4,28,0.5274441911970308,left,both,biased-switch,108,-5,right,right,0.194
MON1991WRNO,2019-10-28-12-02-46,4,29,0.6999887545073814,right,probe,biased-switch,-1,20,right,right,0.353
MON1991WRNO,2019-10-28-12-02-46,4,30,0.614532106282027,right,both,biased-switch,91,20,right,right,0.198
MON1991WRNO,2019-10-28-12-02-46,4,31,0.5822190575281576,left,probe,ambiguous-switch,-1,-10,right,right,0.264
MON1991WRNO,2019-10-28-12-02-46,4,32,0.5464818615572242,left,both,ambiguous-switch,102,-10,right,right,0.231
MON1991WRNO,2019-10-28-12-02-46,4,33,0.5876396957093529,right,probe,biased-switch,-1,-20,left,left,0.447
MON1991WRNO,2019-10-28-12-02-46,4,34,0.5556685335632654,right,both,biased-switch,108,-20,left,right,0.245
MON1991WRNO,2019-10-28-12-02-46,4,35,0.5591098620025456,right,probe,ambiguous-switch,-1,30,right,right,0.236
MON1991WRNO,2019-10-28-12-02-46,4,36,0.6738828837445175,right,both,ambiguous-switch,103,30,right,right,0.048
MON1991WRNO,2019-10-28-12-02-46,4,37,0.5008881981894526,left,probe,ambiguous-switch,-1,10,left,left,0.231
MON1991WRNO,2019-10-28-12-02-46,4,38,0.5112971994957308,left,both,ambiguous-switch,106,10,left,right,0.24
MON1991WRNO,2019-10-28-12-02-46,4,39,0.543667115772678,left,probe,biased-switch,-1,-30,right,right,0.289
MON1991WRNO,2019-10-28-12-02-46,4,40,0.5402156061768177,left,both,biased-switch,105,-30,right,right,0.12
MON1991WRNO,2019-10-28-12-02-46,4,41,0.5519993054024932,left,probe,ambiguous-switch,-1,-5,right,right,0.207
MON1991WRNO,2019-10-28-12-02-46,4,42,0.5922042909933056,left,both,ambiguous-switch,91,-5,right,right,1.228
MON1991WRNO,2019-10-28-12-02-46,4,43,0.6307020904302286,left,probe,biased-switch,-1,10,right,right,0.247
MON1991WRNO,2019-10-28-12-02-46,4,44,0.5387361702671574,left,both,biased-switch,106,10,right,left,0.273
MON1991WRNO,2019-10-28-12-02-46,4,45,0.6679272547533421,left,probe,ambiguous-switch,-1,-20,left,left,0.212
MON1991WRNO,2019-10-28-12-02-46,4,46,0.580339832210831,left,both,ambiguous-switch,103,-20,left,left,0.246
MON1991WRNO,2019-10-28-12-02-46,4,47,0.520069335986941,right,probe,biased-switch,-1,30,right,right,0.301
MON1991WRNO,2019-10-28-12-02-46,4,48,0.6623470929242429,right,both,biased-switch,106,30,right,right,0.281
MON1991WRNO,2019-10-28-12-02-46,4,49,0.5274528680307042,left,probe,biased-switch,-1,40,right,right,0.265
MON1991WRNO,2019-10-28-12-02-46,4,50,0.6805844726416146,left,both,biased-switch,92,40,right,right,0.039
MON1991WRNO,2019-10-28-12-02-46,4,51,0.5180271997402517,left,probe,ambiguous-switch,-1,20,left,left,0.227
MON1991WRNO,2019-10-28-12-02-46,4,52,0.6442336645545774,left,both,ambiguous-switch,110,20,left,right,0.292
MON1991WRNO,2019-10-28-12-02-46,4,53,0.682395693547853,right,probe,biased-switch,-1,5,right,right,0.297
MON1991WRNO,2019-10-28-12-02-46,4,54,0.5095756813324759,right,both,biased-switch,102,5,right,left,0.245
MON1991WRNO,2019-10-28-12-02-46,4,55,0.5726274079212449,left,probe,ambiguous-switch,-1,-30,right,right,0.248
MON1991WRNO,2019-10-28-12-02-46,4,56,0.6070146614304723,left,both,ambiguous-switch,103,-30,right,right,0.283
MON1991WRNO,2019-10-28-12-02-46,4,57,0.6171004632206543,left,probe,ambiguous-switch,-1,0,right,right,0.218
MON1991WRNO,2019-10-28-12-02-46,4,58,0.5062605587119354,left,both,ambiguous-switch,98,0,right,right,0.275
MON1991WRNO,2019-10-28-12-02-46,4,59,0.603123536698715,right,probe,biased-switch,-1,0,right,right,0.239
MON1991WRNO,2019-10-28-12-02-46,4,60,0.6542114301322476,right,both,biased-switch,101,0,right,right,1.515
MON1991WRNO,2019-10-28-12-02-46,4,61,0.6682006085760781,left,probe,biased-switch,-1,-10,right,right,0.373
MON1991WRNO,2019-10-28-12-02-46,4,62,0.5953401354005698,left,both,biased-switch,109,-10,right,right,0.227
MON1991WRNO,2019-10-28-12-02-46,4,63,0.5090440143941655,right,probe,ambiguous-switch,-1,40,right,right,0.231
MON1991WRNO,2019-10-28-12-02-46,4,64,0.5646655138177727,right,both,ambiguous-switch,106,40,right,right,0.107
MON1991WRNO,2019-10-28-12-02-46,4,65,0.6381010734430512,left,probe,ambiguous-switch,-1,5,right,right,0.076
MON1991WRNO,2019-10-28-12-02-46,4,66,0.5328694742681865,left,both,ambiguous-switch,98,5,right,right,1.488
MON1991WRNO,2019-10-28-12-02-46,4,67,0.665748607891302,right,probe,biased-switch,-1,-5,right,right,0.232
MON1991WRNO,2019-10-28-12-02-46,4,68,0.5399542579872673,right,both,biased-switch,90,-5,right,right,0.188
MON1991WRNO,2019-10-28-12-02-46,4,69,0.5594322895050678,right,probe,biased-switch,-1,20,right,right,0.069
MON1991WRNO,2019-10-28-12-02-46,4,70,0.5833491055619058,right,both,biased-switch,108,20,right,right,0.121
MON1991WRNO,2019-10-28-12-02-46,4,71,0.5078110172243124,right,probe,ambiguous-switch,-1,-10,right,right,0.057
MON1991WRNO,2019-10-28-12-02-46,4,72,0.6448839676187248,right,both,ambiguous-switch,105,-10,right,right,1.773
MON1991WRNO,2019-10-28-12-02-46,4,73,0.6256440576648736,right,probe,biased-switch,-1,-20,right,right,0.233
MON1991WRNO,2019-10-28-12-02-46,4,74,0.6454794469235413,right,both,biased-switch,108,-20,right,right,0.232
MON1991WRNO,2019-10-28-12-02-46,4,75,0.6727979763024747,right,probe,ambiguous-switch,-1,30,right,right,0.307
MON1991WRNO,2019-10-28-12-02-46,4,76,0.550598310192685,right,both,ambiguous-switch,109,30,right,right,0.294
MON1991WRNO,2019-10-28-12-02-46,4,77,0.5421069664442479,left,probe,ambiguous-switch,-1,10,right,right,0.292
MON1991WRNO,2019-10-28-12-02-46,4,78,0.507971820985614,left,both,ambiguous-switch,91,10,right,left,0.229
MON1991WRNO,2019-10-28-12-02-46,4,79,0.5871657574105821,left,probe,biased-switch,-1,-30,left,left,0.23
MON1991WRNO,2019-10-28-12-02-46,4,80,0.5942603860788859,left,both,biased-switch,102,-30,left,left,0.195
MON1991WRNO,2019-10-28-12-02-46,5,1,0.5070501288916324,left,probe,ambiguous-switch,-1,-10,left,left,0.257
MON1991WRNO,2019-10-28-12-02-46,5,2,0.5660578586996371,left,both,ambiguous-switch,90,-10,left,left,1.598
MON1991WRNO,2019-10-28-12-02-46,5,3,0.6461947895897266,right,probe,biased-switch,-1,30,left,left,0.123
MON1991WRNO,2019-10-28-12-02-46,5,4,0.6661415331633893,right,both,biased-switch,107,30,left,right,0.242
MON1991WRNO,2019-10-28-12-02-46,5,5,0.567767092985652,left,probe,ambiguous-switch,-1,40,right,right,0.111
MON1991WRNO,2019-10-28-12-02-46,5,6,0.6011811595262839,left,both,ambiguous-switch,96,40,right,right,0.094
MON1991WRNO,2019-10-28-12-02-46,5,7,0.5843534785473969,right,probe,ambiguous-switch,-1,-5,right,right,0.068
MON1991WRNO,2019-10-28-12-02-46,5,8,0.5694973331759751,right,both,ambiguous-switch,90,-5,right,right,0.11
MON1991WRNO,2019-10-28-12-02-46,5,9,0.5032318515131805,right,probe,ambiguous-switch,-1,0,right,right,0.026
MON1991WRNO,2019-10-28-12-02-46,5,10,0.6653830809500709,right,both,ambiguous-switch,104,0,right,right,0.006
MON1991WRNO,2019-10-28-12-02-46,5,11,0.5853623565650907,left,probe,ambiguous-switch,-1,-20,right,right,0.066
MON1991WRNO,2019-10-28-12-02-46,5,12,0.5047444583563757,left,both,ambiguous-switch,98,-20,right,right,1.187
MON1991WRNO,2019-10-28-12-02-46,5,13,0.6471571704025931,right,probe,biased-switch,-1,-20,right,right,0.074
MON1991WRNO,2019-10-28-12-02-46,5,14,0.6962772047201071,right,both,biased-switch,92,-20,right,right,0.116
MON1991WRNO,2019-10-28-12-02-46,5,15,0.5503329955069163,right,probe,biased-switch,-1,0,right,right,0.076
MON1991WRNO,2019-10-28-12-02-46,5,16,0.5599411069242013,right,both,biased-switch,102,0,right,right,0.364
MON1991WRNO,2019-10-28-12-02-46,5,17,0.5349699472688183,left,probe,ambiguous-switch,-1,30,right,right,0.268
MON1991WRNO,2019-10-28-12-02-46,5,18,0.5178391091078094,left,both,ambiguous-switch,98,30,right,right,0.199
MON1991WRNO,2019-10-28-12-02-46,5,19,0.5685804913159069,left,probe,biased-switch,-1,-5,right,right,0.175
MON1991WRNO,2019-10-28-12-02-46,5,20,0.554279762780769,left,both,biased-switch,104,-5,right,left,0.183
MON1991WRNO,2019-10-28-12-02-46,5,21,0.5892094345677866,right,probe,ambiguous-switch,-1,10,right,right,0.278
MON1991WRNO,2019-10-28-12-02-46,5,22,0.6924866931377505,right,both,ambiguous-switch,101,10,right,right,0.24
MON1991WRNO,2019-10-28-12-02-46,5,23,0.5617542968364182,left,probe,biased-switch,-1,5,left,left,0.137
MON1991WRNO,2019-10-28-12-02-46,5,24,0.6992512797135219,left,both,biased-switch,102,5,left,right,0.206
MON1991WRNO,2019-10-28-12-02-46,5,25,0.6803214254430863,right,probe,ambiguous-switch,-1,20,right,right,0.111
MON1991WRNO,2019-10-28-12-02-46,5,26,0.5104060424462203,right,both,ambiguous-switch,91,20,right,right,0.158
MON1991WRNO,2019-10-28-12-02-46,5,27,0.5020914669017922,left,probe,biased-switch,-1,-30,right,right,0.198
MON1991WRNO,2019-10-28-12-02-46,5,28,0.6792071301318799,left,both,biased-switch,105,-30,right,left,0.28
MON1991WRNO,2019-10-28-12-02-46,5,29,0.6918335033918206,left,probe,biased-switch,-1,-10,left,left,0.407
MON1991WRNO,2019-10-28-12-02-46,5,30,0.5622740722789246,left,both,biased-switch,106,-10,left,right,0.096
MON1991WRNO,2019-10-28-12-02-46,5,31,0.548569443362967,left,probe,biased-switch,-1,40,left,left,0.175
MON1991WRNO,2019-10-28-12-02-46,5,32,0.5539943152732073,left,both,biased-switch,107,40,left,right,0.237
MON1991WRNO,2019-10-28-12-02-46,5,33,0.6739272362563605,right,probe,ambiguous-switch,-1,-30,right,right,0.2
MON1991WRNO,2019-10-28-12-02-46,5,34,0.6155936658255533,right,both,ambiguous-switch,96,-30,right,right,0.255
MON1991WRNO,2019-10-28-12-02-46,5,35,0.6795592906302917,left,probe,ambiguous-switch,-1,5,left,left,0.194
MON1991WRNO,2019-10-28-12-02-46,5,36,0.6687087085850141,left,both,ambiguous-switch,91,5,left,right,0.208
MON1991WRNO,2019-10-28-12-02-46,5,37,0.6207905300849861,right,probe,biased-switch,-1,20,right,right,0.257
MON1991WRNO,2019-10-28-12-02-46,5,38,0.5197408099255063,right,both,biased-switch,90,20,right,right,0.163
MON1991WRNO,2019-10-28-12-02-46,5,39,0.589879077352648,left,probe,biased-switch,-1,10,right,right,0.225
MON1991WRNO,2019-10-28-12-02-46,5,40,0.5146231375946646,left,both,biased-switch,102,10,right,left,0.155
MON1991WRNO,2019-10-28-12-02-46,5,41,0.545614610681561,right,probe,ambiguous-switch,-1,-10,right,right,1.508
MON1991WRNO,2019-10-28-12-02-46,5,42,0.6817707055551369,right,both,ambiguous-switch,93,-10,right,right,0.222
MON1991WRNO,2019-10-28-12-02-46,5,43,0.6727785526404519,left,probe,biased-switch,-1,30,right,right,0.181
MON1991WRNO,2019-10-28-12-02-46,5,44,0.67266714706486,left,both,biased-switch,105,30,right,right,0.279
MON1991WRNO,2019-10-28-12-02-46,5,45,0.685235247371063,left,probe,ambiguous-switch,-1,40,right,right,0.236
MON1991WRNO,2019-10-28-12-02-46,5,46,0.6861617854787482,left,both,ambiguous-switch,99,40,right,right,0.223
MON1991WRNO,2019-10-28-12-02-46,5,47,0.5677378469575449,right,probe,ambiguous-switch,-1,-5,right,right,0.096
MON1991WRNO,2019-10-28-12-02-46,5,48,0.5576796613136972,right,both,ambiguous-switch,101,-5,right,right,0.623
MON1991WRNO,2019-10-28-12-02-46,5,49,0.5671250614182848,left,probe,ambiguous-switch,-1,0,right,right,0.348
MON1991WRNO,2019-10-28-12-02-46,5,50,0.6026097306697283,left,both,ambiguous-switch,107,0,right,right,1.291
MON1991WRNO,2019-10-28-12-02-46,5,51,0.5991689652361667,right,probe,ambiguous-switch,-1,-20,right,right,0.242
MON1991WRNO,2019-10-28-12-02-46,5,52,0.6141971539869667,right,both,ambiguous-switch,100,-20,right,left,0.23
MON1991WRNO,2019-10-28-12-02-46,5,53,0.6667662372917169,right,probe,biased-switch,-1,-20,right,right,0.236
MON1991WRNO,2019-10-28-12-02-46,5,54,0.5227567580702285,right,both,biased-switch,106,-20,right,right,0.368
MON1991WRNO,2019-10-28-12-02-46,5,55,0.6026139104132641,left,probe,biased-switch,-1,0,right,right,0.256
MON1991WRNO,2019-10-28-12-02-46,5,56,0.661932946055255,left,both,biased-switch,93,0,right,left,0.198
MON1991WRNO,2019-10-28-12-02-46,5,57,0.6929175492771786,left,probe,ambiguous-switch,-1,30,right,right,0.179
MON1991WRNO,2019-10-28-12-02-46,5,58,0.6011980644828944,left,both,ambiguous-switch,110,30,right,right,0.124
MON1991WRNO,2019-10-28-12-02-46,5,59,0.5471261421459064,left,probe,biased-switch,-1,-5,right,right,1.468
MON1991WRNO,2019-10-28-12-02-46,5,60,0.509836889894973,left,both,biased-switch,102,-5,right,right,0.127
MON1991WRNO,2019-10-28-12-02-46,5,61,0.5798652815176032,right,probe,ambiguous-switch,-1,10,right,right,0.114
MON1991WRNO,2019-10-28-12-02-46,5,62,0.6609584985624078,right,both,ambiguous-switch,102,10,right,right,0.236
MON1991WRNO,2019-10-28-12-02-46,5,63,0.6700929935158717,left,probe,biased-switch,-1,5,right,right,0.142
MON1991WRNO,2019-10-28-12-02-46,5,64,0.6843853141832363,left,both,biased-switch,104,5,right,left,0.22
MON1991WRNO,2019-10-28-12-02-46,5,65,0.6729583148676994,left,probe,ambiguous-switch,-1,20,left,left,0.222
MON1991WRNO,2019-10-28-12-02-46,5,66,0.5681875831735315,left,both,ambiguous-switch,108,20,left,left,0.245
MON1991WRNO,2019-10-28-12-02-46,5,67,0.669612359968437,right,probe,biased-switch,-1,-30,left,left,0.363
MON1991WRNO,2019-10-28-12-02-46,5,68,0.58410073415444,right,both,biased-switch,96,-30,left,left,0.217
MON1991WRNO,2019-10-28-12-02-46,5,69,0.6825988984588093,right,probe,biased-switch,-1,-10,right,right,0.118
MON1991WRNO,2019-10-28-12-02-46,5,70,0.5858082118481857,right,both,biased-switch,107,-10,right,right,0.06
MON1991WRNO,2019-10-28-12-02-46,5,71,0.5763032933153024,right,probe,biased-switch,-1,40,right,right,0.147
MON1991WRNO,2019-10-28-12-02-46,5,72,0.6730537579438715,right,both,biased-switch,94,40,right,right,0.143
MON1991WRNO,2019-10-28-12-02-46,5,73,0.5789043951284849,left,probe,ambiguous-switch,-1,-30,right,right,0.064
MON1991WRNO,2019-10-28-12-02-46,5,74,0.5246210156067799,left,both,ambiguous-switch,95,-30,right,right,0.091
MON1991WRNO,2019-10-28-12-02-46,5,75,0.5355952792194999,right,probe,ambiguous-switch,-1,5,right,right,0.012
MON1991WRNO,2019-10-28-12-02-46,5,76,0.5268416352687132,right,both,ambiguous-switch,106,5,right,right,2.688
MON1991WRNO,2019-10-28-12-02-46,5,77,0.6979166535235315,left,probe,biased-switch,-1,20,right,right,0.158
MON1991WRNO,2019-10-28-12-02-46,5,78,0.6045298594618074,left,both,biased-switch,101,20,right,left,0.139
MON1991WRNO,2019-10-28-12-02-46,5,79,0.6692480744507611,left,probe,biased-switch,-1,10,left,left,0.246
MON1991WRNO,2019-10-28-12-02-46,5,80,0.5686640663819925,left,both,biased-switch,102,10,left,right,0.176
MON1991WRNO,2019-10-28-12-02-46,6,1,0.5499787270585048,left,probe,ambiguous-switch,-1,-20,left,left,0.325
MON1991WRNO,2019-10-28-12-02-46,6,2,0.6420540289633777,left,both,ambiguous-switch,99,-20,left,left,0.221
MON1991WRNO,2019-10-28-12-02-46,6,3,0.5074031455193443,left,probe,biased-switch,-1,-10,left,left,0.223
MON1991WRNO,2019-10-28-12-02-46,6,4,0.5636488868719087,left,both,biased-switch,95,-10,left,left,0.243
MON1991WRNO,2019-10-28-12-02-46,6,5,0.5427491245402096,right,probe,biased-switch,-1,40,right,right,0.042
MON1991WRNO,2019-10-28-12-02-46,6,6,0.5234675089554444,right,both,biased-switch,97,40,right,left,0.235
MON1991WRNO,2019-10-28-12-02-46,6,7,0.6340302570077516,right,probe,biased-switch,-1,30,right,right,0.176
MON1991WRNO,2019-10-28-12-02-46,6,8,0.5309834773035367,right,both,biased-switch,102,30,right,left,0.284
MON1991WRNO,2019-10-28-12-02-46,6,9,0.6983055380293115,right,probe,ambiguous-switch,-1,40,left,left,0.238
MON1991WRNO,2019-10-28-12-02-46,6,10,0.5119051262183818,right,both,ambiguous-switch,106,40,left,left,0.173
MON1991WRNO,2019-10-28-12-02-46,6,11,0.5589156358339267,left,probe,ambiguous-switch,-1,5,left,left,0.228
MON1991WRNO,2019-10-28-12-02-46,6,12,0.5039336045661105,left,both,ambiguous-switch,98,5,left,left,0.197
MON1991WRNO,2019-10-28-12-02-46,6,13,0.5654685272257389,left,probe,ambiguous-switch,-1,0,left,left,0.121
MON1991WRNO,2019-10-28-12-02-46,6,14,0.6006965941368464,left,both,ambiguous-switch,107,0,left,left,0.024
MON1991WRNO,2019-10-28-12-02-46,6,15,0.5700478216872304,right,probe,ambiguous-switch,-1,-5,left,left,0.219
MON1991WRNO,2019-10-28-12-02-46,6,16,0.6122773033445936,right,both,ambiguous-switch,101,-5,left,left,0.042
MON1991WRNO,2019-10-28-12-02-46,6,17,0.6355539618477143,right,probe,biased-switch,-1,-30,left,left,1.532
MON1991WRNO,2019-10-28-12-02-46,6,18,0.5271894878697365,right,both,biased-switch,101,-30,left,left,0.243
MON1991WRNO,2019-10-28-12-02-46,6,19,0.5152102517280834,left,probe,biased-switch,-1,-5,left,left,0.257
MON1991WRNO,2019-10-28-12-02-46,6,20,0.6652059792070419,left,both,biased-switch,99,-5,left,right,0.152
MON1991WRNO,2019-10-28-12-02-46,6,21,0.6106068064059308,right,probe,ambiguous-switch,-1,10,right,right,0.122
MON1991WRNO,2019-10-28-12-02-46,6,22,0.6489391841409139,right,both,ambiguous-switch,91,10,right,right,0.481
MON1991WRNO,2019-10-28-12-02-46,6,23,0.512722987050661,right,probe,biased-switch,-1,0,right,right,0.271
MON1991WRNO,2019-10-28-12-02-46,6,24,0.5204081536547814,right,both,biased-switch,103,0,right,right,0.14
MON1991WRNO,2019-10-28-12-02-46,6,25,0.6404806417828764,left,probe,biased-switch,-1,10,right,right,0.252
MON1991WRNO,2019-10-28-12-02-46,6,26,0.5644544951823343,left,both,biased-switch,108,10,right,left,0.18
MON1991WRNO,2019-10-28-12-02-46,6,27,0.6697946452777161,left,probe,ambiguous-switch,-1,-10,left,left,0.301
MON1991WRNO,2019-10-28-12-02-46,6,28,0.5991541290388278,left,both,ambiguous-switch,99,-10,left,left,0.151
MON1991WRNO,2019-10-28-12-02-46,6,29,0.6244134977570257,left,probe,biased-switch,-1,5,left,left,0.297
MON1991WRNO,2019-10-28-12-02-46,6,30,0.6827123133611852,left,both,biased-switch,96,5,left,left,0.2
MON1991WRNO,2019-10-28-12-02-46,6,31,0.6764769097446023,right,probe,ambiguous-switch,-1,20,right,right,0.18
MON1991WRNO,2019-10-28-12-02-46,6,32,0.6251606860821928,right,both,ambiguous-switch,109,20,right,right,0.264
MON1991WRNO,2019-10-28-12-02-46,6,33,0.5922533041347766,right,probe,ambiguous-switch,-1,30,right,right,0.158
MON1991WRNO,2019-10-28-12-02-46,6,34,0.6165753193140644,right,both,ambiguous-switch,101,30,right,right,0.216
MON1991WRNO,2019-10-28-12-02-46,6,35,0.6028606797846865,left,probe,biased-switch,-1,-20,right,right,0.221
MON1991WRNO,2019-10-28-12-02-46,6,36,0.6092869387119115,left,both,biased-switch,90,-20,right,right,2.584
MON1991WRNO,2019-10-28-12-02-46,6,37,0.5476880096061232,left,probe,biased-switch,-1,20,right,right,0.132
MON1991WRNO,2019-10-28-12-02-46,6,38,0.6645905440099341,left,both,biased-switch,107,20,right,left,0.173
MON1991WRNO,2019-10-28-12-02-46,6,39,0.6374309268633411,left,probe,ambiguous-switch,-1,-30,right,right,0.106
MON1991WRNO,2019-10-28-12-02-46,6,40,0.61648543669681,left,both,ambiguous-switch,107,-30,right,right,0.082
MON1991WRNO,2019-10-28-12-02-46,6,41,0.5808710807125379,left,probe,ambiguous-switch,-1,-20,right,right,0.218
MON1991WRNO,2019-10-28-12-02-46,6,42,0.5810964924157954,left,both,ambiguous-switch,107,-20,right,right,0.279
MON1991WRNO,2019-10-28-12-02-46,6,43,0.5246085820863619,right,probe,biased-switch,-1,-10,right,right,0.122
MON1991WRNO,2019-10-28-12-02-46,6,44,0.6554893220222744,right,both,biased-switch,110,-10,right,right,0.093
MON1991WRNO,2019-10-28-12-02-46,6,45,0.5123059291431847,left,probe,biased-switch,-1,40,right,right,0.231
MON1991WRNO,2019-10-28-12-02-46,6,46,0.5929575963799806,left,both,biased-switch,93,40,right,right,0.146
MON1991WRNO,2019-10-28-12-02-46,6,47,0.6129002690020917,right,probe,biased-switch,-1,30,right,right,0.202
MON1991WRNO,2019-10-28-12-02-46,6,48,0.677906442801639,right,both,biased-switch,107,30,right,right,0.173
MON1991WRNO,2019-10-28-12-02-46,6,49,0.6145875712562162,right,probe,ambiguous-switch,-1,40,right,right,0.177
MON1991WRNO,2019-10-28-12-02-46,6,50,0.6194157692111937,right,both,ambiguous-switch,93,40,right,right,0.119
MON1991WRNO,2019-10-28-12-02-46,6,51,0.6105116551492642,right,probe,ambiguous-switch,-1,5,right,right,0.231
MON1991WRNO,2019-10-28-12-02-46,6,52,0.6782929900056928,right,both,ambiguous-switch,104,5,right,right,0.225
MON1991WRNO,2019-10-28-12-02-46,6,53,0.6435949622280079,left,probe,ambiguous-switch,-1,0,right,right,0.197
MON1991WRNO,2019-10-28-12-02-46,6,54,0.5954865178926659,left,both,ambiguous-switch,105,0,right,left,0.234
MON1991WRNO,2019-10-28-12-02-46,6,55,0.6771358770666073,right,probe,ambiguous-switch,-1,-5,right,right,0.207
MON1991WRNO,2019-10-28-12-02-46,6,56,0.5688265606960101,right,both,ambiguous-switch,94,-5,right,right,0.073
MON1991WRNO,2019-10-28-12-02-46,6,57,0.5984798606353599,right,probe,biased-switch,-1,-30,right,right,0.45
MON1991WRNO,2019-10-28-12-02-46,6,58,0.5597556820149826,right,both,biased-switch,95,-30,right,right,0.304
MON1991WRNO,2019-10-28-12-02-46,6,59,0.582056737287875,right,probe,biased-switch,-1,-5,right,right,0.331
MON1991WRNO,2019-10-28-12-02-46,6,60,0.5720361308488486,right,both,biased-switch,96,-5,right,right,1.216
MON1991WRNO,2019-10-28-12-02-46,6,61,0.5680111210865558,right,probe,ambiguous-switch,-1,10,right,right,0.256
MON1991WRNO,2019-10-28-12-02-46,6,62,0.5575440847085713,right,both,ambiguous-switch,91,10,right,right,0.24
MON1991WRNO,2019-10-28-12-02-46,6,63,0.6998287910538761,right,probe,biased-switch,-1,0,right,right,0.195
MON1991WRNO,2019-10-28-12-02-46,6,64,0.5726116472028169,right,both,biased-switch,105,0,right,right,0.151
MON1991WRNO,2019-10-28-12-02-46,6,65,0.5346519782047003,right,probe,biased-switch,-1,10,right,right,0.125
MON1991WRNO,2019-10-28-12-02-46,6,66,0.6595925686032964,right,both,biased-switch,98,10,right,right,0.06
MON1991WRNO,2019-10-28-12-02-46,6,67,0.5703393320022099,left,probe,ambiguous-switch,-1,-10,right,right,0.293
MON1991WRNO,2019-10-28-12-02-46,6,68,0.6041950189184719,left,both,ambiguous-switch,94,-10,right,right,0.258
MON1991WRNO,2019-10-28-12-02-46,6,69,0.6602660604301291,left,probe,biased-switch,-1,5,right,right,0.14
MON1991WRNO,2019-10-28-12-02-46,6,70,0.6537194070255105,left,both,biased-switch,99,5,right,left,0.179
MON1991WRNO,2019-10-28-12-02-46,6,71,0.6945249842154871,left,probe,ambiguous-switch,-1,20,right,right,0.304
MON1991WRNO,2019-10-28-12-02-46,6,72,0.5658119021426563,left,both,ambiguous-switch,101,20,right,right,0.118
MON1991WRNO,2019-10-28-12-02-46,6,73,0.6148340846364304,left,probe,ambiguous-switch,-1,30,right,right,0.021
MON1991WRNO,2019-10-28-12-02-46,6,74,0.586384195908175,left,both,ambiguous-switch,108,30,right,right,0.302
MON1991WRNO,2019-10-28-12-02-46,6,75,0.5660495772139054,left,probe,biased-switch,-1,-20,right,right,0.06
MON1991WRNO,2019-10-28-12-02-46,6,76,0.6651687622548903,left,both,biased-switch,98,-20,right,right,0.162
MON1991WRNO,2019-10-28-12-02-46,6,77,0.6117921099057957,right,probe,biased-switch,-1,20,right,right,1.829
MON1991WRNO,2019-10-28-12-02-46,6,78,0.6343997648583499,right,both,biased-switch,102,20,right,right,0.178
MON1991WRNO,2019-10-28-12-02-46,6,79,0.5317804773122795,left,probe,ambiguous-switch,-1,-30,left,left,0.174
MON1991WRNO,2019-10-28-12-02-46,6,80,0.586945889404926,left,both,ambiguous-switch,92,-30,left,left,0.22
MON1991WRNO,2019-10-28-12-02-46,7,1,0.6062936084210925,right,probe,ambiguous-switch,-1,-30,right,right,0.253
MON1991WRNO,2019-10-28-12-02-46,7,2,0.5809369129773605,right,both,ambiguous-switch,103,-30,right,right,1.23
MON1991WRNO,2019-10-28-12-02-46,7,3,0.5727811636969474,left,probe,ambiguous-switch,-1,40,right,right,0.099
MON1991WRNO,2019-10-28-12-02-46,7,4,0.6260614149167044,left,both,ambiguous-switch,110,40,right,right,0.069
MON1991WRNO,2019-10-28-12-02-46,7,5,0.631187861738296,left,probe,ambiguous-switch,-1,5,right,right,0.066
MON1991WRNO,2019-10-28-12-02-46,7,6,0.5150584199386503,left,both,ambiguous-switch,97,5,right,right,0.149
MON1991WRNO,2019-10-28-12-02-46,7,7,0.5207253156707469,left,probe,biased-switch,-1,-5,right,right,1.279
MON1991WRNO,2019-10-28-12-02-46,7,8,0.5236373165160587,left,both,biased-switch,99,-5,right,left,0.247
MON1991WRNO,2019-10-28-12-02-46,7,9,0.5672344897066381,left,probe,biased-switch,-1,40,right,right,0.019
MON1991WRNO,2019-10-28-12-02-46,7,10,0.5552875417879509,left,both,biased-switch,105,40,right,right,0.106
MON1991WRNO,2019-10-28-12-02-46,7,11,0.6837232552142329,left,probe,biased-switch,-1,-10,right,right,0.124
MON1991WRNO,2019-10-28-12-02-46,7,12,0.5246758814502169,left,both,biased-switch,97,-10,right,right,0.032
MON1991WRNO,2019-10-28-12-02-46,7,13,0.6413482609992828,left,probe,biased-switch,-1,0,right,right,0.06
MON1991WRNO,2019-10-28-12-02-46,7,14,0.6701125620109201,left,both,biased-switch,99,0,right,left,0.227
MON1991WRNO,2019-10-28-12-02-46,7,15,0.6738592464279402,right,probe,biased-switch,-1,10,right,right,1.888
MON1991WRNO,2019-10-28-12-02-46,7,16,0.6781280546477403,right,both,biased-switch,93,10,right,right,4.636
MON1991WRNO,2019-10-28-12-02-46,7,17,0.518864366771833,right,probe,biased-switch,-1,20,left,left,0.155
MON1991WRNO,2019-10-28-12-02-46,7,18,0.5764298427154256,right,both,biased-switch,105,20,left,right,0.217
MON1991WRNO,2019-10-28-12-02-46,7,19,0.5922815491571691,right,probe,ambiguous-switch,-1,20,right,right,0.249
MON1991WRNO,2019-10-28-12-02-46,7,20,0.5131755812322938,right,both,ambiguous-switch,91,20,right,right,0.047
MON1991WRNO,2019-10-28-12-02-46,7,21,0.6168696851571386,right,probe,biased-switch,-1,5,right,right,0.05
MON1991WRNO,2019-10-28-12-02-46,7,22,0.6924947225543706,right,both,biased-switch,103,5,right,right,0.028
MON1991WRNO,2019-10-28-12-02-46,7,23,0.6573167558360871,left,probe,biased-switch,-1,-20,right,right,0.006
MON1991WRNO,2019-10-28-12-02-46,7,24,0.5412442595883804,left,both,biased-switch,90,-20,right,left,1.213
MON1991WRNO,2019-10-28-12-02-46,7,25,0.5322193726471435,right,probe,biased-switch,-1,-30,right,right,0.24
MON1991WRNO,2019-10-28-12-02-46,7,26,0.6671111439096931,right,both,biased-switch,107,-30,right,right,1.774
MON1991WRNO,2019-10-28-12-02-46,7,27,0.6194431905421346,right,probe,ambiguous-switch,-1,10,right,right,0.282
MON1991WRNO,2019-10-28-12-02-46,7,28,0.5748191912392108,right,both,ambiguous-switch,100,10,right,right,0.327
MON1991WRNO,2019-10-28-12-02-46,7,29,0.6056188671786482,left,probe,ambiguous-switch,-1,-5,right,right,0.332
MON1991WRNO,2019-10-28-12-02-46,7,30,0.5011752692363535,left,both,ambiguous-switch,97,-5,right,left,0.232
MON1991WRNO,2019-10-28-12-02-46,7,31,0.6812179744578781,left,probe,ambiguous-switch,-1,0,left,left,0.202
MON1991WRNO,2019-10-28-12-02-46,7,32,0.6430697286261264,left,both,ambiguous-switch,106,0,left,left,0.125
MON1991WRNO,2019-10-28-12-02-46,7,33,0.5706216817278407,left,probe,ambiguous-switch,-1,-10,left,left,0.221
MON1991WRNO,2019-10-28-12-02-46,7,34,0.5658987176145095,left,both,ambiguous-switch,102,-10,left,left,0.04
MON1991WRNO,2019-10-28-12-02-46,7,35,0.5379009803551407,left,probe,biased-switch,-1,30,left,left,0.12
MON1991WRNO,2019-10-28-12-02-46,7,36,0.6944920251096782,left,both,biased-switch,108,30,left,left,0.054
MON1991WRNO,2019-10-28-12-02-46,7,37,0.6808726140336854,right,probe,ambiguous-switch,-1,-20,left,left,0.037
MON1991WRNO,2019-10-28-12-02-46,7,38,0.5454305200837488,right,both,ambiguous-switch,95,-20,left,left,0.105
MON1991WRNO,2019-10-28-12-02-46,7,39,0.6823162099134009,left,probe,ambiguous-switch,-1,30,left,left,0.263
MON1991WRNO,2019-10-28-12-02-46,7,40,0.5558846106886784,left,both,ambiguous-switch,98,30,left,left,1.969
MON1991WRNO,2019-10-28-12-02-46,7,41,0.530708214143291,left,probe,ambiguous-switch,-1,-30,left,left,0.202
MON1991WRNO,2019-10-28-12-02-46,7,42,0.5900281784507161,left,both,ambiguous-switch,95,-30,left,left,0.167
MON1991WRNO,2019-10-28-12-02-46,7,43,0.6788284073870674,left,probe,ambiguous-switch,-1,40,left,left,0.277
MON1991WRNO,2019-10-28-12-02-46,7,44,0.5103315338017845,left,both,ambiguous-switch,110,40,left,left,0.212
MON1991WRNO,2019-10-28-12-02-46,7,45,0.5223437244406539,right,probe,ambiguous-switch,-1,5,right,right,0.249
MON1991WRNO,2019-10-28-12-02-46,7,46,0.6944352459894801,right,both,ambiguous-switch,99,5,right,right,0.022
MON1991WRNO,2019-10-28-12-02-46,7,47,0.6603419685049825,left,probe,biased-switch,-1,-5,right,right,1.738
MON1991WRNO,2019-10-28-12-02-46,7,48,0.5603553967333181,left,both,biased-switch,98,-5,right,left,0.177
MON1991WRNO,2019-10-28-12-02-46,7,49,0.6604629288942389,left,probe,biased-switch,-1,40,left,left,1.281
MON1991WRNO,2019-10-28-12-02-46,7,50,0.6206439743791792,left,both,biased-switch,99,40,left,left,0.251
MON1991WRNO,2019-10-28-12-02-46,7,51,0.5160957677645647,left,probe,biased-switch,-1,-10,left,left,0.215
MON1991WRNO,2019-10-28-12-02-46,7,52,0.513838014438486,left,both,biased-switch,101,-10,left,left,0.132
MON1991WRNO,2019-10-28-12-02-46,7,53,0.5016079360382607,left,probe,biased-switch,-1,0,left,left,0.084
MON1991WRNO,2019-10-28-12-02-46,7,54,0.5594241918863889,left,both,biased-switch,107,0,left,left,0.16
MON1991WRNO,2019-10-28-12-02-46,7,55,0.5768392901058037,left,probe,biased-switch,-1,10,left,left,0.096
MON1991WRNO,2019-10-28-12-02-46,7,56,0.5342121461707864,left,both,biased-switch,103,10,left,left,0.222
MON1991WRNO,2019-10-28-12-02-46,7,57,0.6627639954775117,right,probe,biased-switch,-1,20,right,right,0.083
MON1991WRNO,2019-10-28-12-02-46,7,58,0.5246603451237574,right,both,biased-switch,98,20,right,right,0.067
MON1991WRNO,2019-10-28-12-02-46,7,59,0.5861572360887479,right,probe,ambiguous-switch,-1,20,left,left,0.204
MON1991WRNO,2019-10-28-12-02-46,7,60,0.6209159181870368,right,both,ambiguous-switch,104,20,left,right,0.151
MON1991WRNO,2019-10-28-12-02-46,7,61,0.5519861824486676,left,probe,biased-switch,-1,5,left,left,0.188
MON1991WRNO,2019-10-28-12-02-46,7,62,0.6090843335881085,left,both,biased-switch,93,5,left,right,0.01
MON1991WRNO,2019-10-28-12-02-46,7,63,0.5877212697627021,left,probe,biased-switch,-1,-20,right,right,0.048
MON1991WRNO,2019-10-28-12-02-46,7,64,0.6874928751141789,left,both,biased-switch,103,-20,right,right,0.256
MON1991WRNO,2019-10-28-12-02-46,7,65,0.6945297158231372,left,probe,biased-switch,-1,-30,left,left,0.194
MON1991WRNO,2019-10-28-12-02-46,7,66,0.6096456285638894,left,both,biased-switch,102,-30,left,left,0.313
MON1991WRNO,2019-10-28-12-02-46,7,67,0.565364978540297,right,probe,ambiguous-switch,-1,10,right,right,0.062
MON1991WRNO,2019-10-28-12-02-46,7,68,0.5980666578347068,right,both,ambiguous-switch,107,10,right,right,0.256
MON1991WRNO,2019-10-28-12-02-46,7,69,0.6503248882427722,right,probe,ambiguous-switch,-1,-5,right,right,0.062
MON1991WRNO,2019-10-28-12-02-46,7,70,0.5273986874240695,right,both,ambiguous-switch,102,-5,right,right,1.764
MON1991WRNO,2019-10-28-12-02-46,7,71,0.6857082750595659,left,probe,ambiguous-switch,-1,0,left,left,0.274
MON1991WRNO,2019-10-28-12-02-46,7,72,0.6823688207876344,left,both,ambiguous-switch,104,0,left,left,0.124
MON1991WRNO,2019-10-28-12-02-46,7,73,0.5350455069396525,right,probe,ambiguous-switch,-1,-10,left,left,0.185
MON1991WRNO,2019-10-28-12-02-46,7,74,0.6918033230199364,right,both,ambiguous-switch,101,-10,left,left,0.29
MON1991WRNO,2019-10-28-12-02-46,7,75,0.6437731627773342,right,probe,biased-switch,-1,30,right,right,0.079
MON1991WRNO,2019-10-28-12-02-46,7,76,0.6605464909544864,right,both,biased-switch,102,30,right,right,0.024
MON1991WRNO,2019-10-28-12-02-46,7,77,0.6651138386419984,left,probe,ambiguous-switch,-1,-20,right,right,0.129
MON1991WRNO,2019-10-28-12-02-46,7,78,0.6975794355177383,left,both,ambiguous-switch,99,-20,right,right,2.677
MON1991WRNO,2019-10-28-12-02-46,7,79,0.5371324366735682,right,probe,ambiguous-switch,-1,30,right,right,1.403
MON1991WRNO,2019-10-28-12-02-46,7,80,0.690632283395091,right,both,ambiguous-switch,104,30,right,right,0.19
MON1991WRNO,2019-10-28-12-02-46,8,1,0.5683798709349694,left,probe,ambiguous-switch,-1,-30,right,right,0.192
MON1991WRNO,2019-10-28-12-02-46,8,2,0.5170675797853688,left,both,ambiguous-switch,94,-30,right,right,0.025
MON1991WRNO,2019-10-28-12-02-46,8,3,0.5429873222460406,left,probe,ambiguous-switch,-1,5,right,right,1.4
MON1991WRNO,2019-10-28-12-02-46,8,4,0.6962513999861251,left,both,ambiguous-switch,93,5,right,right,0.093
MON1991WRNO,2019-10-28-12-02-46,8,5,0.5041253619916122,right,probe,biased-switch,-1,40,right,right,0.163
MON1991WRNO,2019-10-28-12-02-46,8,6,0.6767757188584881,right,both,biased-switch,91,40,right,right,0.083
MON1991WRNO,2019-10-28-12-02-46,8,7,0.5519156356063877,left,probe,biased-switch,-1,10,right,right,0.132
MON1991WRNO,2019-10-28-12-02-46,8,8,0.5603906587413844,left,both,biased-switch,105,10,right,left,0.212
MON1991WRNO,2019-10-28-12-02-46,8,9,0.6033551182526187,right,probe,biased-switch,-1,-5,right,right,0.112
MON1991WRNO,2019-10-28-12-02-46,8,10,0.5470421828236375,right,both,biased-switch,99,-5,right,right,0.138
MON1991WRNO,2019-10-28-12-02-46,8,11,0.6559128703204753,right,probe,ambiguous-switch,-1,-5,right,right,0.103
MON1991WRNO,2019-10-28-12-02-46,8,12,0.5601353822721582,right,both,ambiguous-switch,108,-5,right,right,0.067
MON1991WRNO,2019-10-28-12-02-46,8,13,0.5348942900007155,right,probe,biased-switch,-1,-30,right,right,0.055
MON1991WRNO,2019-10-28-12-02-46,8,14,0.5335484375202134,right,both,biased-switch,107,-30,right,right,0.081
MON1991WRNO,2019-10-28-12-02-46,8,15,0.5666918785162296,left,probe,ambiguous-switch,-1,30,right,right,0.13
MON1991WRNO,2019-10-28-12-02-46,8,16,0.6131573004955869,left,both,ambiguous-switch,109,30,right,left,0.237
MON1991WRNO,2019-10-28-12-02-46,8,17,0.5471919638783977,right,probe,ambiguous-switch,-1,-10,right,right,0.143
MON1991WRNO,2019-10-28-12-02-46,8,18,0.5052892918248005,right,both,ambiguous-switch,90,-10,right,right,1.528
MON1991WRNO,2019-10-28-12-02-46,8,19,0.6632187508363158,right,probe,biased-switch,-1,20,right,right,0.125
MON1991WRNO,2019-10-28-12-02-46,8,20,0.5283026710350436,right,both,biased-switch,103,20,right,right,0.191
MON1991WRNO,2019-10-28-12-02-46,8,21,0.5964305175312563,right,probe,biased-switch,-1,-20,right,right,0.181
MON1991WRNO,2019-10-28-12-02-46,8,22,0.5387446960193059,right,both,biased-switch,110,-20,right,right,0.183
MON1991WRNO,2019-10-28-12-02-46,8,23,0.6608005216392763,left,probe,biased-switch,-1,30,right,right,0.013
MON1991WRNO,2019-10-28-12-02-46,8,24,0.5497737469866693,left,both,biased-switch,91,30,right,right,0.104
MON1991WRNO,2019-10-28-12-02-46,8,25,0.5817408949373836,right,probe,ambiguous-switch,-1,40,right,right,0.042
MON1991WRNO,2019-10-28-12-02-46,8,26,0.6595681683662883,right,both,ambiguous-switch,99,40,right,right,0.173
MON1991WRNO,2019-10-28-12-02-46,8,27,0.5805903771140313,right,probe,biased-switch,-1,5,right,right,0.219
MON1991WRNO,2019-10-28-12-02-46,8,28,0.6864768099359806,right,both,biased-switch,93,5,right,right,1.121
MON1991WRNO,2019-10-28-12-02-46,8,29,0.5635406204322724,right,probe,ambiguous-switch,-1,-20,right,right,0.258
MON1991WRNO,2019-10-28-12-02-46,8,30,0.677583229278001,right,both,ambiguous-switch,94,-20,right,right,0.351
MON1991WRNO,2019-10-28-12-02-46,8,31,0.5991952195892417,left,probe,biased-switch,-1,-10,right,right,0.217
MON1991WRNO,2019-10-28-12-02-46,8,32,0.5057397864647001,left,both,biased-switch,90,-10,right,right,0.184
MON1991WRNO,2019-10-28-12-02-46,8,33,0.6162234697290688,right,probe,ambiguous-switch,-1,20,right,right,0.402
MON1991WRNO,2019-10-28-12-02-46,8,34,0.6539522856430584,right,both,ambiguous-switch,104,20,right,right,0.266
MON1991WRNO,2019-10-28-12-02-46,8,35,0.5584159662239321,right,probe,ambiguous-switch,-1,10,right,right,0.015
MON1991WRNO,2019-10-28-12-02-46,8,36,0.575263439194859,right,both,ambiguous-switch,94,10,right,right,0.287
MON1991WRNO,2019-10-28-12-02-46,8,37,0.579451263469732,right,probe,biased-switch,-1,0,right,right,0.052
MON1991WRNO,2019-10-28-12-02-46,8,38,0.6173520592254576,right,both,biased-switch,102,0,right,right,0.093
MON1991WRNO,2019-10-28-12-02-46,8,39,0.6301260749298746,left,probe,ambiguous-switch,-1,0,right,right,0.102
MON1991WRNO,2019-10-28-12-02-46,8,40,0.6499806582810279,left,both,ambiguous-switch,95,0,right,right,0.297
MON1991WRNO,2019-10-28-12-02-46,8,41,0.6482842004032384,right,probe,ambiguous-switch,-1,-30,right,right,0.067
MON1991WRNO,2019-10-28-12-02-46,8,42,0.5393323429043797,right,both,ambiguous-switch,91,-30,right,right,0.078
MON1991WRNO,2019-10-28-12-02-46,8,43,0.516536881502226,left,probe,ambiguous-switch,-1,5,right,right,0.218
MON1991WRNO,2019-10-28-12-02-46,8,44,0.6580949855316909,left,both,ambiguous-switch,101,5,right,left,0.238
MON1991WRNO,2019-10-28-12-02-46,8,45,0.5071024973824091,left,probe,biased-switch,-1,40,right,right,0.295
MON1991WRNO,2019-10-28-12-02-46,8,46,0.6598816046939625,left,both,biased-switch,107,40,right,left,0.276
MON1991WRNO,2019-10-28-12-02-46,8,47,0.6697999689446823,left,probe,biased-switch,-1,10,right,right,0.333
MON1991WRNO,2019-10-28-12-02-46,8,48,0.5641543951803196,left,both,biased-switch,99,10,right,left,0.215
MON1991WRNO,2019-10-28-12-02-46,8,49,0.579684716511069,left,probe,biased-switch,-1,-5,right,right,0.157
MON1991WRNO,2019-10-28-12-02-46,8,50,0.5033716763106779,left,both,biased-switch,101,-5,right,left,0.227
MON1991WRNO,2019-10-28-12-02-46,8,51,0.5494541928660889,right,probe,ambiguous-switch,-1,-5,right,right,0.199
MON1991WRNO,2019-10-28-12-02-46,8,52,0.5445859194221175,right,both,ambiguous-switch,90,-5,right,right,1.119
MON1991WRNO,2019-10-28-12-02-46,8,53,0.5186288893331464,left,probe,biased-switch,-1,-30,right,right,0.116
MON1991WRNO,2019-10-28-12-02-46,8,54,0.5635971397938725,left,both,biased-switch,100,-30,right,left,2.325
MON1991WRNO,2019-10-28-12-02-46,8,55,0.6772412633545307,right,probe,ambiguous-switch,-1,30,right,right,0.274
MON1991WRNO,2019-10-28-12-02-46,8,56,0.6312074854047389,right,both,ambiguous-switch,107,30,right,right,0.179
MON1991WRNO,2019-10-28-12-02-46,8,57,0.5040006101034342,right,probe,ambiguous-switch,-1,-10,right,right,0.064
MON1991WRNO,2019-10-28-12-02-46,8,58,0.6130101268904549,right,both,ambiguous-switch,105,-10,right,right,0.157
MON1991WRNO,2019-10-28-12-02-46,8,59,0.6265587852641886,right,probe,biased-switch,-1,20,right,right,1.371
MON1991WRNO,2019-10-28-12-02-46,8,60,0.5036756318202034,right,both,biased-switch,108,20,right,right,0.171
MON1991WRNO,2019-10-28-12-02-46,8,61,0.6830448615918253,left,probe,biased-switch,-1,-20,right,right,0.257
MON1991WRNO,2019-10-28-12-02-46,8,62,0.6360882930185531,left,both,biased-switch,98,-20,right,right,0.25
MON1991WRNO,2019-10-28-12-02-46,8,63,0.5018204755106865,right,probe,biased-switch,-1,30,right,right,0.401
MON1991WRNO,2019-10-28-12-02-46,8,64,0.530595905271441,right,both,biased-switch,93,30,right,left,0.162
MON1991WRNO,2019-10-28-12-02-46,8,65,0.5701720951389084,right,probe,ambiguous-switch,-1,40,right,right,0.118
MON1991WRNO,2019-10-28-12-02-46,8,66,0.6463936229737716,right,both,ambiguous-switch,101,40,right,right,0.074
MON1991WRNO,2019-10-28-12-02-46,8,67,0.5114106723090669,left,probe,biased-switch,-1,5,left,left,0.301
MON1991WRNO,2019-10-28-12-02-46,8,68,0.6121479480550499,left,both,biased-switch,109,5,left,right,0.376
MON1991WRNO,2019-10-28-12-02-46,8,69,0.6981280079234113,right,probe,ambiguous-switch,-1,-20,right,right,0.161
MON1991WRNO,2019-10-28-12-02-46,8,70,0.6793869583904636,right,both,ambiguous-switch,97,-20,right,left,0.253
MON1991WRNO,2019-10-28-12-02-46,8,71,0.5737011448453307,right,probe,biased-switch,-1,-10,right,right,0.347
MON1991WRNO,2019-10-28-12-02-46,8,72,0.5211751125266905,right,both,biased-switch,92,-10,right,right,0.151
MON1991WRNO,2019-10-28-12-02-46,8,73,0.5021297643584821,right,probe,ambiguous-switch,-1,20,right,right,0.138
MON1991WRNO,2019-10-28-12-02-46,8,74,0.5488527311438711,right,both,ambiguous-switch,100,20,right,right,0.192
MON1991WRNO,2019-10-28-12-02-46,8,75,0.6904067150322362,right,probe,ambiguous-switch,-1,10,right,right,0.266
MON1991WRNO,2019-10-28-12-02-46,8,76,0.6305462306774764,right,both,ambiguous-switch,101,10,right,right,0.073
MON1991WRNO,2019-10-28-12-02-46,8,77,0.5804235715448346,right,probe,biased-switch,-1,0,right,right,0.139
MON1991WRNO,2019-10-28-12-02-46,8,78,0.5999417231529889,right,both,biased-switch,98,0,right,right,0.273
MON1991WRNO,2019-10-28-12-02-46,8,79,0.5759789142359979,left,probe,ambiguous-switch,-1,0,right,right,0.079
MON1991WRNO,2019-10-28-12-02-46,8,80,0.5177447881158951,left,both,ambiguous-switch,91,0,right,right,0.075
MON1991WRNO,2019-10-28-12-02-46,9,1,0.5885065168190673,left,probe,ambiguous-switch,-1,5,right,right,0.075
MON1991WRNO,2019-10-28-12-02-46,9,2,0.5421214080744763,left,both,ambiguous-switch,105,5,right,right,0.005
MON1991WRNO,2019-10-28-12-02-46,9,3,0.5709384580020731,right,probe,biased-switch,-1,-5,right,right,0.026
MON1991WRNO,2019-10-28-12-02-46,9,4,0.6209071274020498,right,both,biased-switch,90,-5,right,right,0.189
MON1991WRNO,2019-10-28-12-02-46,9,5,0.6365927346267121,right,probe,biased-switch,-1,20,right,right,0.093
MON1991WRNO,2019-10-28-12-02-46,9,6,0.682135766387232,right,both,biased-switch,97,20,right,right,0.223
MON1991WRNO,2019-10-28-12-02-46,9,7,0.5722782709005926,left,probe,ambiguous-switch,-1,10,right,right,0.108
MON1991WRNO,2019-10-28-12-02-46,9,8,0.6856617796362736,left,both,ambiguous-switch,90,10,right,left,0.271
MON1991WRNO,2019-10-28-12-02-46,9,9,0.6164035803913686,left,probe,ambiguous-switch,-1,-30,left,left,0.215
MON1991WRNO,2019-10-28-12-02-46,9,10,0.5680080664505961,left,both,ambiguous-switch,103,-30,left,left,0.121
MON1991WRNO,2019-10-28-12-02-46,9,11,0.5101223924148706,left,probe,ambiguous-switch,-1,-20,right,right,0.223
MON1991WRNO,2019-10-28-12-02-46,9,12,0.5929158312990158,left,both,ambiguous-switch,107,-20,right,right,0.061
MON1991WRNO,2019-10-28-12-02-46,9,13,0.5899020320556917,right,probe,biased-switch,-1,10,right,right,0.139
MON1991WRNO,2019-10-28-12-02-46,9,14,0.5326532342179295,right,both,biased-switch,103,10,right,right,0.205
MON1991WRNO,2019-10-28-12-02-46,9,15,0.6250055409065658,left,probe,biased-switch,-1,40,right,right,0.192
MON1991WRNO,2019-10-28-12-02-46,9,16,0.6550513805062858,left,both,biased-switch,96,40,right,right,0.005
MON1991WRNO,2019-10-28-12-02-46,9,17,0.5348234295104537,left,probe,ambiguous-switch,-1,0,left,left,0.209
MON1991WRNO,2019-10-28-12-02-46,9,18,0.524910582966448,left,both,ambiguous-switch,104,0,left,left,0.148
MON1991WRNO,2019-10-28-12-02-46,9,19,0.6066526029762097,right,probe,ambiguous-switch,-1,40,right,right,0.103
MON1991WRNO,2019-10-28-12-02-46,9,20,0.5979323854649612,right,both,ambiguous-switch,97,40,right,right,0.046
MON1991WRNO,2019-10-28-12-02-46,9,21,0.6923832798944167,right,probe,biased-switch,-1,-30,right,right,0.236
MON1991WRNO,2019-10-28-12-02-46,9,22,0.6637215517236991,right,both,biased-switch,102,-30,right,right,1.38
MON1991WRNO,2019-10-28-12-02-46,9,23,0.6883348676583527,left,probe,biased-switch,-1,30,right,right,0.286
MON1991WRNO,2019-10-28-12-02-46,9,24,0.5544578926996901,left,both,biased-switch,92,30,right,left,0.419
MON1991WRNO,2019-10-28-12-02-46,9,25,0.6300460350676956,right,probe,ambiguous-switch,-1,-5,right,right,0.015
MON1991WRNO,2019-10-28-12-02-46,9,26,0.5781771306069122,right,both,ambiguous-switch,94,-5,right,right,0.031
MON1991WRNO,2019-10-28-12-02-46,9,27,0.6134383944083165,left,probe,biased-switch,-1,-20,right,right,0.213
MON1991WRNO,2019-10-28-12-02-46,9,28,0.640205875470886,left,both,biased-switch,100,-20,right,right,0.028
MON1991WRNO,2019-10-28-12-02-46,9,29,0.6872988902394744,right,probe,biased-switch,-1,0,left,left,0.228
MON1991WRNO,2019-10-28-12-02-46,9,30,0.6174365298254448,right,both,biased-switch,90,0,left,right,0.242
MON1991WRNO,2019-10-28-12-02-46,9,31,0.5570367567472828,left,probe,biased-switch,-1,5,right,right,0.243
MON1991WRNO,2019-10-28-12-02-46,9,32,0.5451207746472524,left,both,biased-switch,95,5,right,left,0.183
MON1991WRNO,2019-10-28-12-02-46,9,33,0.6325943402550077,right,probe,ambiguous-switch,-1,20,right,right,0.292
MON1991WRNO,2019-10-28-12-02-46,9,34,0.5139861366071278,right,both,ambiguous-switch,98,20,right,right,0.166
MON1991WRNO,2019-10-28-12-02-46,9,35,0.5603509934231545,left,probe,ambiguous-switch,-1,30,right,right,1.169
MON1991WRNO,2019-10-28-12-02-46,9,36,0.5238997791356276,left,both,ambiguous-switch,102,30,right,right,0.23
MON1991WRNO,2019-10-28-12-02-46,9,37,0.5538233559276894,right,probe,biased-switch,-1,-10,right,right,2.145
MON1991WRNO,2019-10-28-12-02-46,9,38,0.5034016253481098,right,both,biased-switch,108,-10,right,right,0.117
MON1991WRNO,2019-10-28-12-02-46,9,39,0.5732137390269207,right,probe,ambiguous-switch,-1,-10,right,right,0.578
MON1991WRNO,2019-10-28-12-02-46,9,40,0.542597368681378,right,both,ambiguous-switch,109,-10,right,right,1.3
MON1991WRNO,2019-10-28-12-02-46,9,41,0.6092092159310858,left,probe,ambiguous-switch,-1,5,right,right,0.41
MON1991WRNO,2019-10-28-12-02-46,9,42,0.576463580647252,left,both,ambiguous-switch,105,5,right,right,0.269
MON1991WRNO,2019-10-28-12-02-46,9,43,0.6505948116108041,left,probe,biased-switch,-1,-5,right,right,0.231
MON1991WRNO,2019-10-28-12-02-46,9,44,0.5260017761627453,left,both,biased-switch,100,-5,right,right,0.2
MON1991WRNO,2019-10-28-12-02-46,9,45,0.5696042304846898,right,probe,biased-switch,-1,20,right,right,0.116
MON1991WRNO,2019-10-28-12-02-46,9,46,0.6342392101086727,right,both,biased-switch,104,20,right,right,0.2
MON1991WRNO,2019-10-28-12-02-46,9,47,0.5487446605839117,right,probe,ambiguous-switch,-1,10,right,right,0.11
MON1991WRNO,2019-10-28-12-02-46,9,48,0.5699211242623323,right,both,ambiguous-switch,108,10,right,right,0.168
MON1991WRNO,2019-10-28-12-02-46,9,49,0.6931673397570366,left,probe,ambiguous-switch,-1,-30,right,right,0.171
MON1991WRNO,2019-10-28-12-02-46,9,50,0.5096318075557231,left,both,ambiguous-switch,99,-30,right,right,0.092
MON1991WRNO,2019-10-28-12-02-46,9,51,0.6752425319980903,left,probe,ambiguous-switch,-1,-20,right,right,0.076
MON1991WRNO,2019-10-28-12-02-46,9,52,0.6163647820717059,left,both,ambiguous-switch,107,-20,right,right,0.052
MON1991WRNO,2019-10-28-12-02-46,9,53,0.6586696619805253,right,probe,biased-switch,-1,10,right,right,0.236
MON1991WRNO,2019-10-28-12-02-46,9,54,0.5523460852892835,right,both,biased-switch,102,10,right,right,0.001
MON1991WRNO,2019-10-28-12-02-46,9,55,0.6207688026955743,right,probe,biased-switch,-1,40,right,right,0.073
MON1991WRNO,2019-10-28-12-02-46,9,56,0.6822910151438839,right,both,biased-switch,91,40,right,right,0.131
MON1991WRNO,2019-10-28-12-02-46,9,57,0.589641362388156,left,probe,ambiguous-switch,-1,0,right,right,0.151
MON1991WRNO,2019-10-28-12-02-46,9,58,0.5648487950319925,left,both,ambiguous-switch,102,0,right,left,2.797
MON1991WRNO,2019-10-28-12-02-46,9,59,0.6125561609110676,right,probe,ambiguous-switch,-1,40,left,left,0.076
MON1991WRNO,2019-10-28-12-02-46,9,60,0.6861311934076428,right,both,ambiguous-switch,91,40,left,right,0.077
MON1991WRNO,2019-10-28-12-02-46,9,61,0.6587420192767461,right,probe,biased-switch,-1,-30,right,right,1.231
MON1991WRNO,2019-10-28-12-02-46,9,62,0.5771115875429338,right,both,biased-switch,106,-30,right,right,1.165
MON1991WRNO,2019-10-28-12-02-46,9,63,0.5666965231073158,left,probe,biased-switch,-1,30,right,right,0.413
MON1991WRNO,2019-10-28-12-02-46,9,64,0.6841959789868848,left,both,biased-switch,94,30,right,right,0.408
MON1991WRNO,2019-10-28-12-02-46,9,65,0.6149936662958685,right,probe,ambiguous-switch,-1,-5,right,right,0.264
MON1991WRNO,2019-10-28-12-02-46,9,66,0.5427693304587657,right,both,ambiguous-switch,107,-5,right,right,0.081
MON1991WRNO,2019-10-28-12-02-46,9,67,0.6745571670682801,left,probe,biased-switch,-1,-20,right,right,0.212
MON1991WRNO,2019-10-28-12-02-46,9,68,0.577242638622076,left,both,biased-switch,93,-20,right,right,2.533
MON1991WRNO,2019-10-28-12-02-46,9,69,0.6615884469029415,left,probe,biased-switch,-1,0,right,right,0.267
MON1991WRNO,2019-10-28-12-02-46,9,70,0.5761412268728626,left,both,biased-switch,107,0,right,left,0.007
MON1991WRNO,2019-10-28-12-02-46,9,71,0.5888166187550171,left,probe,biased-switch,-1,5,left,left,0.228
MON1991WRNO,2019-10-28-12-02-46,9,72,0.5432996982167475,left,both,biased-switch,105,5,left,right,0.135
MON1991WRNO,2019-10-28-12-02-46,9,73,0.5684016177540957,right,probe,ambiguous-switch,-1,20,right,right,0.069
MON1991WRNO,2019-10-28-12-02-46,9,74,0.5136048431340701,right,both,ambiguous-switch,108,20,right,right,0.092
MON1991WRNO,2019-10-28-12-02-46,9,75,0.5755064968628235,left,probe,ambiguous-switch,-1,30,right,right,0.013
MON1991WRNO,2019-10-28-12-02-46,9,76,0.6161582516143562,left,both,ambiguous-switch,103,30,right,left,0.213
MON1991WRNO,2019-10-28-12-02-46,9,77,0.6090485776392117,left,probe,biased-switch,-1,-10,right,right,0.234
MON1991WRNO,2019-10-28-12-02-46,9,78,0.5854593647814214,left,both,biased-switch,99,-10,right,left,0.245
MON1991WRNO,2019-10-28-12-02-46,9,79,0.502700494647314,left,probe,ambiguous-switch,-1,-10,left,left,0.276
MON1991WRNO,2019-10-28-12-02-46,9,80,0.6597427158834429,left,both,ambiguous-switch,94,-10,left,left,0.169
MON1991WRNO,2019-10-28-12-02-46,10,1,0.6160504631859015,right,probe,ambiguous-switch,-1,40,left,left,0.36
MON1991WRNO,2019-10-28-12-02-46,10,2,0.5117972696268256,right,both,ambiguous-switch,102,40,left,left,0.212
MON1991WRNO,2019-10-28-12-02-46,10,3,0.5594360863810661,right,probe,biased-switch,-1,30,left,left,0.217
MON1991WRNO,2019-10-28-12-02-46,10,4,0.6288717654050847,right,both,biased-switch,98,30,left,right,0.159
MON1991WRNO,2019-10-28-12-02-46,10,5,0.5613029328778278,right,probe,biased-switch,-1,-10,right,right,0.004
MON1991WRNO,2019-10-28-12-02-46,10,6,0.5672833286992689,right,both,biased-switch,109,-10,right,right,0.064
MON1991WRNO,2019-10-28-12-02-46,10,7,0.5322423860867893,left,probe,biased-switch,-1,40,left,left,0.19
MON1991WRNO,2019-10-28-12-02-46,10,8,0.518580004010315,left,both,biased-switch,108,40,left,left,0.13
MON1991WRNO,2019-10-28-12-02-46,10,9,0.5335458897098302,left,probe,ambiguous-switch,-1,-5,left,left,0.053
MON1991WRNO,2019-10-28-12-02-46,10,10,0.5401189957711883,left,both,ambiguous-switch,107,-5,left,left,1.252
MON1991WRNO,2019-10-28-12-02-46,10,11,0.5929052596792738,right,probe,ambiguous-switch,-1,20,right,right,0.257
MON1991WRNO,2019-10-28-12-02-46,10,12,0.5084634201646889,right,both,ambiguous-switch,103,20,right,right,0.155
MON1991WRNO,2019-10-28-12-02-46,10,13,0.6460768157262966,right,probe,ambiguous-switch,-1,-30,right,right,0.153
MON1991WRNO,2019-10-28-12-02-46,10,14,0.5627858253737055,right,both,ambiguous-switch,110,-30,right,right,0.19
MON1991WRNO,2019-10-28-12-02-46,10,15,0.64360120741634,right,probe,ambiguous-switch,-1,-10,right,right,0.131
MON1991WRNO,2019-10-28-12-02-46,10,16,0.6061090590200079,right,both,ambiguous-switch,102,-10,right,right,0.068
MON1991WRNO,2019-10-28-12-02-46,10,17,0.6776901246052237,right,probe,ambiguous-switch,-1,30,right,right,0.094
MON1991WRNO,2019-10-28-12-02-46,10,18,0.5518151308064124,right,both,ambiguous-switch,95,30,right,left,0.23
MON1991WRNO,2019-10-28-12-02-46,10,19,0.6581560128190825,left,probe,ambiguous-switch,-1,10,left,left,0.202
MON1991WRNO,2019-10-28-12-02-46,10,20,0.5971050516974877,left,both,ambiguous-switch,104,10,left,left,0.008
MON1991WRNO,2019-10-28-12-02-46,10,21,0.6339646126594967,right,probe,ambiguous-switch,-1,0,right,right,0.108
MON1991WRNO,2019-10-28-12-02-46,10,22,0.6687911702739971,right,both,ambiguous-switch,103,0,right,right,0.135
MON1991WRNO,2019-10-28-12-02-46,10,23,0.5414185241090712,right,probe,biased-switch,-1,-5,right,right,0.287
MON1991WRNO,2019-10-28-12-02-46,10,24,0.5288796888363511,right,both,biased-switch,97,-5,right,right,0.107
MON1991WRNO,2019-10-28-12-02-46,10,25,0.5903816051318853,right,probe,biased-switch,-1,-30,right,right,0.182
MON1991WRNO,2019-10-28-12-02-46,10,26,0.518499304518697,right,both,biased-switch,95,-30,right,right,0.209
MON1991WRNO,2019-10-28-12-02-46,10,27,0.57476893296444,left,probe,biased-switch,-1,5,right,right,0.16
MON1991WRNO,2019-10-28-12-02-46,10,28,0.5836150183501411,left,both,biased-switch,95,5,right,left,0.204
MON1991WRNO,2019-10-28-12-02-46,10,29,0.6760410142532578,right,probe,biased-switch,-1,10,right,right,0.085
MON1991WRNO,2019-10-28-12-02-46,10,30,0.635477911865043,right,both,biased-switch,97,10,right,right,0.116
MON1991WRNO,2019-10-28-12-02-46,10,31,0.5330138697426101,right,probe,ambiguous-switch,-1,-20,right,right,0.108
MON1991WRNO,2019-10-28-12-02-46,10,32,0.5160214083936501,right,both,ambiguous-switch,100,-20,right,right,1.401
MON1991WRNO,2019-10-28-12-02-46,10,33,0.6448866163951195,left,probe,biased-switch,-1,-20,right,right,0.256
MON1991WRNO,2019-10-28-12-02-46,10,34,0.5982205188329118,left,both,biased-switch,106,-20,right,right,0.143
MON1991WRNO,2019-10-28-12-02-46,10,35,0.57432186745123,right,probe,ambiguous-switch,-1,5,right,right,0.116
MON1991WRNO,2019-10-28-12-02-46,10,36,0.5811314481000797,right,both,ambiguous-switch,107,5,right,right,0.131
MON1991WRNO,2019-10-28-12-02-46,10,37,0.5193002629857143,left,probe,biased-switch,-1,0,right,right,0.152
MON1991WRNO,2019-10-28-12-02-46,10,38,0.528775115236325,left,both,biased-switch,108,0,right,left,0.079
MON1991WRNO,2019-10-28-12-02-46,10,39,0.5111165321948299,left,probe,biased-switch,-1,20,left,left,0.188
MON1991WRNO,2019-10-28-12-02-46,10,40,0.5656832900097243,left,both,biased-switch,101,20,left,left,0.162
MON1991WRNO,2019-10-28-12-02-46,10,41,0.5180215111816047,left,probe,ambiguous-switch,-1,40,left,left,0.082
MON1991WRNO,2019-10-28-12-02-46,10,42,0.644076027982142,left,both,ambiguous-switch,106,40,left,left,0.105
MON1991WRNO,2019-10-28-12-02-46,10,43,0.6617496316791234,right,probe,biased-switch,-1,30,right,right,0.202
MON1991WRNO,2019-10-28-12-02-46,10,44,0.5543311044377581,right,both,biased-switch,96,30,right,right,0.119
MON1991WRNO,2019-10-28-12-02-46,10,45,0.5725814570568992,left,probe,biased-switch,-1,-10,right,right,0.238
MON1991WRNO,2019-10-28-12-02-46,10,46,0.5238348131192789,left,both,biased-switch,92,-10,right,left,0.149
MON1991WRNO,2019-10-28-12-02-46,10,47,0.6236879263253159,right,probe,biased-switch,-1,40,right,right,0.144
MON1991WRNO,2019-10-28-12-02-46,10,48,0.6325607156647963,right,both,biased-switch,98,40,right,right,0.615
MON1991WRNO,2019-10-28-12-02-46,10,49,0.6400163720440831,left,probe,ambiguous-switch,-1,-5,left,left,0.48
MON1991WRNO,2019-10-28-12-02-46,10,50,0.664986236879264,left,both,ambiguous-switch,99,-5,left,left,0.343
MON1991WRNO,2019-10-28-12-02-46,10,51,0.6967010642776659,left,probe,ambiguous-switch,-1,20,left,left,0.191
MON1991WRNO,2019-10-28-12-02-46,10,52,0.6635518986151361,left,both,ambiguous-switch,95,20,left,left,1.449
MON1991WRNO,2019-10-28-12-02-46,10,53,0.6379497354510792,left,probe,ambiguous-switch,-1,-30,left,left,0.202
MON1991WRNO,2019-10-28-12-02-46,10,54,0.6676596806296061,left,both,ambiguous-switch,99,-30,left,left,0.07
MON1991WRNO,2019-10-28-12-02-46,10,55,0.6028153959641073,left,probe,ambiguous-switch,-1,-10,left,left,0.139
MON1991WRNO,2019-10-28-12-02-46,10,56,0.6620420862105556,left,both,ambiguous-switch,93,-10,left,left,0.079
MON1991WRNO,2019-10-28-12-02-46,10,57,0.6472809644646402,right,probe,ambiguous-switch,-1,30,left,left,0.125
MON1991WRNO,2019-10-28-12-02-46,10,58,0.6474435344172562,right,both,ambiguous-switch,93,30,left,right,0.294
MON1991WRNO,2019-10-28-12-02-46,10,59,0.6960705611934386,right,probe,ambiguous-switch,-1,10,right,right,0.041
MON1991WRNO,2019-10-28-12-02-46,10,60,0.5650178018200299,right,both,ambiguous-switch,93,10,right,right,0.226
MON1991WRNO,2019-10-28-12-02-46,10,61,0.5398801345083497,right,probe,ambiguous-switch,-1,0,right,right,0.181
MON1991WRNO,2019-10-28-12-02-46,10,62,0.6498757990385474,right,both,ambiguous-switch,102,0,right,right,0.077
MON1991WRNO,2019-10-28-12-02-46,10,63,0.5497221299293003,left,probe,biased-switch,-1,-5,right,right,0.27
MON1991WRNO,2019-10-28-12-02-46,10,64,0.5025282877516967,left,both,biased-switch,97,-5,right,left,0.192
MON1991WRNO,2019-10-28-12-02-46,10,65,0.6114034810149076,right,probe,biased-switch,-1,-30,right,right,0.327
MON1991WRNO,2019-10-28-12-02-46,10,66,0.5995287643870061,right,both,biased-switch,90,-30,right,right,0.176
MON1991WRNO,2019-10-28-12-02-46,10,67,0.6377766524140742,right,probe,biased-switch,-1,5,right,right,0.173
MON1991WRNO,2019-10-28-12-02-46,10,68,0.6262291214625466,right,both,biased-switch,90,5,right,right,0.107
MON1991WRNO,2019-10-28-12-02-46,10,69,0.5752294575693278,right,probe,biased-switch,-1,10,right,right,0.222
MON1991WRNO,2019-10-28-12-02-46,10,70,0.5660090942058322,right,both,biased-switch,107,10,right,right,0.046
MON1991WRNO,2019-10-28-12-02-46,10,71,0.523964422893255,left,probe,ambiguous-switch,-1,-20,right,right,0.224
MON1991WRNO,2019-10-28-12-02-46,10,72,0.6267913606826845,left,both,ambiguous-switch,107,-20,right,right,0.006
MON1991WRNO,2019-10-28-12-02-46,10,73,0.6831767214476031,left,probe,biased-switch,-1,-20,right,right,0.11
MON1991WRNO,2019-10-28-12-02-46,10,74,0.6361255772068127,left,both,biased-switch,93,-20,right,right,1.37
MON1991WRNO,2019-10-28-12-02-46,10,75,0.6092273706313355,right,probe,ambiguous-switch,-1,5,right,right,0.229
MON1991WRNO,2019-10-28-12-02-46,10,76,0.6106304356656741,right,both,ambiguous-switch,103,5,right,right,0.227
MON1991WRNO,2019-10-28-12-02-46,10,77,0.5331970023952877,right,probe,biased-switch,-1,0,left,left,0.613
MON1991WRNO,2019-10-28-12-02-46,10,78,0.6715987870474557,right,both,biased-switch,92,0,left,right,0.246
MON1991WRNO,2019-10-28-12-02-46,10,79,0.5996783329145541,left,probe,biased-switch,-1,20,right,right,0.192
MON1991WRNO,2019-10-28-12-02-46,10,80,0.5731631459888371,left,both,biased-switch,102,20,right,right,0.073
