Participant,Session,Block,Trial,OnsetDelay,ProbeLocation,WhatIsReported,Condition,TriggerTime,ProbeSOA,PrimeDirection,Response,RT
MME2000MRNO,2019-09-19-12-33-59,1,1,0.632369023326883,left,probe,ambiguous-switch,-1,10,left,left,0.306
MME2000MRNO,2019-09-19-12-33-59,1,2,0.5299118444983433,left,both,ambiguous-switch,101,10,left,left,0.18
MME2000MRNO,2019-09-19-12-33-59,1,3,0.5301489747206953,left,probe,ambiguous-stable,-1,0,left,left,0.351
MME2000MRNO,2019-09-19-12-33-59,1,4,0.6194572125467828,left,both,ambiguous-stable,110,0,right,left,0.211
MME2000MRNO,2019-09-19-12-33-59,1,5,0.6766824679834378,left,probe,ambiguous-switch,-1,-10,left,left,0.261
MME2000MRNO,2019-09-19-12-33-59,1,6,0.636698501548618,left,both,ambiguous-switch,92,-10,left,left,0.292
MME2000MRNO,2019-09-19-12-33-59,1,7,0.667213636773175,left,probe,ambiguous-switch,-1,0,left,left,0.402
MME2000MRNO,2019-09-19-12-33-59,1,8,0.6427278406013827,left,both,ambiguous-switch,97,0,left,left,0.231
MME2000MRNO,2019-09-19-12-33-59,1,9,0.6031522665147798,left,probe,ambiguous-stable,-1,30,left,left,0.289
MME2000MRNO,2019-09-19-12-33-59,1,10,0.6801291730945012,left,both,ambiguous-stable,102,30,right,left,0.201
MME2000MRNO,2019-09-19-12-33-59,1,11,0.5576046158081734,left,probe,ambiguous-stable,-1,-10,left,left,0.34
MME2000MRNO,2019-09-19-12-33-59,1,12,0.5692792517042288,left,both,ambiguous-stable,109,-10,right,left,0.165
MME2000MRNO,2019-09-19-12-33-59,1,13,0.6347423375223626,right,probe,ambiguous-switch,-1,40,right,right,0.202
MME2000MRNO,2019-09-19-12-33-59,1,14,0.5415057923774755,right,both,ambiguous-switch,107,40,right,right,0.158
MME2000MRNO,2019-09-19-12-33-59,1,15,0.5409417523635485,left,probe,ambiguous-stable,-1,-5,left,left,0.289
MME2000MRNO,2019-09-19-12-33-59,1,16,0.574731400842452,left,both,ambiguous-stable,94,-5,right,left,0.193
MME2000MRNO,2019-09-19-12-33-59,1,17,0.6145235240704291,right,probe,ambiguous-switch,-1,-5,left,left,0.214
MME2000MRNO,2019-09-19-12-33-59,1,18,0.6631501543344982,right,both,ambiguous-switch,102,-5,left,left,0.187
MME2000MRNO,2019-09-19-12-33-59,1,19,0.6706606463827985,right,probe,ambiguous-switch,-1,5,left,left,0.232
MME2000MRNO,2019-09-19-12-33-59,1,20,0.5193772914527054,right,both,ambiguous-switch,94,5,left,right,0.176
MME2000MRNO,2019-09-19-12-33-59,1,21,0.6567101361429817,left,probe,ambiguous-switch,-1,30,left,left,0.227
MME2000MRNO,2019-09-19-12-33-59,1,22,0.6909573337713819,left,both,ambiguous-switch,92,30,left,left,0.185
MME2000MRNO,2019-09-19-12-33-59,1,23,0.6219955745175915,right,probe,ambiguous-switch,-1,20,left,left,0.299
MME2000MRNO,2019-09-19-12-33-59,1,24,0.5255248070969741,right,both,ambiguous-switch,97,20,left,left,0.001
MME2000MRNO,2019-09-19-12-33-59,1,25,0.5129014111365056,left,probe,biased-switch,-1,10,left,left,0.19
MME2000MRNO,2019-09-19-12-33-59,1,26,0.5182475981877984,left,both,biased-switch,101,10,left,left,0.193
MME2000MRNO,2019-09-19-12-33-59,1,27,0.5191834399185841,right,probe,ambiguous-stable,-1,-20,left,left,0.249
MME2000MRNO,2019-09-19-12-33-59,1,28,0.6031248677870094,right,both,ambiguous-stable,97,-20,right,left,0.471
MME2000MRNO,2019-09-19-12-33-59,1,29,0.6514404330875401,left,probe,ambiguous-stable,-1,20,right,right,0.319
MME2000MRNO,2019-09-19-12-33-59,1,30,0.6813907070085424,left,both,ambiguous-stable,109,20,left,left,0.199
MME2000MRNO,2019-09-19-12-33-59,1,31,0.5887688852072372,left,probe,biased-switch,-1,0,left,left,0.211
MME2000MRNO,2019-09-19-12-33-59,1,32,0.5050085719080748,left,both,biased-switch,94,0,left,left,0.201
MME2000MRNO,2019-09-19-12-33-59,1,33,0.5985298676621034,left,probe,biased-switch,-1,40,left,left,0.209
MME2000MRNO,2019-09-19-12-33-59,1,34,0.602865654033218,left,both,biased-switch,99,40,left,left,0.192
MME2000MRNO,2019-09-19-12-33-59,1,35,0.696324963412408,right,probe,biased-switch,-1,-5,left,left,0.221
MME2000MRNO,2019-09-19-12-33-59,1,36,0.6677059374312085,right,both,biased-switch,106,-5,left,left,0.236
MME2000MRNO,2019-09-19-12-33-59,1,37,0.5163022357748415,right,probe,ambiguous-switch,-1,-20,left,left,0.26
MME2000MRNO,2019-09-19-12-33-59,1,38,0.6773962490284672,right,both,ambiguous-switch,104,-20,left,left,0.185
MME2000MRNO,2019-09-19-12-33-59,1,39,0.6842627500153653,left,probe,biased-switch,-1,-10,left,left,0.349
MME2000MRNO,2019-09-19-12-33-59,1,40,0.6630414369155315,left,both,biased-switch,103,-10,left,left,0.224
MME2000MRNO,2019-09-19-12-33-59,1,41,0.5339660393854764,right,probe,ambiguous-stable,-1,10,left,left,0.327
MME2000MRNO,2019-09-19-12-33-59,1,42,0.5270329605772611,right,both,ambiguous-stable,93,10,right,left,0.203
MME2000MRNO,2019-09-19-12-33-59,1,43,0.5939114798802364,left,probe,biased-switch,-1,-20,left,left,0.302
MME2000MRNO,2019-09-19-12-33-59,1,44,0.5044503407811362,left,both,biased-switch,106,-20,left,left,0.035
MME2000MRNO,2019-09-19-12-33-59,1,45,0.5811649968609963,right,probe,ambiguous-stable,-1,-30,left,left,0.285
MME2000MRNO,2019-09-19-12-33-59,1,46,0.5341702002923906,right,both,ambiguous-stable,92,-30,right,right,0.25
MME2000MRNO,2019-09-19-12-33-59,1,47,0.6343899508183678,left,probe,biased-switch,-1,5,right,right,0.315
MME2000MRNO,2019-09-19-12-33-59,1,48,0.6522408549776183,left,both,biased-switch,101,5,right,left,1.092
MME2000MRNO,2019-09-19-12-33-59,1,49,0.5325011995775227,left,probe,ambiguous-switch,-1,-30,left,left,0.268
MME2000MRNO,2019-09-19-12-33-59,1,50,0.6112312854701121,left,both,ambiguous-switch,101,-30,left,left,0.195
MME2000MRNO,2019-09-19-12-33-59,1,51,0.6336913065756976,left,probe,biased-switch,-1,20,left,left,0.23
MME2000MRNO,2019-09-19-12-33-59,1,52,0.5121824823958206,left,both,biased-switch,105,20,left,right,0.212
MME2000MRNO,2019-09-19-12-33-59,1,53,0.5032398767152149,right,probe,ambiguous-stable,-1,5,left,left,0.32
MME2000MRNO,2019-09-19-12-33-59,1,54,0.5838790605579226,right,both,ambiguous-stable,109,5,right,left,0.206
MME2000MRNO,2019-09-19-12-33-59,1,55,0.6940522681423431,left,probe,ambiguous-stable,-1,40,right,right,0.395
MME2000MRNO,2019-09-19-12-33-59,1,56,0.6905597128670579,left,both,ambiguous-stable,107,40,left,right,0.317
MME2000MRNO,2019-09-19-12-33-59,1,57,0.6706370587654853,left,probe,biased-switch,-1,-30,right,right,0.402
MME2000MRNO,2019-09-19-12-33-59,1,58,0.5326296252770062,left,both,biased-switch,104,-30,right,right,0.252
MME2000MRNO,2019-09-19-12-33-59,1,59,0.5652441741264184,left,probe,biased-switch,-1,30,right,right,0.295
MME2000MRNO,2019-09-19-12-33-59,1,60,0.504590857263679,left,both,biased-switch,92,30,right,right,0.282
MME2000MRNO,2019-09-19-12-33-59,2,1,0.6053653427314866,right,probe,biased-switch,-1,-20,right,right,0.182
MME2000MRNO,2019-09-19-12-33-59,2,2,0.588290196613316,right,both,biased-switch,108,-20,right,right,0.213
MME2000MRNO,2019-09-19-12-33-59,2,3,0.6600990293473231,left,probe,ambiguous-stable,-1,5,right,right,0.241
MME2000MRNO,2019-09-19-12-33-59,2,4,0.6726233648051404,left,both,ambiguous-stable,92,5,left,right,0.195
MME2000MRNO,2019-09-19-12-33-59,2,5,0.5174503747075386,right,probe,ambiguous-stable,-1,-5,left,left,0.216
MME2000MRNO,2019-09-19-12-33-59,2,6,0.6017882491245825,right,both,ambiguous-stable,93,-5,right,right,0.17
MME2000MRNO,2019-09-19-12-33-59,2,7,0.5262536041472768,right,probe,ambiguous-stable,-1,30,right,right,0.237
MME2000MRNO,2019-09-19-12-33-59,2,8,0.6099150977826611,right,both,ambiguous-stable,90,30,left,right,0.225
MME2000MRNO,2019-09-19-12-33-59,2,9,0.6664926974485221,left,probe,ambiguous-switch,-1,0,right,right,0.284
MME2000MRNO,2019-09-19-12-33-59,2,10,0.6853514441985401,left,both,ambiguous-switch,107,0,right,right,0.208
MME2000MRNO,2019-09-19-12-33-59,2,11,0.5637509264271916,right,probe,biased-switch,-1,0,right,right,0.312
MME2000MRNO,2019-09-19-12-33-59,2,12,0.6782593744392532,right,both,biased-switch,101,0,right,left,0.224
MME2000MRNO,2019-09-19-12-33-59,2,13,0.5976895506942571,right,probe,ambiguous-switch,-1,-30,left,left,0.382
MME2000MRNO,2019-09-19-12-33-59,2,14,0.6149747946847857,right,both,ambiguous-switch,93,-30,left,left,0.214
MME2000MRNO,2019-09-19-12-33-59,2,15,0.5087028107349394,left,probe,ambiguous-switch,-1,40,left,left,0.222
MME2000MRNO,2019-09-19-12-33-59,2,16,0.5406615086442186,left,both,ambiguous-switch,107,40,left,left,0.217
MME2000MRNO,2019-09-19-12-33-59,2,17,0.515134179436084,right,probe,biased-switch,-1,5,left,left,0.268
MME2000MRNO,2019-09-19-12-33-59,2,18,0.6079425965529055,right,both,biased-switch,110,5,left,right,0.226
MME2000MRNO,2019-09-19-12-33-59,2,19,0.5869628145303925,right,probe,biased-switch,-1,-5,left,left,0.226
MME2000MRNO,2019-09-19-12-33-59,2,20,0.6737822340959374,right,both,biased-switch,95,-5,left,left,0.206
MME2000MRNO,2019-09-19-12-33-59,2,21,0.60983089258723,left,probe,biased-switch,-1,-30,right,right,0.305
MME2000MRNO,2019-09-19-12-33-59,2,22,0.6274857296620853,left,both,biased-switch,96,-30,right,right,0.252
MME2000MRNO,2019-09-19-12-33-59,2,23,0.5667005786312876,right,probe,ambiguous-switch,-1,20,left,left,0.297
MME2000MRNO,2019-09-19-12-33-59,2,24,0.5368076002197016,right,both,ambiguous-switch,98,20,left,left,0.206
MME2000MRNO,2019-09-19-12-33-59,2,25,0.5435123017928398,left,probe,ambiguous-stable,-1,-20,left,left,0.235
MME2000MRNO,2019-09-19-12-33-59,2,26,0.5021571649879103,left,both,ambiguous-stable,106,-20,right,right,0.202
MME2000MRNO,2019-09-19-12-33-59,2,27,0.6561448646488294,right,probe,ambiguous-switch,-1,30,right,right,0.25
MME2000MRNO,2019-09-19-12-33-59,2,28,0.5679574030516821,right,both,ambiguous-switch,103,30,right,right,0.193
MME2000MRNO,2019-09-19-12-33-59,2,29,0.5225105042813218,right,probe,biased-switch,-1,-10,right,right,0.246
MME2000MRNO,2019-09-19-12-33-59,2,30,0.6518958001859583,right,both,biased-switch,97,-10,right,right,0.215
MME2000MRNO,2019-09-19-12-33-59,2,31,0.6113161309716031,left,probe,ambiguous-switch,-1,-20,right,right,0.19
MME2000MRNO,2019-09-19-12-33-59,2,32,0.5458947884839652,left,both,ambiguous-switch,96,-20,right,right,0.177
MME2000MRNO,2019-09-19-12-33-59,2,33,0.65140039060379,left,probe,biased-switch,-1,40,right,right,0.216
MME2000MRNO,2019-09-19-12-33-59,2,34,0.6909543020717883,left,both,biased-switch,96,40,right,right,0.228
MME2000MRNO,2019-09-19-12-33-59,2,35,0.6327345252656824,left,probe,ambiguous-switch,-1,5,right,right,0.215
MME2000MRNO,2019-09-19-12-33-59,2,36,0.5381939275891577,left,both,ambiguous-switch,101,5,right,left,0.016
MME2000MRNO,2019-09-19-12-33-59,2,37,0.5006769899135166,right,probe,ambiguous-switch,-1,-10,right,right,0.225
MME2000MRNO,2019-09-19-12-33-59,2,38,0.6282889296073576,right,both,ambiguous-switch,109,-10,right,right,0.257
MME2000MRNO,2019-09-19-12-33-59,2,39,0.5335832299565443,left,probe,ambiguous-stable,-1,20,right,right,0.353
MME2000MRNO,2019-09-19-12-33-59,2,40,0.597422862029442,left,both,ambiguous-stable,102,20,left,left,0.199
MME2000MRNO,2019-09-19-12-33-59,2,41,0.6330183002830202,right,probe,ambiguous-switch,-1,-5,right,right,0.243
MME2000MRNO,2019-09-19-12-33-59,2,42,0.5430751108252005,right,both,ambiguous-switch,107,-5,right,right,0.206
MME2000MRNO,2019-09-19-12-33-59,2,43,0.5374356028470882,left,probe,ambiguous-stable,-1,-10,left,left,0.285
MME2000MRNO,2019-09-19-12-33-59,2,44,0.6311238180486988,left,both,ambiguous-stable,103,-10,right,right,0.245
MME2000MRNO,2019-09-19-12-33-59,2,45,0.656831985484146,right,probe,ambiguous-stable,-1,0,right,right,0.334
MME2000MRNO,2019-09-19-12-33-59,2,46,0.6188721733362275,right,both,ambiguous-stable,95,0,left,right,0.173
MME2000MRNO,2019-09-19-12-33-59,2,47,0.5996941619231032,left,probe,ambiguous-stable,-1,40,left,left,0.262
MME2000MRNO,2019-09-19-12-33-59,2,48,0.5617839261760224,left,both,ambiguous-stable,93,40,right,right,0.202
MME2000MRNO,2019-09-19-12-33-59,2,49,0.5867643061133423,right,probe,ambiguous-stable,-1,-30,right,right,0.214
MME2000MRNO,2019-09-19-12-33-59,2,50,0.6526464252747495,right,both,ambiguous-stable,108,-30,left,left,0.181
MME2000MRNO,2019-09-19-12-33-59,2,51,0.5639467182675915,left,probe,biased-switch,-1,10,left,left,0.189
MME2000MRNO,2019-09-19-12-33-59,2,52,0.5808997307554341,left,both,biased-switch,104,10,left,right,0.172
MME2000MRNO,2019-09-19-12-33-59,2,53,0.6130153265655125,left,probe,biased-switch,-1,30,right,right,0.177
MME2000MRNO,2019-09-19-12-33-59,2,54,0.6764736225968174,left,both,biased-switch,108,30,right,right,0.227
MME2000MRNO,2019-09-19-12-33-59,2,55,0.5898018938183786,left,probe,biased-switch,-1,20,right,right,0.282
MME2000MRNO,2019-09-19-12-33-59,2,56,0.5188760020129156,left,both,biased-switch,106,20,right,right,0.225
MME2000MRNO,2019-09-19-12-33-59,2,57,0.6129574400364457,right,probe,ambiguous-switch,-1,10,right,right,0.217
MME2000MRNO,2019-09-19-12-33-59,2,58,0.5098458408780042,right,both,ambiguous-switch,110,10,right,left,0.187
MME2000MRNO,2019-09-19-12-33-59,2,59,0.6126462440616163,right,probe,ambiguous-stable,-1,10,right,right,0.252
MME2000MRNO,2019-09-19-12-33-59,2,60,0.6864183230954437,right,both,ambiguous-stable,106,10,left,left,0.177
MME2000MRNO,2019-09-19-12-33-59,3,1,0.5042697022140671,left,probe,ambiguous-switch,-1,10,right,right,0.285
MME2000MRNO,2019-09-19-12-33-59,3,2,0.5516719581702189,left,both,ambiguous-switch,96,10,right,right,0.259
MME2000MRNO,2019-09-19-12-33-59,3,3,0.6889546839176629,right,probe,ambiguous-stable,-1,5,right,right,0.368
MME2000MRNO,2019-09-19-12-33-59,3,4,0.6169149014130952,right,both,ambiguous-stable,106,5,left,right,0.264
MME2000MRNO,2019-09-19-12-33-59,3,5,0.507835065370065,left,probe,ambiguous-switch,-1,-20,right,right,1.807
MME2000MRNO,2019-09-19-12-33-59,3,6,0.5083266222710981,left,both,ambiguous-switch,101,-20,right,right,0.246
MME2000MRNO,2019-09-19-12-33-59,3,7,0.5201812683813877,left,probe,biased-switch,-1,-30,right,right,0.493
MME2000MRNO,2019-09-19-12-33-59,3,8,0.5418784814004454,left,both,biased-switch,95,-30,right,right,0.241
MME2000MRNO,2019-09-19-12-33-59,3,9,0.6027982261038266,left,probe,ambiguous-stable,-1,-5,right,right,0.202
MME2000MRNO,2019-09-19-12-33-59,3,10,0.5116048694122189,left,both,ambiguous-stable,90,-5,left,right,0.156
MME2000MRNO,2019-09-19-12-33-59,3,11,0.5684923499645491,left,probe,biased-switch,-1,40,right,right,0.231
MME2000MRNO,2019-09-19-12-33-59,3,12,0.6342553352964998,left,both,biased-switch,108,40,right,right,0.205
MME2000MRNO,2019-09-19-12-33-59,3,13,0.5312941437743774,right,probe,biased-switch,-1,-10,right,right,0.203
MME2000MRNO,2019-09-19-12-33-59,3,14,0.5196665785620759,right,both,biased-switch,109,-10,right,right,0.199
MME2000MRNO,2019-09-19-12-33-59,3,15,0.5323830671828784,left,probe,ambiguous-switch,-1,-5,right,right,0.188
MME2000MRNO,2019-09-19-12-33-59,3,16,0.5777364703722645,left,both,ambiguous-switch,109,-5,right,right,0.215
MME2000MRNO,2019-09-19-12-33-59,3,17,0.6178594840102551,left,probe,ambiguous-switch,-1,-30,right,right,0.324
MME2000MRNO,2019-09-19-12-33-59,3,18,0.6662142347857319,left,both,ambiguous-switch,101,-30,right,right,0.206
MME2000MRNO,2019-09-19-12-33-59,3,19,0.6979910203587707,left,probe,ambiguous-switch,-1,0,right,right,0.215
MME2000MRNO,2019-09-19-12-33-59,3,20,0.5611479348638395,left,both,ambiguous-switch,109,0,right,right,0.162
MME2000MRNO,2019-09-19-12-33-59,3,21,0.5071208342077063,left,probe,ambiguous-switch,-1,5,right,right,0.253
MME2000MRNO,2019-09-19-12-33-59,3,22,0.5047520656294353,left,both,ambiguous-switch,99,5,right,left,0.157
MME2000MRNO,2019-09-19-12-33-59,3,23,0.6467996407305757,left,probe,ambiguous-switch,-1,30,left,left,0.16
MME2000MRNO,2019-09-19-12-33-59,3,24,0.6654259420002185,left,both,ambiguous-switch,99,30,left,right,0.05
MME2000MRNO,2019-09-19-12-33-59,3,25,0.5871961550300245,right,probe,ambiguous-stable,-1,-10,right,right,0.3
MME2000MRNO,2019-09-19-12-33-59,3,26,0.5812632591998657,right,both,ambiguous-stable,93,-10,left,left,0.15
MME2000MRNO,2019-09-19-12-33-59,3,27,0.5291640054559985,left,probe,ambiguous-stable,-1,0,left,left,0.185
MME2000MRNO,2019-09-19-12-33-59,3,28,0.6055504395980681,left,both,ambiguous-stable,107,0,right,left,0.15
MME2000MRNO,2019-09-19-12-33-59,3,29,0.5795033428888778,left,probe,biased-switch,-1,0,left,left,0.25
MME2000MRNO,2019-09-19-12-33-59,3,30,0.571522394761382,left,both,biased-switch,92,0,left,right,0.069
MME2000MRNO,2019-09-19-12-33-59,3,31,0.5312685175874757,left,probe,ambiguous-switch,-1,20,right,right,0.331
MME2000MRNO,2019-09-19-12-33-59,3,32,0.6395596896667827,left,both,ambiguous-switch,94,20,right,left,0.172
MME2000MRNO,2019-09-19-12-33-59,3,33,0.5908723732313801,left,probe,biased-switch,-1,5,left,left,0.281
MME2000MRNO,2019-09-19-12-33-59,3,34,0.5987289808873963,left,both,biased-switch,91,5,left,right,0.283
MME2000MRNO,2019-09-19-12-33-59,3,35,0.6917300658686504,left,probe,ambiguous-stable,-1,-30,left,left,0.046
MME2000MRNO,2019-09-19-12-33-59,3,36,0.5048001903732852,left,both,ambiguous-stable,102,-30,right,left,0.297
MME2000MRNO,2019-09-19-12-33-59,3,37,0.541949233223824,left,probe,ambiguous-stable,-1,40,left,left,0.199
MME2000MRNO,2019-09-19-12-33-59,3,38,0.5862070823105484,left,both,ambiguous-stable,94,40,right,left,0.275
MME2000MRNO,2019-09-19-12-33-59,3,39,0.619090707404727,left,probe,biased-switch,-1,10,left,left,0.196
MME2000MRNO,2019-09-19-12-33-59,3,40,0.568832205600083,left,both,biased-switch,107,10,left,right,0.297
MME2000MRNO,2019-09-19-12-33-59,3,41,0.5808085713450087,left,probe,ambiguous-switch,-1,-10,right,right,0.202
MME2000MRNO,2019-09-19-12-33-59,3,42,0.5621954961713941,left,both,ambiguous-switch,109,-10,right,right,0.348
MME2000MRNO,2019-09-19-12-33-59,3,43,0.6699249206301912,left,probe,ambiguous-switch,-1,40,right,right,0.278
MME2000MRNO,2019-09-19-12-33-59,3,44,0.5428326139806576,left,both,ambiguous-switch,92,40,right,right,0.199
MME2000MRNO,2019-09-19-12-33-59,3,45,0.6512692015677046,right,probe,ambiguous-stable,-1,30,right,right,0.04
MME2000MRNO,2019-09-19-12-33-59,3,46,0.6649066870817953,right,both,ambiguous-stable,99,30,left,right,2.146
MME2000MRNO,2019-09-19-12-33-59,3,47,0.636958715407373,right,probe,ambiguous-stable,-1,20,right,right,0.26
MME2000MRNO,2019-09-19-12-33-59,3,48,0.6941095882303263,right,both,ambiguous-stable,108,20,left,right,0.263
MME2000MRNO,2019-09-19-12-33-59,3,49,0.6993461530344649,left,probe,ambiguous-stable,-1,-20,left,left,0.108
MME2000MRNO,2019-09-19-12-33-59,3,50,0.6449183334282196,left,both,ambiguous-stable,95,-20,right,left,0.203
MME2000MRNO,2019-09-19-12-33-59,3,51,0.5214048042234595,left,probe,biased-switch,-1,30,left,left,0.236
MME2000MRNO,2019-09-19-12-33-59,3,52,0.6887195844623765,left,both,biased-switch,105,30,left,left,0.232
MME2000MRNO,2019-09-19-12-33-59,3,53,0.6705835311673038,left,probe,biased-switch,-1,-20,left,left,0.344
MME2000MRNO,2019-09-19-12-33-59,3,54,0.6546772655628486,left,both,biased-switch,97,-20,left,left,0.236
MME2000MRNO,2019-09-19-12-33-59,3,55,0.5918721700537702,right,probe,biased-switch,-1,20,right,right,0.336
MME2000MRNO,2019-09-19-12-33-59,3,56,0.5459450154582476,right,both,biased-switch,95,20,right,left,0.312
MME2000MRNO,2019-09-19-12-33-59,3,57,0.5932700512260827,right,probe,ambiguous-stable,-1,10,right,right,0.205
MME2000MRNO,2019-09-19-12-33-59,3,58,0.5704714964029327,right,both,ambiguous-stable,103,10,left,right,0.218
MME2000MRNO,2019-09-19-12-33-59,3,59,0.5655630851812692,left,probe,biased-switch,-1,-5,left,left,0.197
MME2000MRNO,2019-09-19-12-33-59,3,60,0.5285583397835644,left,both,biased-switch,108,-5,left,left,0.174
MME2000MRNO,2019-09-19-12-33-59,4,1,0.6213708631858963,left,probe,ambiguous-stable,-1,-5,left,left,0.204
MME2000MRNO,2019-09-19-12-33-59,4,2,0.6997900385359797,left,both,ambiguous-stable,100,-5,right,left,0.19
MME2000MRNO,2019-09-19-12-33-59,4,3,0.5776105403333086,right,probe,biased-switch,-1,20,right,right,0.222
MME2000MRNO,2019-09-19-12-33-59,4,4,0.5257836275717118,right,both,biased-switch,94,20,right,right,0.18
MME2000MRNO,2019-09-19-12-33-59,4,5,0.6910890318002257,right,probe,biased-switch,-1,-20,right,right,0.199
MME2000MRNO,2019-09-19-12-33-59,4,6,0.5899060020801846,right,both,biased-switch,101,-20,right,right,0.17
MME2000MRNO,2019-09-19-12-33-59,4,7,0.5159761926895864,right,probe,ambiguous-switch,-1,-10,right,right,0.282
MME2000MRNO,2019-09-19-12-33-59,4,8,0.5786997733059059,right,both,ambiguous-switch,108,-10,right,right,0.204
MME2000MRNO,2019-09-19-12-33-59,4,9,0.5975223087561842,right,probe,ambiguous-switch,-1,40,right,right,0.22
MME2000MRNO,2019-09-19-12-33-59,4,10,0.5632021949343912,right,both,ambiguous-switch,91,40,right,right,0.141
MME2000MRNO,2019-09-19-12-33-59,4,11,0.6897574538756666,right,probe,biased-switch,-1,40,right,right,0.298
MME2000MRNO,2019-09-19-12-33-59,4,12,0.6968139091868748,right,both,biased-switch,99,40,right,right,0.178
MME2000MRNO,2019-09-19-12-33-59,4,13,0.6818248052080385,right,probe,biased-switch,-1,10,right,right,0.228
MME2000MRNO,2019-09-19-12-33-59,4,14,0.629234513458826,right,both,biased-switch,100,10,right,left,0.167
MME2000MRNO,2019-09-19-12-33-59,4,15,0.6928504971283393,right,probe,biased-switch,-1,5,right,right,0.199
MME2000MRNO,2019-09-19-12-33-59,4,16,0.6572274519020634,right,both,biased-switch,98,5,right,left,0.168
MME2000MRNO,2019-09-19-12-33-59,4,17,0.5503472779708249,right,probe,ambiguous-stable,-1,-30,right,right,0.192
MME2000MRNO,2019-09-19-12-33-59,4,18,0.5183973390908677,right,both,ambiguous-stable,109,-30,left,left,0.213
MME2000MRNO,2019-09-19-12-33-59,4,19,0.6123214343930207,right,probe,ambiguous-stable,-1,-20,left,left,0.217
MME2000MRNO,2019-09-19-12-33-59,4,20,0.5175630602282035,right,both,ambiguous-stable,102,-20,right,left,0.131
MME2000MRNO,2019-09-19-12-33-59,4,21,0.6008190054349731,right,probe,biased-switch,-1,-5,left,left,0.173
MME2000MRNO,2019-09-19-12-33-59,4,22,0.6122762909993625,right,both,biased-switch,108,-5,left,left,0.166
MME2000MRNO,2019-09-19-12-33-59,4,23,0.6871426168075827,left,probe,biased-switch,-1,30,left,left,0.164
MME2000MRNO,2019-09-19-12-33-59,4,24,0.6360661092893947,left,both,biased-switch,100,30,left,left,0.117
MME2000MRNO,2019-09-19-12-33-59,4,25,0.5251841699676878,right,probe,biased-switch,-1,-30,left,left,0.183
MME2000MRNO,2019-09-19-12-33-59,4,26,0.6530318416331584,right,both,biased-switch,109,-30,left,left,0.145
MME2000MRNO,2019-09-19-12-33-59,4,27,0.681891451878732,right,probe,biased-switch,-1,0,left,left,0.163
MME2000MRNO,2019-09-19-12-33-59,4,28,0.689060426836698,right,both,biased-switch,105,0,left,right,0.095
MME2000MRNO,2019-09-19-12-33-59,4,29,0.606753721329483,right,probe,ambiguous-switch,-1,10,left,left,0.167
MME2000MRNO,2019-09-19-12-33-59,4,30,0.6955976671838078,right,both,ambiguous-switch,105,10,left,left,0.187
MME2000MRNO,2019-09-19-12-33-59,4,31,0.6930198222165396,left,probe,ambiguous-switch,-1,-5,left,left,0.186
MME2000MRNO,2019-09-19-12-33-59,4,32,0.5400150123013115,left,both,ambiguous-switch,96,-5,left,left,0.118
MME2000MRNO,2019-09-19-12-33-59,4,33,0.5459448521811259,right,probe,ambiguous-stable,-1,-10,left,left,0.162
MME2000MRNO,2019-09-19-12-33-59,4,34,0.6651501463056245,right,both,ambiguous-stable,90,-10,right,left,0.158
MME2000MRNO,2019-09-19-12-33-59,4,35,0.5719127719453223,right,probe,ambiguous-switch,-1,0,left,left,0.114
MME2000MRNO,2019-09-19-12-33-59,4,36,0.6205135561486314,right,both,ambiguous-switch,91,0,left,left,0.139
MME2000MRNO,2019-09-19-12-33-59,4,37,0.5802201197221977,left,probe,ambiguous-switch,-1,30,left,left,0.178
MME2000MRNO,2019-09-19-12-33-59,4,38,0.6079321139151324,left,both,ambiguous-switch,93,30,left,left,0.152
MME2000MRNO,2019-09-19-12-33-59,4,39,0.652932801199338,right,probe,ambiguous-stable,-1,40,left,left,0.176
MME2000MRNO,2019-09-19-12-33-59,4,40,0.5708025617363867,right,both,ambiguous-stable,95,40,right,left,0.208
MME2000MRNO,2019-09-19-12-33-59,4,41,0.642669583633378,right,probe,ambiguous-stable,-1,30,left,left,0.166
MME2000MRNO,2019-09-19-12-33-59,4,42,0.6754214175495543,right,both,ambiguous-stable,106,30,right,left,0.184
MME2000MRNO,2019-09-19-12-33-59,4,43,0.6175150257071286,right,probe,ambiguous-switch,-1,-20,left,left,0.2
MME2000MRNO,2019-09-19-12-33-59,4,44,0.6667791493799036,right,both,ambiguous-switch,104,-20,left,left,0.195
MME2000MRNO,2019-09-19-12-33-59,4,45,0.6030398922152039,right,probe,ambiguous-stable,-1,20,left,left,0.214
MME2000MRNO,2019-09-19-12-33-59,4,46,0.522356315008839,right,both,ambiguous-stable,103,20,right,left,0.836
MME2000MRNO,2019-09-19-12-33-59,4,47,0.6822814407239081,right,probe,ambiguous-switch,-1,-30,left,left,0.137
MME2000MRNO,2019-09-19-12-33-59,4,48,0.5086816319926686,right,both,ambiguous-switch,109,-30,left,left,0.194
MME2000MRNO,2019-09-19-12-33-59,4,49,0.6226965828846502,left,probe,ambiguous-stable,-1,0,left,left,0.189
MME2000MRNO,2019-09-19-12-33-59,4,50,0.5029472765094917,left,both,ambiguous-stable,107,0,right,left,0.097
MME2000MRNO,2019-09-19-12-33-59,4,51,0.5148649973689747,left,probe,ambiguous-stable,-1,5,left,left,0.179
MME2000MRNO,2019-09-19-12-33-59,4,52,0.5867512674790827,left,both,ambiguous-stable,95,5,right,left,0.06
MME2000MRNO,2019-09-19-12-33-59,4,53,0.6216278396443896,right,probe,ambiguous-stable,-1,10,left,left,0.47
MME2000MRNO,2019-09-19-12-33-59,4,54,0.5382696254341688,right,both,ambiguous-stable,92,10,right,left,0.225
MME2000MRNO,2019-09-19-12-33-59,4,55,0.5541131601905864,left,probe,ambiguous-switch,-1,20,left,left,0.641
MME2000MRNO,2019-09-19-12-33-59,4,56,0.5245286065651552,left,both,ambiguous-switch,92,20,left,right,0.239
MME2000MRNO,2019-09-19-12-33-59,4,57,0.676564430867935,left,probe,biased-switch,-1,-10,left,left,0.198
MME2000MRNO,2019-09-19-12-33-59,4,58,0.5032310868491325,left,both,biased-switch,107,-10,left,left,0.132
MME2000MRNO,2019-09-19-12-33-59,4,59,0.6974839536576374,right,probe,ambiguous-switch,-1,5,left,left,0.19
MME2000MRNO,2019-09-19-12-33-59,4,60,0.6998447048747498,right,both,ambiguous-switch,95,5,left,left,0.211
MME2000MRNO,2019-09-19-12-33-59,5,1,0.6436872685464675,right,probe,ambiguous-switch,-1,0,right,right,0.227
MME2000MRNO,2019-09-19-12-33-59,5,2,0.6477508285897722,right,both,ambiguous-switch,95,0,right,right,0.17
MME2000MRNO,2019-09-19-12-33-59,5,3,0.5693805768325535,left,probe,biased-switch,-1,0,right,right,0.168
MME2000MRNO,2019-09-19-12-33-59,5,4,0.571935104803569,left,both,biased-switch,98,0,right,left,0.164
MME2000MRNO,2019-09-19-12-33-59,5,5,0.5362981508020418,left,probe,ambiguous-switch,-1,-5,left,left,0.156
MME2000MRNO,2019-09-19-12-33-59,5,6,0.523761083556436,left,both,ambiguous-switch,105,-5,left,left,0.151
MME2000MRNO,2019-09-19-12-33-59,5,7,0.6685247328558268,left,probe,biased-switch,-1,-30,left,left,0.165
MME2000MRNO,2019-09-19-12-33-59,5,8,0.6702132706462087,left,both,biased-switch,110,-30,left,left,0.161
MME2000MRNO,2019-09-19-12-33-59,5,9,0.6398455921057804,left,probe,ambiguous-switch,-1,30,left,left,0.153
MME2000MRNO,2019-09-19-12-33-59,5,10,0.6464425346523541,left,both,ambiguous-switch,100,30,left,left,0.188
MME2000MRNO,2019-09-19-12-33-59,5,11,0.5860854702336497,right,probe,ambiguous-stable,-1,-5,left,left,0.181
MME2000MRNO,2019-09-19-12-33-59,5,12,0.6641591343145813,right,both,ambiguous-stable,90,-5,right,left,0.192
MME2000MRNO,2019-09-19-12-33-59,5,13,0.6174117016024163,left,probe,biased-switch,-1,-20,right,right,0.172
MME2000MRNO,2019-09-19-12-33-59,5,14,0.6681551236140681,left,both,biased-switch,107,-20,right,right,0.172
MME2000MRNO,2019-09-19-12-33-59,5,15,0.6261154010494725,left,probe,ambiguous-stable,-1,-20,right,right,0.956
MME2000MRNO,2019-09-19-12-33-59,5,16,0.6549928653526358,left,both,ambiguous-stable,105,-20,left,right,0.218
MME2000MRNO,2019-09-19-12-33-59,5,17,0.5331355761827413,right,probe,biased-switch,-1,10,left,left,0.205
MME2000MRNO,2019-09-19-12-33-59,5,18,0.6958657140005837,right,both,biased-switch,91,10,left,right,0.156
MME2000MRNO,2019-09-19-12-33-59,5,19,0.5640969814850118,right,probe,ambiguous-switch,-1,40,right,right,0.258
MME2000MRNO,2019-09-19-12-33-59,5,20,0.5484771038336358,right,both,ambiguous-switch,92,40,right,right,0.927
MME2000MRNO,2019-09-19-12-33-59,5,21,0.6007981742608153,right,probe,ambiguous-stable,-1,0,right,right,0.226
MME2000MRNO,2019-09-19-12-33-59,5,22,0.5950767644863456,right,both,ambiguous-stable,107,0,left,right,0.161
MME2000MRNO,2019-09-19-12-33-59,5,23,0.6556239966598417,right,probe,ambiguous-stable,-1,10,right,right,0.204
MME2000MRNO,2019-09-19-12-33-59,5,24,0.5874418934935696,right,both,ambiguous-stable,104,10,left,left,0.142
MME2000MRNO,2019-09-19-12-33-59,5,25,0.572542642358806,right,probe,ambiguous-switch,-1,10,left,left,0.175
MME2000MRNO,2019-09-19-12-33-59,5,26,0.6678194482511407,right,both,ambiguous-switch,98,10,left,right,0.167
MME2000MRNO,2019-09-19-12-33-59,5,27,0.6526667604530414,left,probe,ambiguous-switch,-1,-30,left,left,0.18
MME2000MRNO,2019-09-19-12-33-59,5,28,0.6013300225417393,left,both,ambiguous-switch,108,-30,left,left,0.216
MME2000MRNO,2019-09-19-12-33-59,5,29,0.5887308807172856,right,probe,ambiguous-switch,-1,20,left,left,0.176
MME2000MRNO,2019-09-19-12-33-59,5,30,0.6394576364225124,right,both,ambiguous-switch,93,20,left,left,0.172
MME2000MRNO,2019-09-19-12-33-59,5,31,0.596161930462014,right,probe,ambiguous-stable,-1,-10,left,left,0.167
MME2000MRNO,2019-09-19-12-33-59,5,32,0.6143837986447204,right,both,ambiguous-stable,98,-10,right,left,0.149
MME2000MRNO,2019-09-19-12-33-59,5,33,0.5841855672084002,left,probe,ambiguous-switch,-1,-20,left,left,0.213
MME2000MRNO,2019-09-19-12-33-59,5,34,0.5595336798282595,left,both,ambiguous-switch,103,-20,left,left,0.189
MME2000MRNO,2019-09-19-12-33-59,5,35,0.6392528573418207,right,probe,ambiguous-switch,-1,5,left,left,0.167
MME2000MRNO,2019-09-19-12-33-59,5,36,0.5605043834984109,right,both,ambiguous-switch,98,5,left,left,0.177
MME2000MRNO,2019-09-19-12-33-59,5,37,0.5725450540583772,left,probe,ambiguous-stable,-1,-30,left,left,0.167
MME2000MRNO,2019-09-19-12-33-59,5,38,0.6038751056953793,left,both,ambiguous-stable,90,-30,right,left,0.256
MME2000MRNO,2019-09-19-12-33-59,5,39,0.6440991512936609,right,probe,biased-switch,-1,5,left,left,0.165
MME2000MRNO,2019-09-19-12-33-59,5,40,0.6764201499267298,right,both,biased-switch,93,5,left,right,0.012
MME2000MRNO,2019-09-19-12-33-59,5,41,0.6437812512685551,left,probe,ambiguous-stable,-1,30,left,left,0.169
MME2000MRNO,2019-09-19-12-33-59,5,42,0.6449675741171874,left,both,ambiguous-stable,104,30,right,left,0.129
MME2000MRNO,2019-09-19-12-33-59,5,43,0.5912748985264025,right,probe,ambiguous-stable,-1,5,right,right,0.16
MME2000MRNO,2019-09-19-12-33-59,5,44,0.5365078127680344,right,both,ambiguous-stable,102,5,left,right,0.06
MME2000MRNO,2019-09-19-12-33-59,5,45,0.5664027059601511,left,probe,biased-switch,-1,-10,left,left,0.186
MME2000MRNO,2019-09-19-12-33-59,5,46,0.650782980761585,left,both,biased-switch,110,-10,left,left,0.152
MME2000MRNO,2019-09-19-12-33-59,5,47,0.5288024760856297,left,probe,biased-switch,-1,30,left,left,0.143
MME2000MRNO,2019-09-19-12-33-59,5,48,0.5273191175308094,left,both,biased-switch,101,30,left,left,0.154
MME2000MRNO,2019-09-19-12-33-59,5,49,0.5779667552206835,left,probe,biased-switch,-1,20,left,left,0.184
MME2000MRNO,2019-09-19-12-33-59,5,50,0.5017156217211957,left,both,biased-switch,93,20,left,right,0.197
MME2000MRNO,2019-09-19-12-33-59,5,51,0.6367320035006672,right,probe,biased-switch,-1,40,right,right,0.177
MME2000MRNO,2019-09-19-12-33-59,5,52,0.548111649230909,right,both,biased-switch,103,40,right,right,0.137
MME2000MRNO,2019-09-19-12-33-59,5,53,0.5847330520507621,left,probe,biased-switch,-1,-5,left,left,0.302
MME2000MRNO,2019-09-19-12-33-59,5,54,0.617385438469547,left,both,biased-switch,98,-5,left,left,0.125
MME2000MRNO,2019-09-19-12-33-59,5,55,0.6461001168823371,right,probe,ambiguous-stable,-1,20,right,right,0.182
MME2000MRNO,2019-09-19-12-33-59,5,56,0.5852453416523354,right,both,ambiguous-stable,94,20,left,right,0.119
MME2000MRNO,2019-09-19-12-33-59,5,57,0.6002541703087193,right,probe,ambiguous-switch,-1,-10,right,right,0.154
MME2000MRNO,2019-09-19-12-33-59,5,58,0.52810357334127,right,both,ambiguous-switch,99,-10,right,right,0.076
MME2000MRNO,2019-09-19-12-33-59,5,59,0.6768158912551128,left,probe,ambiguous-stable,-1,40,left,left,0.087
MME2000MRNO,2019-09-19-12-33-59,5,60,0.5139050779879615,left,both,ambiguous-stable,98,40,right,left,0.064
MME2000MRNO,2019-09-19-12-33-59,6,1,0.6454842415689671,right,probe,biased-switch,-1,30,left,left,0.274
MME2000MRNO,2019-09-19-12-33-59,6,2,0.5429246662212337,right,both,biased-switch,91,30,left,right,0.13
MME2000MRNO,2019-09-19-12-33-59,6,3,0.585664006783955,right,probe,ambiguous-switch,-1,-10,right,right,0.175
MME2000MRNO,2019-09-19-12-33-59,6,4,0.6478806054535493,right,both,ambiguous-switch,105,-10,right,right,0.166
MME2000MRNO,2019-09-19-12-33-59,6,5,0.5283446324685532,right,probe,ambiguous-stable,-1,30,right,right,0.174
MME2000MRNO,2019-09-19-12-33-59,6,6,0.6993563184423975,right,both,ambiguous-stable,108,30,left,right,0.137
MME2000MRNO,2019-09-19-12-33-59,6,7,0.5195191033151251,left,probe,ambiguous-switch,-1,-30,left,left,0.229
MME2000MRNO,2019-09-19-12-33-59,6,8,0.5376033220804143,left,both,ambiguous-switch,94,-30,left,left,0.211
MME2000MRNO,2019-09-19-12-33-59,6,9,0.5713159766795037,right,probe,ambiguous-stable,-1,40,left,left,0.202
MME2000MRNO,2019-09-19-12-33-59,6,10,0.5574329082107274,right,both,ambiguous-stable,99,40,right,right,0.182
MME2000MRNO,2019-09-19-12-33-59,6,11,0.6973489097504646,right,probe,biased-switch,-1,-5,right,right,0.181
MME2000MRNO,2019-09-19-12-33-59,6,12,0.6104807543783368,right,both,biased-switch,95,-5,right,right,0.205
MME2000MRNO,2019-09-19-12-33-59,6,13,0.5815248965574688,left,probe,ambiguous-stable,-1,-10,left,left,0.197
MME2000MRNO,2019-09-19-12-33-59,6,14,0.5009383027755194,left,both,ambiguous-stable,105,-10,right,left,0.168
MME2000MRNO,2019-09-19-12-33-59,6,15,0.5363857214203431,left,probe,ambiguous-stable,-1,-5,left,left,0.176
MME2000MRNO,2019-09-19-12-33-59,6,16,0.5753927264861545,left,both,ambiguous-stable,104,-5,right,left,0.113
MME2000MRNO,2019-09-19-12-33-59,6,17,0.6689087596048287,right,probe,biased-switch,-1,0,right,right,0.053
MME2000MRNO,2019-09-19-12-33-59,6,18,0.5098573706237858,right,both,biased-switch,108,0,right,right,0.158
MME2000MRNO,2019-09-19-12-33-59,6,19,0.6433063562462523,left,probe,ambiguous-switch,-1,10,right,right,0.077
MME2000MRNO,2019-09-19-12-33-59,6,20,0.5250354703988896,left,both,ambiguous-switch,102,10,right,left,0.108
MME2000MRNO,2019-09-19-12-33-59,6,21,0.6610882747624571,left,probe,biased-switch,-1,10,left,left,0.158
MME2000MRNO,2019-09-19-12-33-59,6,22,0.6712909985460171,left,both,biased-switch,102,10,left,right,0.142
MME2000MRNO,2019-09-19-12-33-59,6,23,0.5036853908597565,left,probe,biased-switch,-1,-20,right,right,0.164
MME2000MRNO,2019-09-19-12-33-59,6,24,0.579611225620625,left,both,biased-switch,104,-20,right,right,0.177
MME2000MRNO,2019-09-19-12-33-59,6,25,0.5158627223272619,left,probe,ambiguous-switch,-1,30,right,right,0.172
MME2000MRNO,2019-09-19-12-33-59,6,26,0.6625061901037119,left,both,ambiguous-switch,109,30,right,right,0.143
MME2000MRNO,2019-09-19-12-33-59,6,27,0.515286977094527,right,probe,ambiguous-stable,-1,20,right,right,0.163
MME2000MRNO,2019-09-19-12-33-59,6,28,0.529600644988747,right,both,ambiguous-stable,95,20,left,left,0.124
MME2000MRNO,2019-09-19-12-33-59,6,29,0.6574651866039218,left,probe,ambiguous-switch,-1,-20,left,left,0.145
MME2000MRNO,2019-09-19-12-33-59,6,30,0.5148256547893433,left,both,ambiguous-switch,98,-20,left,left,0.158
MME2000MRNO,2019-09-19-12-33-59,6,31,0.5788743126202911,left,probe,ambiguous-stable,-1,5,left,left,0.133
MME2000MRNO,2019-09-19-12-33-59,6,32,0.6176651645708603,left,both,ambiguous-stable,102,5,right,left,0.117
MME2000MRNO,2019-09-19-12-33-59,6,33,0.5354543663692133,left,probe,ambiguous-switch,-1,0,left,left,0.165
MME2000MRNO,2019-09-19-12-33-59,6,34,0.5935582124787436,left,both,ambiguous-switch,101,0,left,left,0.128
MME2000MRNO,2019-09-19-12-33-59,6,35,0.6673890981867188,left,probe,ambiguous-switch,-1,5,left,left,0.116
MME2000MRNO,2019-09-19-12-33-59,6,36,0.5329483360591005,left,both,ambiguous-switch,105,5,left,left,0.158
MME2000MRNO,2019-09-19-12-33-59,6,37,0.5890442909951028,left,probe,ambiguous-stable,-1,-30,left,left,0.173
MME2000MRNO,2019-09-19-12-33-59,6,38,0.5087230799722953,left,both,ambiguous-stable,108,-30,right,left,0.093
MME2000MRNO,2019-09-19-12-33-59,6,39,0.5923938012493514,left,probe,biased-switch,-1,-10,left,left,0.181
MME2000MRNO,2019-09-19-12-33-59,6,40,0.6689410960821854,left,both,biased-switch,99,-10,left,left,0.132
MME2000MRNO,2019-09-19-12-33-59,6,41,0.5069309710971924,right,probe,ambiguous-stable,-1,0,right,right,0.169
MME2000MRNO,2019-09-19-12-33-59,6,42,0.6309250674312757,right,both,ambiguous-stable,106,0,left,right,0.146
MME2000MRNO,2019-09-19-12-33-59,6,43,0.5262194833760092,right,probe,biased-switch,-1,-30,right,right,0.164
MME2000MRNO,2019-09-19-12-33-59,6,44,0.5453265394413469,right,both,biased-switch,94,-30,right,right,0.148
MME2000MRNO,2019-09-19-12-33-59,6,45,0.6209460492403363,left,probe,ambiguous-stable,-1,10,left,left,0.197
MME2000MRNO,2019-09-19-12-33-59,6,46,0.639256573451263,left,both,ambiguous-stable,103,10,right,left,0.177
MME2000MRNO,2019-09-19-12-33-59,6,47,0.5879507465806441,left,probe,biased-switch,-1,20,left,left,0.171
MME2000MRNO,2019-09-19-12-33-59,6,48,0.5764659684005227,left,both,biased-switch,94,20,left,left,0.151
MME2000MRNO,2019-09-19-12-33-59,6,49,0.5207287663472133,right,probe,biased-switch,-1,40,right,right,0.199
MME2000MRNO,2019-09-19-12-33-59,6,50,0.5708903633720144,right,both,biased-switch,96,40,right,right,0.176
MME2000MRNO,2019-09-19-12-33-59,6,51,0.5696541410040783,left,probe,ambiguous-switch,-1,-5,left,left,0.123
MME2000MRNO,2019-09-19-12-33-59,6,52,0.6035799880557394,left,both,ambiguous-switch,96,-5,left,left,0.122
MME2000MRNO,2019-09-19-12-33-59,6,53,0.6861036624462328,right,probe,ambiguous-switch,-1,40,right,right,0.079
MME2000MRNO,2019-09-19-12-33-59,6,54,0.5011169184601144,right,both,ambiguous-switch,99,40,right,right,0.016
MME2000MRNO,2019-09-19-12-33-59,6,55,0.6454260209772167,left,probe,ambiguous-switch,-1,20,right,right,0.168
MME2000MRNO,2019-09-19-12-33-59,6,56,0.6930940739740998,left,both,ambiguous-switch,105,20,right,left,0.098
MME2000MRNO,2019-09-19-12-33-59,6,57,0.6602055368026278,left,probe,biased-switch,-1,5,left,left,0.106
MME2000MRNO,2019-09-19-12-33-59,6,58,0.5684282781797086,left,both,biased-switch,95,5,left,right,2.516
MME2000MRNO,2019-09-19-12-33-59,6,59,0.6057307455858774,right,probe,ambiguous-stable,-1,-20,right,right,0.184
MME2000MRNO,2019-09-19-12-33-59,6,60,0.5405714281376011,right,both,ambiguous-stable,98,-20,left,right,0.25
MME2000MRNO,2019-09-19-12-33-59,7,1,0.5653906976209496,right,probe,ambiguous-switch,-1,10,left,left,0.21
MME2000MRNO,2019-09-19-12-33-59,7,2,0.6975567509218883,right,both,ambiguous-switch,106,10,left,left,0.209
MME2000MRNO,2019-09-19-12-33-59,7,3,0.5495710032744303,right,probe,ambiguous-switch,-1,40,left,left,0.216
MME2000MRNO,2019-09-19-12-33-59,7,4,0.6482631659688787,right,both,ambiguous-switch,97,40,left,left,0.203
MME2000MRNO,2019-09-19-12-33-59,7,5,0.5853899848418772,right,probe,ambiguous-switch,-1,-30,left,left,0.198
MME2000MRNO,2019-09-19-12-33-59,7,6,0.5208740171197939,right,both,ambiguous-switch,97,-30,left,left,0.186
MME2000MRNO,2019-09-19-12-33-59,7,7,0.5633552665542432,left,probe,ambiguous-stable,-1,-5,left,left,0.203
MME2000MRNO,2019-09-19-12-33-59,7,8,0.5229950549506942,left,both,ambiguous-stable,106,-5,right,left,0.16
MME2000MRNO,2019-09-19-12-33-59,7,9,0.6980400707990407,right,probe,biased-switch,-1,0,left,left,0.144
MME2000MRNO,2019-09-19-12-33-59,7,10,0.6085232793119821,right,both,biased-switch,106,0,left,right,0.197
MME2000MRNO,2019-09-19-12-33-59,7,11,0.6499218283878778,left,probe,biased-switch,-1,20,left,left,0.178
MME2000MRNO,2019-09-19-12-33-59,7,12,0.6254730993435531,left,both,biased-switch,99,20,left,left,0.149
MME2000MRNO,2019-09-19-12-33-59,7,13,0.5326140190386479,left,probe,biased-switch,-1,10,left,left,0.155
MME2000MRNO,2019-09-19-12-33-59,7,14,0.6977224302721206,left,both,biased-switch,91,10,left,right,0.157
MME2000MRNO,2019-09-19-12-33-59,7,15,0.6010951173829985,right,probe,ambiguous-switch,-1,20,right,right,0.204
MME2000MRNO,2019-09-19-12-33-59,7,16,0.5330602046882084,right,both,ambiguous-switch,95,20,right,left,0.267
MME2000MRNO,2019-09-19-12-33-59,7,17,0.6696944813960257,right,probe,ambiguous-stable,-1,10,left,left,0.209
MME2000MRNO,2019-09-19-12-33-59,7,18,0.663749644805092,right,both,ambiguous-stable,104,10,right,left,0.205
MME2000MRNO,2019-09-19-12-33-59,7,19,0.6312195893117313,left,probe,ambiguous-switch,-1,-20,right,right,0.54
MME2000MRNO,2019-09-19-12-33-59,7,20,0.5655660287680162,left,both,ambiguous-switch,101,-20,right,right,0.22
MME2000MRNO,2019-09-19-12-33-59,7,21,0.5861474605491372,left,probe,ambiguous-stable,-1,-30,right,right,0.253
MME2000MRNO,2019-09-19-12-33-59,7,22,0.5947728942584048,left,both,ambiguous-stable,109,-30,left,right,0.174
MME2000MRNO,2019-09-19-12-33-59,7,23,0.5118933201766508,left,probe,biased-switch,-1,30,right,right,0.178
MME2000MRNO,2019-09-19-12-33-59,7,24,0.6125918257476618,left,both,biased-switch,93,30,right,right,0.236
MME2000MRNO,2019-09-19-12-33-59,7,25,0.5602735822320374,left,probe,ambiguous-switch,-1,5,right,right,0.274
MME2000MRNO,2019-09-19-12-33-59,7,26,0.5619807887933759,left,both,ambiguous-switch,107,5,right,right,0.114
MME2000MRNO,2019-09-19-12-33-59,7,27,0.6166555283109818,right,probe,ambiguous-stable,-1,5,right,right,0.158
MME2000MRNO,2019-09-19-12-33-59,7,28,0.5756969574892041,right,both,ambiguous-stable,92,5,left,right,0.209
MME2000MRNO,2019-09-19-12-33-59,7,29,0.653793409491364,left,probe,ambiguous-switch,-1,30,right,right,0.19
MME2000MRNO,2019-09-19-12-33-59,7,30,0.5520624979857374,left,both,ambiguous-switch,98,30,right,left,0.187
MME2000MRNO,2019-09-19-12-33-59,7,31,0.6662413770162151,right,probe,ambiguous-stable,-1,0,right,right,0.208
MME2000MRNO,2019-09-19-12-33-59,7,32,0.5187668227077644,right,both,ambiguous-stable,103,0,left,left,0.311
MME2000MRNO,2019-09-19-12-33-59,7,33,0.5772391860385716,right,probe,biased-switch,-1,-20,right,right,0.258
MME2000MRNO,2019-09-19-12-33-59,7,34,0.6820217784665685,right,both,biased-switch,101,-20,right,right,0.199
MME2000MRNO,2019-09-19-12-33-59,7,35,0.5063376050516526,left,probe,ambiguous-switch,-1,0,right,right,0.563
MME2000MRNO,2019-09-19-12-33-59,7,36,0.5658989219107186,left,both,ambiguous-switch,109,0,right,left,0.247
MME2000MRNO,2019-09-19-12-33-59,7,37,0.5943856333674972,right,probe,biased-switch,-1,-30,right,right,0.235
MME2000MRNO,2019-09-19-12-33-59,7,38,0.5381737301256736,right,both,biased-switch,104,-30,right,right,0.19
MME2000MRNO,2019-09-19-12-33-59,7,39,0.6755444128004443,right,probe,biased-switch,-1,5,right,right,0.141
MME2000MRNO,2019-09-19-12-33-59,7,40,0.5920140611353503,right,both,biased-switch,110,5,right,left,0.163
MME2000MRNO,2019-09-19-12-33-59,7,41,0.5638696829551562,left,probe,ambiguous-stable,-1,20,right,right,0.186
MME2000MRNO,2019-09-19-12-33-59,7,42,0.5341165513853183,left,both,ambiguous-stable,106,20,left,right,0.13
MME2000MRNO,2019-09-19-12-33-59,7,43,0.6968519156815988,left,probe,ambiguous-stable,-1,40,right,right,0.128
MME2000MRNO,2019-09-19-12-33-59,7,44,0.5482876455075568,left,both,ambiguous-stable,97,40,left,right,0.098
MME2000MRNO,2019-09-19-12-33-59,7,45,0.5277342463076845,right,probe,biased-switch,-1,40,left,left,0.188
MME2000MRNO,2019-09-19-12-33-59,7,46,0.5117648552744984,right,both,biased-switch,101,40,left,left,0.145
MME2000MRNO,2019-09-19-12-33-59,7,47,0.6582424659710465,left,probe,ambiguous-switch,-1,-10,right,right,0.202
MME2000MRNO,2019-09-19-12-33-59,7,48,0.5556605453143466,left,both,ambiguous-switch,105,-10,right,right,0.181
MME2000MRNO,2019-09-19-12-33-59,7,49,0.6955304790264797,right,probe,biased-switch,-1,-10,left,left,0.181
MME2000MRNO,2019-09-19-12-33-59,7,50,0.5244496887394945,right,both,biased-switch,101,-10,left,left,0.213
MME2000MRNO,2019-09-19-12-33-59,7,51,0.5250615581631082,left,probe,ambiguous-stable,-1,30,left,left,0.176
MME2000MRNO,2019-09-19-12-33-59,7,52,0.5144858806946835,left,both,ambiguous-stable,101,30,right,left,0.133
MME2000MRNO,2019-09-19-12-33-59,7,53,0.6603647812133449,right,probe,ambiguous-stable,-1,-10,left,left,0.239
MME2000MRNO,2019-09-19-12-33-59,7,54,0.5583207556214674,right,both,ambiguous-stable,105,-10,right,left,0.147
MME2000MRNO,2019-09-19-12-33-59,7,55,0.5695870225036541,left,probe,ambiguous-stable,-1,-20,left,left,0.15
MME2000MRNO,2019-09-19-12-33-59,7,56,0.6180609424942277,left,both,ambiguous-stable,95,-20,right,right,0.19
MME2000MRNO,2019-09-19-12-33-59,7,57,0.5904087617264848,right,probe,biased-switch,-1,-5,left,left,0.177
MME2000MRNO,2019-09-19-12-33-59,7,58,0.6102506554386297,right,both,biased-switch,102,-5,left,right,0.185
MME2000MRNO,2019-09-19-12-33-59,7,59,0.5745609941442608,left,probe,ambiguous-switch,-1,-5,left,left,0.179
MME2000MRNO,2019-09-19-12-33-59,7,60,0.5976336245010506,left,both,ambiguous-switch,107,-5,left,right,0.146
MME2000MRNO,2019-09-19-12-33-59,8,1,0.6192300972611382,right,probe,ambiguous-stable,-1,-30,left,left,0.186
MME2000MRNO,2019-09-19-12-33-59,8,2,0.5246716066700551,right,both,ambiguous-stable,96,-30,right,right,0.174
MME2000MRNO,2019-09-19-12-33-59,8,3,0.5890904881835183,right,probe,biased-switch,-1,-20,right,right,0.042
MME2000MRNO,2019-09-19-12-33-59,8,4,0.5940844240988356,right,both,biased-switch,103,-20,right,right,0.146
MME2000MRNO,2019-09-19-12-33-59,8,5,0.6234886503506367,left,probe,ambiguous-switch,-1,-5,right,right,0.177
MME2000MRNO,2019-09-19-12-33-59,8,6,0.5453202201379826,left,both,ambiguous-switch,106,-5,right,right,0.161
MME2000MRNO,2019-09-19-12-33-59,8,7,0.5305213015112628,right,probe,ambiguous-switch,-1,-10,right,right,0.152
MME2000MRNO,2019-09-19-12-33-59,8,8,0.608908101874038,right,both,ambiguous-switch,102,-10,right,left,0.195
MME2000MRNO,2019-09-19-12-33-59,8,9,0.6205843003876361,right,probe,ambiguous-stable,-1,-10,right,right,0.062
MME2000MRNO,2019-09-19-12-33-59,8,10,0.5193294156672685,right,both,ambiguous-stable,93,-10,left,left,0.177
MME2000MRNO,2019-09-19-12-33-59,8,11,0.6841942925032943,left,probe,ambiguous-stable,-1,-5,left,left,0.143
MME2000MRNO,2019-09-19-12-33-59,8,12,0.5208240957181678,left,both,ambiguous-stable,100,-5,right,left,0.193
MME2000MRNO,2019-09-19-12-33-59,8,13,0.6438693017167667,right,probe,biased-switch,-1,30,right,right,0.174
MME2000MRNO,2019-09-19-12-33-59,8,14,0.521408197242571,right,both,biased-switch,107,30,right,left,0.224
MME2000MRNO,2019-09-19-12-33-59,8,15,0.6078362758583881,left,probe,ambiguous-stable,-1,30,left,left,0.18
MME2000MRNO,2019-09-19-12-33-59,8,16,0.5588475636826161,left,both,ambiguous-stable,108,30,right,left,0.015
MME2000MRNO,2019-09-19-12-33-59,8,17,0.5338433108456946,right,probe,ambiguous-stable,-1,10,right,right,0.273
MME2000MRNO,2019-09-19-12-33-59,8,18,0.5385714536057526,right,both,ambiguous-stable,100,10,left,right,0.228
MME2000MRNO,2019-09-19-12-33-59,8,19,0.5165160043776875,right,probe,ambiguous-stable,-1,20,right,right,0.276
MME2000MRNO,2019-09-19-12-33-59,8,20,0.5932645724010784,right,both,ambiguous-stable,96,20,left,right,0.183
MME2000MRNO,2019-09-19-12-33-59,8,21,0.5483779065347782,right,probe,ambiguous-switch,-1,5,right,right,0.227
MME2000MRNO,2019-09-19-12-33-59,8,22,0.5198334858071288,right,both,ambiguous-switch,97,5,right,left,0.276
MME2000MRNO,2019-09-19-12-33-59,8,23,0.5656289341089592,right,probe,ambiguous-stable,-1,40,left,left,0.38
MME2000MRNO,2019-09-19-12-33-59,8,24,0.6646675390087426,right,both,ambiguous-stable,93,40,right,left,0.228
MME2000MRNO,2019-09-19-12-33-59,8,25,0.5518169317714336,left,probe,ambiguous-stable,-1,-20,right,right,0.289
MME2000MRNO,2019-09-19-12-33-59,8,26,0.6225695557032416,left,both,ambiguous-stable,93,-20,left,left,0.017
MME2000MRNO,2019-09-19-12-33-59,8,27,0.6268788909262818,right,probe,biased-switch,-1,-30,left,left,0.242
MME2000MRNO,2019-09-19-12-33-59,8,28,0.5846400439480153,right,both,biased-switch,105,-30,left,left,0.211
MME2000MRNO,2019-09-19-12-33-59,8,29,0.6897858031469456,right,probe,ambiguous-stable,-1,0,left,left,0.179
MME2000MRNO,2019-09-19-12-33-59,8,30,0.6703345170164383,right,both,ambiguous-stable,103,0,right,left,0.19
MME2000MRNO,2019-09-19-12-33-59,8,31,0.5891176029694214,left,probe,biased-switch,-1,40,right,right,0.166
MME2000MRNO,2019-09-19-12-33-59,8,32,0.6876977939418638,left,both,biased-switch,109,40,right,left,0.197
MME2000MRNO,2019-09-19-12-33-59,8,33,0.5110374210114816,right,probe,ambiguous-switch,-1,30,left,left,0.31
MME2000MRNO,2019-09-19-12-33-59,8,34,0.6788427445913565,right,both,ambiguous-switch,96,30,left,left,0.149
MME2000MRNO,2019-09-19-12-33-59,8,35,0.5740230836746051,left,probe,biased-switch,-1,5,left,left,0.106
MME2000MRNO,2019-09-19-12-33-59,8,36,0.685295426805137,left,both,biased-switch,103,5,left,right,0.103
MME2000MRNO,2019-09-19-12-33-59,8,37,0.6867336777016244,left,probe,ambiguous-switch,-1,40,right,right,0.189
MME2000MRNO,2019-09-19-12-33-59,8,38,0.5311357912004978,left,both,ambiguous-switch,97,40,right,right,0.097
MME2000MRNO,2019-09-19-12-33-59,8,39,0.593641703721351,right,probe,biased-switch,-1,10,left,left,0.163
MME2000MRNO,2019-09-19-12-33-59,8,40,0.6876095113760985,right,both,biased-switch,96,10,left,right,0.225
MME2000MRNO,2019-09-19-12-33-59,8,41,0.5266211892800411,right,probe,biased-switch,-1,-10,right,right,0.221
MME2000MRNO,2019-09-19-12-33-59,8,42,0.5499541658449427,right,both,biased-switch,92,-10,right,right,0.181
MME2000MRNO,2019-09-19-12-33-59,8,43,0.688611709139936,right,probe,ambiguous-stable,-1,5,right,right,0.197
MME2000MRNO,2019-09-19-12-33-59,8,44,0.5044400284066926,right,both,ambiguous-stable,100,5,left,right,0.206
MME2000MRNO,2019-09-19-12-33-59,8,45,0.5011327042610156,right,probe,biased-switch,-1,-5,right,right,0.066
MME2000MRNO,2019-09-19-12-33-59,8,46,0.5950531371446616,right,both,biased-switch,107,-5,right,left,0.247
MME2000MRNO,2019-09-19-12-33-59,8,47,0.6959418325812341,left,probe,ambiguous-switch,-1,0,right,right,0.251
MME2000MRNO,2019-09-19-12-33-59,8,48,0.5530011444891075,left,both,ambiguous-switch,109,0,right,right,0.176
MME2000MRNO,2019-09-19-12-33-59,8,49,0.5701230792025024,right,probe,ambiguous-switch,-1,20,right,right,0.183
MME2000MRNO,2019-09-19-12-33-59,8,50,0.6192588879139908,right,both,ambiguous-switch,108,20,right,right,0.216
MME2000MRNO,2019-09-19-12-33-59,8,51,0.6873271522653992,left,probe,biased-switch,-1,0,right,right,0.297
MME2000MRNO,2019-09-19-12-33-59,8,52,0.6279413021446144,left,both,biased-switch,92,0,right,left,0.203
MME2000MRNO,2019-09-19-12-33-59,8,53,0.559921216551196,left,probe,biased-switch,-1,20,right,right,0.169
MME2000MRNO,2019-09-19-12-33-59,8,54,0.5096202425472959,left,both,biased-switch,108,20,right,left,0.175
MME2000MRNO,2019-09-19-12-33-59,8,55,0.6848935158704195,right,probe,ambiguous-switch,-1,-20,right,right,0.249
MME2000MRNO,2019-09-19-12-33-59,8,56,0.6456274216106813,right,both,ambiguous-switch,102,-20,right,right,0.167
MME2000MRNO,2019-09-19-12-33-59,8,57,0.5822652192992579,left,probe,ambiguous-switch,-1,10,right,right,0.336
MME2000MRNO,2019-09-19-12-33-59,8,58,0.6882571296772297,left,both,ambiguous-switch,106,10,right,left,0.149
MME2000MRNO,2019-09-19-12-33-59,8,59,0.6448179580153014,right,probe,ambiguous-switch,-1,-30,right,right,0.197
MME2000MRNO,2019-09-19-12-33-59,8,60,0.5734918996432616,right,both,ambiguous-switch,100,-30,right,right,0.019
MME2000MRNO,2019-09-19-12-33-59,9,1,0.6292699223964296,left,probe,ambiguous-stable,-1,-20,right,right,0.275
MME2000MRNO,2019-09-19-12-33-59,9,2,0.6023688274291855,left,both,ambiguous-stable,104,-20,left,left,0.221
MME2000MRNO,2019-09-19-12-33-59,9,3,0.5492874822045024,left,probe,ambiguous-stable,-1,-10,left,left,0.329
MME2000MRNO,2019-09-19-12-33-59,9,4,0.5417651629720923,left,both,ambiguous-stable,95,-10,right,right,0.22
MME2000MRNO,2019-09-19-12-33-59,9,5,0.569259555471485,left,probe,ambiguous-stable,-1,-30,right,right,0.249
MME2000MRNO,2019-09-19-12-33-59,9,6,0.6911410568301062,left,both,ambiguous-stable,91,-30,left,left,0.203
MME2000MRNO,2019-09-19-12-33-59,9,7,0.6394591224163837,right,probe,biased-switch,-1,40,left,left,0.184
MME2000MRNO,2019-09-19-12-33-59,9,8,0.5466236103696365,right,both,biased-switch,101,40,left,right,0.231
MME2000MRNO,2019-09-19-12-33-59,9,9,0.6413362844642216,left,probe,ambiguous-switch,-1,40,left,left,0.209
MME2000MRNO,2019-09-19-12-33-59,9,10,0.658102214911304,left,both,ambiguous-switch,100,40,left,left,0.228
MME2000MRNO,2019-09-19-12-33-59,9,11,0.698726350824237,left,probe,ambiguous-switch,-1,10,left,left,0.192
MME2000MRNO,2019-09-19-12-33-59,9,12,0.6713866410404283,left,both,ambiguous-switch,101,10,left,right,0.191
MME2000MRNO,2019-09-19-12-33-59,9,13,0.6669314658297787,right,probe,ambiguous-switch,-1,5,left,left,0.203
MME2000MRNO,2019-09-19-12-33-59,9,14,0.5840966216427794,right,both,ambiguous-switch,99,5,left,left,0.31
MME2000MRNO,2019-09-19-12-33-59,9,15,0.6474371085812378,left,probe,biased-switch,-1,5,left,left,0.217
MME2000MRNO,2019-09-19-12-33-59,9,16,0.5664998995552929,left,both,biased-switch,99,5,left,right,0.206
MME2000MRNO,2019-09-19-12-33-59,9,17,0.5224083445813014,right,probe,ambiguous-switch,-1,-30,left,left,0.222
MME2000MRNO,2019-09-19-12-33-59,9,18,0.5260393001178606,right,both,ambiguous-switch,101,-30,left,left,0.228
MME2000MRNO,2019-09-19-12-33-59,9,19,0.6312772880817908,right,probe,biased-switch,-1,-5,left,left,0.2
MME2000MRNO,2019-09-19-12-33-59,9,20,0.6363505079902577,right,both,biased-switch,98,-5,left,left,0.285
MME2000MRNO,2019-09-19-12-33-59,9,21,0.651570198554408,left,probe,ambiguous-switch,-1,30,left,left,0.394
MME2000MRNO,2019-09-19-12-33-59,9,22,0.5612761480965424,left,both,ambiguous-switch,101,30,left,left,0.276
MME2000MRNO,2019-09-19-12-33-59,9,23,0.6949468528256315,right,probe,ambiguous-stable,-1,0,left,left,0.276
MME2000MRNO,2019-09-19-12-33-59,9,24,0.5562896937015075,right,both,ambiguous-stable,103,0,right,left,0.226
MME2000MRNO,2019-09-19-12-33-59,9,25,0.50733462661208,right,probe,ambiguous-stable,-1,30,right,right,0.232
MME2000MRNO,2019-09-19-12-33-59,9,26,0.5338089504733075,right,both,ambiguous-stable,101,30,left,right,0.164
MME2000MRNO,2019-09-19-12-33-59,9,27,0.6103686240044546,left,probe,biased-switch,-1,30,left,left,0.199
MME2000MRNO,2019-09-19-12-33-59,9,28,0.6188898641263434,left,both,biased-switch,104,30,left,right,0.111
MME2000MRNO,2019-09-19-12-33-59,9,29,0.5685167153923008,left,probe,ambiguous-stable,-1,20,right,right,0.456
MME2000MRNO,2019-09-19-12-33-59,9,30,0.5007725570507849,left,both,ambiguous-stable,103,20,left,right,0.171
MME2000MRNO,2019-09-19-12-33-59,9,31,0.56202944670925,left,probe,ambiguous-stable,-1,-5,right,right,0.201
MME2000MRNO,2019-09-19-12-33-59,9,32,0.5081841779147548,left,both,ambiguous-stable,98,-5,left,left,0.178
MME2000MRNO,2019-09-19-12-33-59,9,33,0.6436926322582524,right,probe,biased-switch,-1,10,left,left,0.214
MME2000MRNO,2019-09-19-12-33-59,9,34,0.6791930898809171,right,both,biased-switch,101,10,left,right,0.208
MME2000MRNO,2019-09-19-12-33-59,9,35,0.6057875227926766,right,probe,ambiguous-switch,-1,0,right,right,0.243
MME2000MRNO,2019-09-19-12-33-59,9,36,0.5489547803469055,right,both,ambiguous-switch,109,0,right,right,0.23
MME2000MRNO,2019-09-19-12-33-59,9,37,0.5054581071378335,right,probe,biased-switch,-1,-10,right,right,0.156
MME2000MRNO,2019-09-19-12-33-59,9,38,0.6445308616327112,right,both,biased-switch,104,-10,right,right,0.175
MME2000MRNO,2019-09-19-12-33-59,9,39,0.5292386606708102,left,probe,ambiguous-switch,-1,-20,right,right,0.084
MME2000MRNO,2019-09-19-12-33-59,9,40,0.5436398275908112,left,both,ambiguous-switch,93,-20,right,right,0.116
MME2000MRNO,2019-09-19-12-33-59,9,41,0.5271115743287225,left,probe,ambiguous-switch,-1,-10,right,right,0.164
MME2000MRNO,2019-09-19-12-33-59,9,42,0.6943119030700468,left,both,ambiguous-switch,97,-10,right,right,0.092
MME2000MRNO,2019-09-19-12-33-59,9,43,0.6115880708604088,right,probe,biased-switch,-1,0,right,right,0.106
MME2000MRNO,2019-09-19-12-33-59,9,44,0.5688119113157871,right,both,biased-switch,104,0,right,right,0.155
MME2000MRNO,2019-09-19-12-33-59,9,45,0.6426521606171871,right,probe,ambiguous-stable,-1,5,right,right,0.031
MME2000MRNO,2019-09-19-12-33-59,9,46,0.6512367718764954,right,both,ambiguous-stable,90,5,left,right,0.082
MME2000MRNO,2019-09-19-12-33-59,9,47,0.5888752941641439,left,probe,biased-switch,-1,-30,left,left,0.025
MME2000MRNO,2019-09-19-12-33-59,9,48,0.659535522863598,left,both,biased-switch,94,-30,left,left,0.217
MME2000MRNO,2019-09-19-12-33-59,9,49,0.6964939474593794,left,probe,biased-switch,-1,-20,left,left,0.117
MME2000MRNO,2019-09-19-12-33-59,9,50,0.6041702045283815,left,both,biased-switch,97,-20,left,left,0.17
MME2000MRNO,2019-09-19-12-33-59,9,51,0.6335232923420513,right,probe,ambiguous-stable,-1,10,right,right,0.137
MME2000MRNO,2019-09-19-12-33-59,9,52,0.6816057582026792,right,both,ambiguous-stable,95,10,left,right,0.218
MME2000MRNO,2019-09-19-12-33-59,9,53,0.5599763506898224,right,probe,ambiguous-switch,-1,20,right,right,0.181
MME2000MRNO,2019-09-19-12-33-59,9,54,0.6017075192267475,right,both,ambiguous-switch,90,20,right,right,0.08
MME2000MRNO,2019-09-19-12-33-59,9,55,0.5259029576010966,left,probe,ambiguous-stable,-1,40,left,left,0.23
MME2000MRNO,2019-09-19-12-33-59,9,56,0.5261609699764429,left,both,ambiguous-stable,104,40,right,left,0.164
MME2000MRNO,2019-09-19-12-33-59,9,57,0.5382265802990563,right,probe,biased-switch,-1,20,right,right,0.205
MME2000MRNO,2019-09-19-12-33-59,9,58,0.6450922085008182,right,both,biased-switch,105,20,right,right,0.185
MME2000MRNO,2019-09-19-12-33-59,9,59,0.6598302406443504,right,probe,ambiguous-switch,-1,-5,right,right,0.18
MME2000MRNO,2019-09-19-12-33-59,9,60,0.597857334221995,right,both,ambiguous-switch,96,-5,right,right,0.156
MME2000MRNO,2019-09-19-12-33-59,10,1,0.5563680483363077,right,probe,biased-switch,-1,-30,left,left,0.159
MME2000MRNO,2019-09-19-12-33-59,10,2,0.673550712516428,right,both,biased-switch,95,-30,left,left,0.181
MME2000MRNO,2019-09-19-12-33-59,10,3,0.6629679805030927,left,probe,ambiguous-switch,-1,-10,left,left,0.22
MME2000MRNO,2019-09-19-12-33-59,10,4,0.6999222512354124,left,both,ambiguous-switch,105,-10,left,left,0.17
MME2000MRNO,2019-09-19-12-33-59,10,5,0.598432106730737,right,probe,ambiguous-switch,-1,-30,left,left,0.216
MME2000MRNO,2019-09-19-12-33-59,10,6,0.5254515719008157,right,both,ambiguous-switch,107,-30,left,left,0.276
MME2000MRNO,2019-09-19-12-33-59,10,7,0.6483721851746266,left,probe,biased-switch,-1,40,left,left,0.197
MME2000MRNO,2019-09-19-12-33-59,10,8,0.669987546250584,left,both,biased-switch,94,40,left,left,0.147
MME2000MRNO,2019-09-19-12-33-59,10,9,0.5155554536844689,left,probe,ambiguous-stable,-1,30,left,left,0.198
MME2000MRNO,2019-09-19-12-33-59,10,10,0.6875456505848466,left,both,ambiguous-stable,102,30,right,left,0.186
MME2000MRNO,2019-09-19-12-33-59,10,11,0.5466824066107663,left,probe,ambiguous-switch,-1,30,left,left,0.176
MME2000MRNO,2019-09-19-12-33-59,10,12,0.6326332965657531,left,both,ambiguous-switch,110,30,left,left,0.188
MME2000MRNO,2019-09-19-12-33-59,10,13,0.5642530981509188,left,probe,ambiguous-switch,-1,40,left,left,0.195
MME2000MRNO,2019-09-19-12-33-59,10,14,0.6549805583186993,left,both,ambiguous-switch,104,40,left,left,0.174
MME2000MRNO,2019-09-19-12-33-59,10,15,0.5053168273687539,right,probe,ambiguous-switch,-1,20,left,left,0.195
MME2000MRNO,2019-09-19-12-33-59,10,16,0.5648366511132672,right,both,ambiguous-switch,96,20,left,right,0.184
MME2000MRNO,2019-09-19-12-33-59,10,17,0.684837143518563,right,probe,ambiguous-stable,-1,-30,left,left,0.218
MME2000MRNO,2019-09-19-12-33-59,10,18,0.5217291136891593,right,both,ambiguous-stable,107,-30,right,right,0.249
MME2000MRNO,2019-09-19-12-33-59,10,19,0.527262146485962,left,probe,biased-switch,-1,20,left,left,0.169
MME2000MRNO,2019-09-19-12-33-59,10,20,0.5057198822273656,left,both,biased-switch,98,20,left,right,0.088
MME2000MRNO,2019-09-19-12-33-59,10,21,0.6000581068240027,left,probe,biased-switch,-1,0,right,right,0.071
MME2000MRNO,2019-09-19-12-33-59,10,22,0.5979737437166212,left,both,biased-switch,90,0,right,left,0.162
MME2000MRNO,2019-09-19-12-33-59,10,23,0.6432044751614169,left,probe,biased-switch,-1,-20,left,left,0.218
MME2000MRNO,2019-09-19-12-33-59,10,24,0.6264229262067106,left,both,biased-switch,93,-20,left,left,1.737
MME2000MRNO,2019-09-19-12-33-59,10,25,0.6939506423676884,right,probe,ambiguous-stable,-1,-20,left,left,0.211
MME2000MRNO,2019-09-19-12-33-59,10,26,0.6946123907476869,right,both,ambiguous-stable,96,-20,right,right,0.251
MME2000MRNO,2019-09-19-12-33-59,10,27,0.5819707612283077,right,probe,biased-switch,-1,30,right,right,0.311
MME2000MRNO,2019-09-19-12-33-59,10,28,0.5842994829693788,right,both,biased-switch,92,30,right,right,0.144
MME2000MRNO,2019-09-19-12-33-59,10,29,0.5161870805859835,left,probe,biased-switch,-1,10,right,right,0.209
MME2000MRNO,2019-09-19-12-33-59,10,30,0.5702639601543357,left,both,biased-switch,95,10,right,left,0.201
MME2000MRNO,2019-09-19-12-33-59,10,31,0.5821857129086988,left,probe,ambiguous-switch,-1,-5,right,right,0.162
MME2000MRNO,2019-09-19-12-33-59,10,32,0.5383695633942079,left,both,ambiguous-switch,102,-5,right,right,0.174
MME2000MRNO,2019-09-19-12-33-59,10,33,0.523672792045714,left,probe,ambiguous-switch,-1,5,right,right,0.192
MME2000MRNO,2019-09-19-12-33-59,10,34,0.6456424486021205,left,both,ambiguous-switch,96,5,right,left,0.103
MME2000MRNO,2019-09-19-12-33-59,10,35,0.5336489911392799,right,probe,ambiguous-stable,-1,20,right,right,0.154
MME2000MRNO,2019-09-19-12-33-59,10,36,0.5206741272748496,right,both,ambiguous-stable,103,20,left,right,0.051
MME2000MRNO,2019-09-19-12-33-59,10,37,0.6055944898830067,left,probe,biased-switch,-1,-5,left,left,0.163
MME2000MRNO,2019-09-19-12-33-59,10,38,0.5243880672709703,left,both,biased-switch,106,-5,left,left,0.172
MME2000MRNO,2019-09-19-12-33-59,10,39,0.5355729691161821,left,probe,biased-switch,-1,5,left,left,0.158
MME2000MRNO,2019-09-19-12-33-59,10,40,0.6787290562251165,left,both,biased-switch,98,5,left,right,0.161
MME2000MRNO,2019-09-19-12-33-59,10,41,0.5692644713150471,right,probe,ambiguous-switch,-1,-20,left,left,0.128
MME2000MRNO,2019-09-19-12-33-59,10,42,0.6107138192555326,right,both,ambiguous-switch,94,-20,left,left,0.303
MME2000MRNO,2019-09-19-12-33-59,10,43,0.655943622672339,left,probe,ambiguous-switch,-1,10,left,left,0.429
MME2000MRNO,2019-09-19-12-33-59,10,44,0.550926030093578,left,both,ambiguous-switch,94,10,left,right,0.08
MME2000MRNO,2019-09-19-12-33-59,10,45,0.6512799072332729,right,probe,ambiguous-stable,-1,-5,right,right,0.278
MME2000MRNO,2019-09-19-12-33-59,10,46,0.6225787731821043,right,both,ambiguous-stable,92,-5,left,right,0.304
MME2000MRNO,2019-09-19-12-33-59,10,47,0.5961656186275092,left,probe,ambiguous-stable,-1,40,right,right,0.372
MME2000MRNO,2019-09-19-12-33-59,10,48,0.6062666021809451,left,both,ambiguous-stable,104,40,left,right,0.753
MME2000MRNO,2019-09-19-12-33-59,10,49,0.6040742109422866,left,probe,ambiguous-switch,-1,0,right,right,0.534
MME2000MRNO,2019-09-19-12-33-59,10,50,0.5092801619870184,left,both,ambiguous-switch,110,0,right,left,0.275
MME2000MRNO,2019-09-19-12-33-59,10,51,0.6844482247082899,left,probe,ambiguous-stable,-1,5,right,right,0.463
MME2000MRNO,2019-09-19-12-33-59,10,52,0.6875041391102252,left,both,ambiguous-stable,101,5,left,right,0.116
MME2000MRNO,2019-09-19-12-33-59,10,53,0.6291230938304844,right,probe,ambiguous-stable,-1,-10,right,right,0.194
MME2000MRNO,2019-09-19-12-33-59,10,54,0.6759181403664527,right,both,ambiguous-stable,105,-10,left,right,0.09
MME2000MRNO,2019-09-19-12-33-59,10,55,0.6882925634879273,left,probe,ambiguous-stable,-1,10,right,right,0.178
MME2000MRNO,2019-09-19-12-33-59,10,56,0.5068919928265001,left,both,ambiguous-stable,94,10,left,left,0.154
MME2000MRNO,2019-09-19-12-33-59,10,57,0.6366051852226642,right,probe,ambiguous-stable,-1,0,left,left,0.152
MME2000MRNO,2019-09-19-12-33-59,10,58,0.5191575163305034,right,both,ambiguous-stable,91,0,right,right,0.11
MME2000MRNO,2019-09-19-12-33-59,10,59,0.5859175687613095,right,probe,biased-switch,-1,-10,right,right,0.133
MME2000MRNO,2019-09-19-12-33-59,10,60,0.6007580813999922,right,both,biased-switch,106,-10,right,right,0.153
