Participant,Session,Block,Trial,OnsetDelay,ProbeLocation,WhatIsReported,Condition,TriggerTime,ProbeSOA,PrimeDirection,Response,RT
VTM1984WRNO,2019-10-10-11-59-31,1,1,0.5019744099193398,right,probe,biased-switch,-1,-10,left,left,0.42
VTM1984WRNO,2019-10-10-11-59-31,1,2,0.6589289516549796,right,both,biased-switch,96,-10,left,left,0.219
VTM1984WRNO,2019-10-10-11-59-31,1,3,0.6258558325891522,left,probe,biased-switch,-1,40,left,left,0.273
VTM1984WRNO,2019-10-10-11-59-31,1,4,0.6631071698066189,left,both,biased-switch,103,40,left,right,1.542
VTM1984WRNO,2019-10-10-11-59-31,1,5,0.6009595253293054,right,probe,ambiguous-switch,-1,30,left,left,0.511
VTM1984WRNO,2019-10-10-11-59-31,1,6,0.5908725713816253,right,both,ambiguous-switch,101,30,left,left,0.309
VTM1984WRNO,2019-10-10-11-59-31,1,7,0.6579983983572922,right,probe,ambiguous-switch,-1,10,left,left,0.305
VTM1984WRNO,2019-10-10-11-59-31,1,8,0.5286818202718662,right,both,ambiguous-switch,95,10,left,right,0.248
VTM1984WRNO,2019-10-10-11-59-31,1,9,0.586076920907626,left,probe,ambiguous-switch,-1,-5,right,right,0.345
VTM1984WRNO,2019-10-10-11-59-31,1,10,0.5626022545536569,left,both,ambiguous-switch,91,-5,right,left,0.337
VTM1984WRNO,2019-10-10-11-59-31,1,11,0.5167835443449827,right,probe,biased-switch,-1,0,right,right,0.328
VTM1984WRNO,2019-10-10-11-59-31,1,12,0.5152618680989283,right,both,biased-switch,93,0,right,left,0.549
VTM1984WRNO,2019-10-10-11-59-31,1,13,0.5994241393352053,right,probe,ambiguous-switch,-1,-20,left,left,0.25
VTM1984WRNO,2019-10-10-11-59-31,1,14,0.5215600651359455,right,both,ambiguous-switch,102,-20,left,left,0.124
VTM1984WRNO,2019-10-10-11-59-31,1,15,0.5229941937637799,right,probe,biased-switch,-1,30,left,left,0.342
VTM1984WRNO,2019-10-10-11-59-31,1,16,0.5762962213483103,right,both,biased-switch,98,30,left,left,0.172
VTM1984WRNO,2019-10-10-11-59-31,1,17,0.5399937382666987,right,probe,ambiguous-switch,-1,20,left,left,0.25
VTM1984WRNO,2019-10-10-11-59-31,1,18,0.5613426225179874,right,both,ambiguous-switch,99,20,left,left,0.227
VTM1984WRNO,2019-10-10-11-59-31,1,19,0.502741328130927,right,probe,ambiguous-switch,-1,-30,left,left,0.258
VTM1984WRNO,2019-10-10-11-59-31,1,20,0.5557324776584707,right,both,ambiguous-switch,110,-30,left,left,0.158
VTM1984WRNO,2019-10-10-11-59-31,1,21,0.5418682177922666,left,probe,biased-switch,-1,20,left,left,0.215
VTM1984WRNO,2019-10-10-11-59-31,1,22,0.5670187677672941,left,both,biased-switch,94,20,left,right,0.108
VTM1984WRNO,2019-10-10-11-59-31,1,23,0.6363922788469351,right,probe,biased-switch,-1,-5,left,left,0.117
VTM1984WRNO,2019-10-10-11-59-31,1,24,0.5830647713177369,right,both,biased-switch,95,-5,left,left,3.773
VTM1984WRNO,2019-10-10-11-59-31,1,25,0.5712296855855337,left,probe,biased-switch,-1,10,left,left,0.414
VTM1984WRNO,2019-10-10-11-59-31,1,26,0.6766580157286002,left,both,biased-switch,98,10,left,left,0.239
VTM1984WRNO,2019-10-10-11-59-31,1,27,0.6095478784846338,left,probe,biased-switch,-1,-20,left,left,8.354
VTM1984WRNO,2019-10-10-11-59-31,1,28,0.6943171384150615,left,both,biased-switch,106,-20,left,left,0.427
VTM1984WRNO,2019-10-10-11-59-31,1,29,0.6796698062288105,left,probe,biased-switch,-1,5,left,left,1.885
VTM1984WRNO,2019-10-10-11-59-31,1,30,0.6275682514756108,left,both,biased-switch,100,5,left,left,0.282
VTM1984WRNO,2019-10-10-11-59-31,1,31,0.606050206567826,right,probe,ambiguous-switch,-1,0,left,left,3.292
VTM1984WRNO,2019-10-10-11-59-31,1,32,0.5456595279815168,right,both,ambiguous-switch,100,0,left,left,0.346
VTM1984WRNO,2019-10-10-11-59-31,1,33,0.5393355719166589,left,probe,ambiguous-switch,-1,-10,left,left,0.504
VTM1984WRNO,2019-10-10-11-59-31,1,34,0.6401265740193478,left,both,ambiguous-switch,107,-10,left,left,0.361
VTM1984WRNO,2019-10-10-11-59-31,1,35,0.5668325113230455,left,probe,ambiguous-switch,-1,5,left,left,0.72
VTM1984WRNO,2019-10-10-11-59-31,1,36,0.6576444648463253,left,both,ambiguous-switch,95,5,left,left,0.293
VTM1984WRNO,2019-10-10-11-59-31,1,37,0.6449124720776573,left,probe,ambiguous-switch,-1,40,left,left,0.592
VTM1984WRNO,2019-10-10-11-59-31,1,38,0.5789179658476489,left,both,ambiguous-switch,109,40,left,left,0.283
VTM1984WRNO,2019-10-10-11-59-31,1,39,0.6908799023250133,right,probe,biased-switch,-1,-30,left,left,0.419
VTM1984WRNO,2019-10-10-11-59-31,1,40,0.5449675011586051,right,both,biased-switch,107,-30,left,left,0.779
VTM1984WRNO,2019-10-10-11-59-31,1,41,0.6485185383034098,right,probe,biased-switch,-1,-10,left,left,0.272
VTM1984WRNO,2019-10-10-11-59-31,1,42,0.5920921356572988,right,both,biased-switch,97,-10,left,left,0.242
VTM1984WRNO,2019-10-10-11-59-31,1,43,0.6333000345765456,left,probe,biased-switch,-1,40,left,left,0.308
VTM1984WRNO,2019-10-10-11-59-31,1,44,0.5707224944392739,left,both,biased-switch,95,40,left,left,0.21
VTM1984WRNO,2019-10-10-11-59-31,1,45,0.6510819855279484,right,probe,ambiguous-switch,-1,30,left,left,0.168
VTM1984WRNO,2019-10-10-11-59-31,1,46,0.664555679967935,right,both,ambiguous-switch,97,30,left,left,0.094
VTM1984WRNO,2019-10-10-11-59-31,1,47,0.6269654804071755,left,probe,ambiguous-switch,-1,10,left,left,0.398
VTM1984WRNO,2019-10-10-11-59-31,1,48,0.5160488861695457,left,both,ambiguous-switch,100,10,left,left,0.312
VTM1984WRNO,2019-10-10-11-59-31,1,49,0.6969164742540153,right,probe,ambiguous-switch,-1,-5,left,left,0.324
VTM1984WRNO,2019-10-10-11-59-31,1,50,0.6352174630104764,right,both,ambiguous-switch,92,-5,left,left,0.234
VTM1984WRNO,2019-10-10-11-59-31,1,51,0.565227000942071,left,probe,biased-switch,-1,0,left,left,0.366
VTM1984WRNO,2019-10-10-11-59-31,1,52,0.6978023059217142,left,both,biased-switch,104,0,left,right,0.429
VTM1984WRNO,2019-10-10-11-59-31,1,53,0.5438834164276728,left,probe,ambiguous-switch,-1,-20,left,left,0.28
VTM1984WRNO,2019-10-10-11-59-31,1,54,0.629702870599388,left,both,ambiguous-switch,106,-20,left,left,0.218
VTM1984WRNO,2019-10-10-11-59-31,1,55,0.6031275868521124,left,probe,biased-switch,-1,30,right,right,1.209
VTM1984WRNO,2019-10-10-11-59-31,1,56,0.5114768603906766,left,both,biased-switch,105,30,right,left,0.334
VTM1984WRNO,2019-10-10-11-59-31,1,57,0.53501333368345,right,probe,ambiguous-switch,-1,20,left,left,0.543
VTM1984WRNO,2019-10-10-11-59-31,1,58,0.5916665197189078,right,both,ambiguous-switch,101,20,left,right,0.345
VTM1984WRNO,2019-10-10-11-59-31,1,59,0.6120077740935318,left,probe,ambiguous-switch,-1,-30,right,right,0.302
VTM1984WRNO,2019-10-10-11-59-31,1,60,0.5878377678826799,left,both,ambiguous-switch,92,-30,right,right,0.344
VTM1984WRNO,2019-10-10-11-59-31,1,61,0.522938112781519,right,probe,biased-switch,-1,20,left,left,0.379
VTM1984WRNO,2019-10-10-11-59-31,1,62,0.6805680547561066,right,both,biased-switch,94,20,left,right,0.345
VTM1984WRNO,2019-10-10-11-59-31,1,63,0.5654668016431973,left,probe,biased-switch,-1,-5,right,right,0.314
VTM1984WRNO,2019-10-10-11-59-31,1,64,0.6623972905451192,left,both,biased-switch,101,-5,right,right,0.3
VTM1984WRNO,2019-10-10-11-59-31,1,65,0.5578779971614344,right,probe,biased-switch,-1,10,right,right,0.329
VTM1984WRNO,2019-10-10-11-59-31,1,66,0.6631703493107222,right,both,biased-switch,106,10,right,left,0.379
VTM1984WRNO,2019-10-10-11-59-31,1,67,0.5919991016893378,right,probe,biased-switch,-1,-20,right,right,0.283
VTM1984WRNO,2019-10-10-11-59-31,1,68,0.5842280767933081,right,both,biased-switch,101,-20,right,right,0.236
VTM1984WRNO,2019-10-10-11-59-31,1,69,0.5087578211029609,left,probe,biased-switch,-1,5,right,right,0.357
VTM1984WRNO,2019-10-10-11-59-31,1,70,0.5445924850210041,left,both,biased-switch,103,5,right,left,0.261
VTM1984WRNO,2019-10-10-11-59-31,1,71,0.6556609803324507,right,probe,ambiguous-switch,-1,0,right,right,0.252
VTM1984WRNO,2019-10-10-11-59-31,1,72,0.629381175460754,right,both,ambiguous-switch,104,0,right,right,0.428
VTM1984WRNO,2019-10-10-11-59-31,1,73,0.5878086302356291,left,probe,ambiguous-switch,-1,-10,right,right,0.341
VTM1984WRNO,2019-10-10-11-59-31,1,74,0.5697112223112242,left,both,ambiguous-switch,110,-10,right,right,0.206
VTM1984WRNO,2019-10-10-11-59-31,1,75,0.6049383339103194,left,probe,ambiguous-switch,-1,5,right,right,0.272
VTM1984WRNO,2019-10-10-11-59-31,1,76,0.6998204857258798,left,both,ambiguous-switch,100,5,right,right,0.278
VTM1984WRNO,2019-10-10-11-59-31,1,77,0.637084492858783,right,probe,ambiguous-switch,-1,40,right,right,0.429
VTM1984WRNO,2019-10-10-11-59-31,1,78,0.6170603745088913,right,both,ambiguous-switch,94,40,right,right,0.324
VTM1984WRNO,2019-10-10-11-59-31,1,79,0.5435325604036755,left,probe,biased-switch,-1,-30,right,right,0.402
VTM1984WRNO,2019-10-10-11-59-31,1,80,0.6332396868534682,left,both,biased-switch,104,-30,right,right,0.371
VTM1984WRNO,2019-10-10-11-59-31,2,1,0.5301250080187547,left,probe,ambiguous-switch,-1,-10,right,right,0.028
VTM1984WRNO,2019-10-10-11-59-31,2,2,0.568731204135911,left,both,ambiguous-switch,94,-10,right,right,0.34
VTM1984WRNO,2019-10-10-11-59-31,2,3,0.6366910384082446,left,probe,biased-switch,-1,-20,right,right,0.31
VTM1984WRNO,2019-10-10-11-59-31,2,4,0.6316646926702749,left,both,biased-switch,105,-20,right,right,0.481
VTM1984WRNO,2019-10-10-11-59-31,2,5,0.5555794378269113,right,probe,biased-switch,-1,-30,right,right,0.413
VTM1984WRNO,2019-10-10-11-59-31,2,6,0.5514031159967975,right,both,biased-switch,102,-30,right,right,0.204
VTM1984WRNO,2019-10-10-11-59-31,2,7,0.5201824442485202,left,probe,ambiguous-switch,-1,-30,right,right,0.273
VTM1984WRNO,2019-10-10-11-59-31,2,8,0.6264257955125208,left,both,ambiguous-switch,90,-30,right,right,0.143
VTM1984WRNO,2019-10-10-11-59-31,2,9,0.5083897013196301,left,probe,biased-switch,-1,5,right,right,0.298
VTM1984WRNO,2019-10-10-11-59-31,2,10,0.6533008775690152,left,both,biased-switch,94,5,right,left,0.309
VTM1984WRNO,2019-10-10-11-59-31,2,11,0.6393316575391826,left,probe,biased-switch,-1,30,right,right,0.335
VTM1984WRNO,2019-10-10-11-59-31,2,12,0.5121343299632791,left,both,biased-switch,105,30,right,right,0.312
VTM1984WRNO,2019-10-10-11-59-31,2,13,0.6276743328767237,right,probe,biased-switch,-1,-5,right,right,0.261
VTM1984WRNO,2019-10-10-11-59-31,2,14,0.6115205160933659,right,both,biased-switch,98,-5,right,right,2.852
VTM1984WRNO,2019-10-10-11-59-31,2,15,0.6566595715931182,right,probe,biased-switch,-1,10,right,right,0.342
VTM1984WRNO,2019-10-10-11-59-31,2,16,0.6172359025138604,right,both,biased-switch,99,10,right,left,0.634
VTM1984WRNO,2019-10-10-11-59-31,2,17,0.6432221531392118,left,probe,biased-switch,-1,20,right,right,0.261
VTM1984WRNO,2019-10-10-11-59-31,2,18,0.5236369584978443,left,both,biased-switch,92,20,right,right,0.272
VTM1984WRNO,2019-10-10-11-59-31,2,19,0.5437837004314976,right,probe,biased-switch,-1,-10,right,right,0.298
VTM1984WRNO,2019-10-10-11-59-31,2,20,0.6552028685202498,right,both,biased-switch,109,-10,right,left,0.469
VTM1984WRNO,2019-10-10-11-59-31,2,21,0.6659835587793648,right,probe,ambiguous-switch,-1,-20,right,right,0.31
VTM1984WRNO,2019-10-10-11-59-31,2,22,0.6360222449471529,right,both,ambiguous-switch,95,-20,right,right,0.328
VTM1984WRNO,2019-10-10-11-59-31,2,23,0.5261517710029358,right,probe,ambiguous-switch,-1,40,right,right,0.371
VTM1984WRNO,2019-10-10-11-59-31,2,24,0.6818050499747286,right,both,ambiguous-switch,108,40,right,right,0.309
VTM1984WRNO,2019-10-10-11-59-31,2,25,0.5206905743325435,left,probe,ambiguous-switch,-1,20,right,right,0.349
VTM1984WRNO,2019-10-10-11-59-31,2,26,0.6812172527691623,left,both,ambiguous-switch,95,20,right,right,0.274
VTM1984WRNO,2019-10-10-11-59-31,2,27,0.555013426355708,right,probe,ambiguous-switch,-1,30,right,right,0.287
VTM1984WRNO,2019-10-10-11-59-31,2,28,0.679734794305052,right,both,ambiguous-switch,103,30,right,left,0.264
VTM1984WRNO,2019-10-10-11-59-31,2,29,0.5862609303906338,right,probe,ambiguous-switch,-1,0,right,right,0.286
VTM1984WRNO,2019-10-10-11-59-31,2,30,0.5923297014653297,right,both,ambiguous-switch,105,0,right,right,0.272
VTM1984WRNO,2019-10-10-11-59-31,2,31,0.686398386185908,left,probe,ambiguous-switch,-1,-5,right,right,0.265
VTM1984WRNO,2019-10-10-11-59-31,2,32,0.6117137739198368,left,both,ambiguous-switch,93,-5,right,right,0.28
VTM1984WRNO,2019-10-10-11-59-31,2,33,0.5517471472357698,left,probe,ambiguous-switch,-1,10,right,right,0.301
VTM1984WRNO,2019-10-10-11-59-31,2,34,0.5636783537837508,left,both,ambiguous-switch,91,10,right,left,0.293
VTM1984WRNO,2019-10-10-11-59-31,2,35,0.6272324224977208,right,probe,ambiguous-switch,-1,5,right,right,0.379
VTM1984WRNO,2019-10-10-11-59-31,2,36,0.5267216767753353,right,both,ambiguous-switch,103,5,right,right,0.28
VTM1984WRNO,2019-10-10-11-59-31,2,37,0.6808484016573528,right,probe,biased-switch,-1,0,right,right,0.274
VTM1984WRNO,2019-10-10-11-59-31,2,38,0.545272743827031,right,both,biased-switch,91,0,right,left,0.292
VTM1984WRNO,2019-10-10-11-59-31,2,39,0.6031632541155604,left,probe,biased-switch,-1,40,right,right,0.289
VTM1984WRNO,2019-10-10-11-59-31,2,40,0.6101869475820755,left,both,biased-switch,102,40,right,right,0.285
VTM1984WRNO,2019-10-10-11-59-31,2,41,0.5570726221593161,right,probe,ambiguous-switch,-1,-10,right,right,0.286
VTM1984WRNO,2019-10-10-11-59-31,2,42,0.6533618505351113,right,both,ambiguous-switch,106,-10,right,left,0.302
VTM1984WRNO,2019-10-10-11-59-31,2,43,0.6220515756247288,right,probe,biased-switch,-1,-20,right,right,0.414
VTM1984WRNO,2019-10-10-11-59-31,2,44,0.6159322286888606,right,both,biased-switch,91,-20,right,left,0.39
VTM1984WRNO,2019-10-10-11-59-31,2,45,0.65344955496394,left,probe,biased-switch,-1,-30,right,right,0.373
VTM1984WRNO,2019-10-10-11-59-31,2,46,0.602069823972298,left,both,biased-switch,103,-30,right,right,0.242
VTM1984WRNO,2019-10-10-11-59-31,2,47,0.6077050671383288,left,probe,ambiguous-switch,-1,-30,right,right,0.31
VTM1984WRNO,2019-10-10-11-59-31,2,48,0.6132954141490685,left,both,ambiguous-switch,110,-30,right,right,0.392
VTM1984WRNO,2019-10-10-11-59-31,2,49,0.6644092913798643,left,probe,biased-switch,-1,5,right,right,0.347
VTM1984WRNO,2019-10-10-11-59-31,2,50,0.6727560596797122,left,both,biased-switch,92,5,right,left,0.358
VTM1984WRNO,2019-10-10-11-59-31,2,51,0.5764755104702737,left,probe,biased-switch,-1,30,right,right,0.336
VTM1984WRNO,2019-10-10-11-59-31,2,52,0.6304933354813277,left,both,biased-switch,106,30,right,right,0.308
VTM1984WRNO,2019-10-10-11-59-31,2,53,0.677001003905694,left,probe,biased-switch,-1,-5,right,right,0.34
VTM1984WRNO,2019-10-10-11-59-31,2,54,0.5690564927243178,left,both,biased-switch,106,-5,right,right,0.399
VTM1984WRNO,2019-10-10-11-59-31,2,55,0.6404692121876688,right,probe,biased-switch,-1,10,right,right,0.318
VTM1984WRNO,2019-10-10-11-59-31,2,56,0.5830447743223397,right,both,biased-switch,93,10,right,left,0.307
VTM1984WRNO,2019-10-10-11-59-31,2,57,0.6712554309684964,left,probe,biased-switch,-1,20,right,right,0.287
VTM1984WRNO,2019-10-10-11-59-31,2,58,0.6947177330363972,left,both,biased-switch,96,20,right,left,0.505
VTM1984WRNO,2019-10-10-11-59-31,2,59,0.6832109737262955,left,probe,biased-switch,-1,-10,right,right,0.292
VTM1984WRNO,2019-10-10-11-59-31,2,60,0.6792676654215554,left,both,biased-switch,100,-10,right,right,0.341
VTM1984WRNO,2019-10-10-11-59-31,2,61,0.5140657219337484,right,probe,ambiguous-switch,-1,-20,left,left,0.301
VTM1984WRNO,2019-10-10-11-59-31,2,62,0.506373347673101,right,both,ambiguous-switch,99,-20,left,left,0.348
VTM1984WRNO,2019-10-10-11-59-31,2,63,0.5330009968432482,right,probe,ambiguous-switch,-1,40,left,left,0.312
VTM1984WRNO,2019-10-10-11-59-31,2,64,0.6631646547841921,right,both,ambiguous-switch,102,40,left,left,0.315
VTM1984WRNO,2019-10-10-11-59-31,2,65,0.5734374533729779,left,probe,ambiguous-switch,-1,20,left,left,0.308
VTM1984WRNO,2019-10-10-11-59-31,2,66,0.5177598507758309,left,both,ambiguous-switch,109,20,left,left,0.282
VTM1984WRNO,2019-10-10-11-59-31,2,67,0.6204193700756746,left,probe,ambiguous-switch,-1,30,left,left,0.331
VTM1984WRNO,2019-10-10-11-59-31,2,68,0.5933469606564511,left,both,ambiguous-switch,101,30,left,left,0.277
VTM1984WRNO,2019-10-10-11-59-31,2,69,0.5430528340748006,left,probe,ambiguous-switch,-1,0,left,left,0.431
VTM1984WRNO,2019-10-10-11-59-31,2,70,0.6782935496753071,left,both,ambiguous-switch,105,0,left,left,0.422
VTM1984WRNO,2019-10-10-11-59-31,2,71,0.5779953074266766,right,probe,ambiguous-switch,-1,-5,left,left,0.416
VTM1984WRNO,2019-10-10-11-59-31,2,72,0.699323952333644,right,both,ambiguous-switch,103,-5,left,left,0.359
VTM1984WRNO,2019-10-10-11-59-31,2,73,0.6917002121192424,right,probe,ambiguous-switch,-1,10,left,left,0.345
VTM1984WRNO,2019-10-10-11-59-31,2,74,0.6146828077509008,right,both,ambiguous-switch,99,10,left,left,0.549
VTM1984WRNO,2019-10-10-11-59-31,2,75,0.5543511348373091,right,probe,ambiguous-switch,-1,5,left,left,0.251
VTM1984WRNO,2019-10-10-11-59-31,2,76,0.6567120417958855,right,both,ambiguous-switch,103,5,left,right,0.279
VTM1984WRNO,2019-10-10-11-59-31,2,77,0.6008820006678903,right,probe,biased-switch,-1,0,left,left,0.734
VTM1984WRNO,2019-10-10-11-59-31,2,78,0.6516057999093988,right,both,biased-switch,109,0,left,left,0.374
VTM1984WRNO,2019-10-10-11-59-31,2,79,0.5878780938275145,right,probe,biased-switch,-1,40,left,left,0.311
VTM1984WRNO,2019-10-10-11-59-31,2,80,0.5290914817266719,right,both,biased-switch,92,40,left,left,0.301
VTM1984WRNO,2019-10-10-11-59-31,3,1,0.5983533998337751,right,probe,ambiguous-switch,-1,-30,left,left,0.259
VTM1984WRNO,2019-10-10-11-59-31,3,2,0.672439967864113,right,both,ambiguous-switch,102,-30,left,left,0.266
VTM1984WRNO,2019-10-10-11-59-31,3,3,0.575490619848541,right,probe,biased-switch,-1,5,left,left,0.309
VTM1984WRNO,2019-10-10-11-59-31,3,4,0.5936247256797873,right,both,biased-switch,103,5,left,right,0.226
VTM1984WRNO,2019-10-10-11-59-31,3,5,0.6632752363542932,left,probe,biased-switch,-1,-20,left,left,0.326
VTM1984WRNO,2019-10-10-11-59-31,3,6,0.571508474265921,left,both,biased-switch,92,-20,left,right,0.387
VTM1984WRNO,2019-10-10-11-59-31,3,7,0.6682631259226898,left,probe,biased-switch,-1,30,left,left,0.253
VTM1984WRNO,2019-10-10-11-59-31,3,8,0.528237861016552,left,both,biased-switch,108,30,left,left,0.252
VTM1984WRNO,2019-10-10-11-59-31,3,9,0.664506329599593,left,probe,ambiguous-switch,-1,-5,left,left,0.261
VTM1984WRNO,2019-10-10-11-59-31,3,10,0.5453838504967335,left,both,ambiguous-switch,102,-5,left,left,0.273
VTM1984WRNO,2019-10-10-11-59-31,3,11,0.6293249434489031,right,probe,biased-switch,-1,20,left,left,0.383
VTM1984WRNO,2019-10-10-11-59-31,3,12,0.5075489379447372,right,both,biased-switch,97,20,left,left,0.137
VTM1984WRNO,2019-10-10-11-59-31,3,13,0.6615871386305581,left,probe,ambiguous-switch,-1,10,left,left,0.271
VTM1984WRNO,2019-10-10-11-59-31,3,14,0.6049635598840235,left,both,ambiguous-switch,91,10,left,right,0.271
VTM1984WRNO,2019-10-10-11-59-31,3,15,0.600429972357163,right,probe,biased-switch,-1,-30,left,left,0.305
VTM1984WRNO,2019-10-10-11-59-31,3,16,0.5056457729567008,right,both,biased-switch,108,-30,left,left,0.305
VTM1984WRNO,2019-10-10-11-59-31,3,17,0.6504817683642476,right,probe,ambiguous-switch,-1,-10,left,left,0.254
VTM1984WRNO,2019-10-10-11-59-31,3,18,0.6149786272054921,right,both,ambiguous-switch,93,-10,left,left,0.034
VTM1984WRNO,2019-10-10-11-59-31,3,19,0.6282604066142312,right,probe,ambiguous-switch,-1,-20,left,left,0.265
VTM1984WRNO,2019-10-10-11-59-31,3,20,0.5318768976652345,right,both,ambiguous-switch,90,-20,left,left,0.116
VTM1984WRNO,2019-10-10-11-59-31,3,21,0.5335214199924978,left,probe,ambiguous-switch,-1,30,left,left,0.256
VTM1984WRNO,2019-10-10-11-59-31,3,22,0.695761633498551,left,both,ambiguous-switch,99,30,left,left,0.202
VTM1984WRNO,2019-10-10-11-59-31,3,23,0.5295546878612202,right,probe,biased-switch,-1,40,left,left,0.201
VTM1984WRNO,2019-10-10-11-59-31,3,24,0.5662002714597576,right,both,biased-switch,109,40,left,left,0.072
VTM1984WRNO,2019-10-10-11-59-31,3,25,0.5688203681094612,left,probe,biased-switch,-1,0,left,left,0.268
VTM1984WRNO,2019-10-10-11-59-31,3,26,0.5546702151151373,left,both,biased-switch,91,0,left,left,0.25
VTM1984WRNO,2019-10-10-11-59-31,3,27,0.6535886631949186,left,probe,biased-switch,-1,10,left,left,0.339
VTM1984WRNO,2019-10-10-11-59-31,3,28,0.6058703363308139,left,both,biased-switch,104,10,left,right,0.273
VTM1984WRNO,2019-10-10-11-59-31,3,29,0.6956300548039057,right,probe,ambiguous-switch,-1,0,left,left,0.279
VTM1984WRNO,2019-10-10-11-59-31,3,30,0.6805991947107614,right,both,ambiguous-switch,106,0,left,left,0.275
VTM1984WRNO,2019-10-10-11-59-31,3,31,0.659768049449573,left,probe,ambiguous-switch,-1,5,left,left,0.27
VTM1984WRNO,2019-10-10-11-59-31,3,32,0.6499561338758783,left,both,ambiguous-switch,95,5,left,right,0.25
VTM1984WRNO,2019-10-10-11-59-31,3,33,0.6278838833235079,left,probe,biased-switch,-1,-5,left,left,0.228
VTM1984WRNO,2019-10-10-11-59-31,3,34,0.5657434118633777,left,both,biased-switch,100,-5,left,left,0.251
VTM1984WRNO,2019-10-10-11-59-31,3,35,0.578164046533522,left,probe,ambiguous-switch,-1,20,left,left,0.297
VTM1984WRNO,2019-10-10-11-59-31,3,36,0.6720648451953352,left,both,ambiguous-switch,99,20,left,left,0.251
VTM1984WRNO,2019-10-10-11-59-31,3,37,0.5117383716485447,right,probe,ambiguous-switch,-1,40,left,left,0.308
VTM1984WRNO,2019-10-10-11-59-31,3,38,0.6495119961423171,right,both,ambiguous-switch,101,40,left,left,0.309
VTM1984WRNO,2019-10-10-11-59-31,3,39,0.6318390701876951,left,probe,biased-switch,-1,-10,left,left,0.249
VTM1984WRNO,2019-10-10-11-59-31,3,40,0.521761297301038,left,both,biased-switch,107,-10,left,right,0.439
VTM1984WRNO,2019-10-10-11-59-31,3,41,0.6628743851334344,left,probe,ambiguous-switch,-1,-30,left,left,0.351
VTM1984WRNO,2019-10-10-11-59-31,3,42,0.6903920769684738,left,both,ambiguous-switch,91,-30,left,left,0.373
VTM1984WRNO,2019-10-10-11-59-31,3,43,0.5903816563731967,right,probe,biased-switch,-1,5,left,left,0.57
VTM1984WRNO,2019-10-10-11-59-31,3,44,0.5321817347054035,right,both,biased-switch,99,5,left,right,0.35
VTM1984WRNO,2019-10-10-11-59-31,3,45,0.5492623996938367,right,probe,biased-switch,-1,-20,left,left,0.278
VTM1984WRNO,2019-10-10-11-59-31,3,46,0.501688318170239,right,both,biased-switch,102,-20,left,left,0.275
VTM1984WRNO,2019-10-10-11-59-31,3,47,0.5426109971657886,right,probe,biased-switch,-1,30,left,left,0.36
VTM1984WRNO,2019-10-10-11-59-31,3,48,0.538308610426632,right,both,biased-switch,93,30,left,left,0.251
VTM1984WRNO,2019-10-10-11-59-31,3,49,0.5640714898185453,right,probe,ambiguous-switch,-1,-5,left,left,0.346
VTM1984WRNO,2019-10-10-11-59-31,3,50,0.5231040324656928,right,both,ambiguous-switch,108,-5,left,left,0.3
VTM1984WRNO,2019-10-10-11-59-31,3,51,0.616237593053573,left,probe,biased-switch,-1,20,left,left,0.239
VTM1984WRNO,2019-10-10-11-59-31,3,52,0.630180953173411,left,both,biased-switch,91,20,left,left,0.313
VTM1984WRNO,2019-10-10-11-59-31,3,53,0.5010739960153252,left,probe,ambiguous-switch,-1,10,left,left,0.34
VTM1984WRNO,2019-10-10-11-59-31,3,54,0.5350842305254357,left,both,ambiguous-switch,109,10,left,left,0.266
VTM1984WRNO,2019-10-10-11-59-31,3,55,0.5780866126655604,right,probe,biased-switch,-1,-30,left,left,0.317
VTM1984WRNO,2019-10-10-11-59-31,3,56,0.6904752270979124,right,both,biased-switch,102,-30,left,left,0.271
VTM1984WRNO,2019-10-10-11-59-31,3,57,0.6665865547443807,right,probe,ambiguous-switch,-1,-10,left,left,0.34
VTM1984WRNO,2019-10-10-11-59-31,3,58,0.578975721753608,right,both,ambiguous-switch,94,-10,left,left,0.241
VTM1984WRNO,2019-10-10-11-59-31,3,59,0.5651927807001079,left,probe,ambiguous-switch,-1,-20,left,left,0.297
VTM1984WRNO,2019-10-10-11-59-31,3,60,0.6954827062850241,left,both,ambiguous-switch,90,-20,left,left,0.295
VTM1984WRNO,2019-10-10-11-59-31,3,61,0.6708086941220345,left,probe,ambiguous-switch,-1,30,left,left,0.267
VTM1984WRNO,2019-10-10-11-59-31,3,62,0.6495667238163743,left,both,ambiguous-switch,104,30,left,left,0.28
VTM1984WRNO,2019-10-10-11-59-31,3,63,0.5876767253548782,left,probe,biased-switch,-1,40,left,left,0.416
VTM1984WRNO,2019-10-10-11-59-31,3,64,0.6033708114224023,left,both,biased-switch,107,40,left,left,0.264
VTM1984WRNO,2019-10-10-11-59-31,3,65,0.6875443301091013,right,probe,biased-switch,-1,0,left,left,0.332
VTM1984WRNO,2019-10-10-11-59-31,3,66,0.5362785785625355,right,both,biased-switch,96,0,left,left,0.214
VTM1984WRNO,2019-10-10-11-59-31,3,67,0.5300012105590675,right,probe,biased-switch,-1,10,left,left,0.288
VTM1984WRNO,2019-10-10-11-59-31,3,68,0.6076898938394933,right,both,biased-switch,104,10,left,right,0.285
VTM1984WRNO,2019-10-10-11-59-31,3,69,0.6375750722289552,right,probe,ambiguous-switch,-1,0,left,left,0.247
VTM1984WRNO,2019-10-10-11-59-31,3,70,0.6961335806436844,right,both,ambiguous-switch,101,0,left,left,0.252
VTM1984WRNO,2019-10-10-11-59-31,3,71,0.5831470543201651,right,probe,ambiguous-switch,-1,5,left,left,0.26
VTM1984WRNO,2019-10-10-11-59-31,3,72,0.523316209653761,right,both,ambiguous-switch,93,5,left,left,0.239
VTM1984WRNO,2019-10-10-11-59-31,3,73,0.6722798435133551,right,probe,biased-switch,-1,-5,left,left,0.351
VTM1984WRNO,2019-10-10-11-59-31,3,74,0.6624181260082016,right,both,biased-switch,103,-5,left,left,0.202
VTM1984WRNO,2019-10-10-11-59-31,3,75,0.5025136541033453,left,probe,ambiguous-switch,-1,20,left,left,0.281
VTM1984WRNO,2019-10-10-11-59-31,3,76,0.510123396853818,left,both,ambiguous-switch,90,20,left,left,0.267
VTM1984WRNO,2019-10-10-11-59-31,3,77,0.6397884766012385,right,probe,ambiguous-switch,-1,40,left,left,0.284
VTM1984WRNO,2019-10-10-11-59-31,3,78,0.5721633238011582,right,both,ambiguous-switch,99,40,left,left,0.239
VTM1984WRNO,2019-10-10-11-59-31,3,79,0.6055889245407491,right,probe,biased-switch,-1,-10,left,left,0.275
VTM1984WRNO,2019-10-10-11-59-31,3,80,0.5253003145440276,right,both,biased-switch,105,-10,left,left,0.268
VTM1984WRNO,2019-10-10-11-59-31,4,1,0.6516862744505912,right,probe,ambiguous-switch,-1,-20,left,left,0.28
VTM1984WRNO,2019-10-10-11-59-31,4,2,0.697437951797558,right,both,ambiguous-switch,100,-20,left,left,0.208
VTM1984WRNO,2019-10-10-11-59-31,4,3,0.54365571712555,left,probe,ambiguous-switch,-1,-10,left,left,0.271
VTM1984WRNO,2019-10-10-11-59-31,4,4,0.6094210431519469,left,both,ambiguous-switch,108,-10,left,left,0.222
VTM1984WRNO,2019-10-10-11-59-31,4,5,0.6404369520524805,right,probe,biased-switch,-1,30,left,left,0.272
VTM1984WRNO,2019-10-10-11-59-31,4,6,0.569177849283399,right,both,biased-switch,97,30,left,left,0.04
VTM1984WRNO,2019-10-10-11-59-31,4,7,0.6839767748504384,right,probe,biased-switch,-1,0,left,left,0.263
VTM1984WRNO,2019-10-10-11-59-31,4,8,0.5223674189581784,right,both,biased-switch,96,0,left,left,0.228
VTM1984WRNO,2019-10-10-11-59-31,4,9,0.6838955755190881,right,probe,ambiguous-switch,-1,30,left,left,0.27
VTM1984WRNO,2019-10-10-11-59-31,4,10,0.5094883828622225,right,both,ambiguous-switch,97,30,left,left,0.282
VTM1984WRNO,2019-10-10-11-59-31,4,11,0.5630001723115857,right,probe,biased-switch,-1,-20,left,left,0.276
VTM1984WRNO,2019-10-10-11-59-31,4,12,0.6308930077168794,right,both,biased-switch,102,-20,left,right,0.393
VTM1984WRNO,2019-10-10-11-59-31,4,13,0.5617594332421414,right,probe,biased-switch,-1,20,left,left,0.239
VTM1984WRNO,2019-10-10-11-59-31,4,14,0.580725579559062,right,both,biased-switch,93,20,left,left,0.0
VTM1984WRNO,2019-10-10-11-59-31,4,15,0.6467480567460873,left,probe,ambiguous-switch,-1,-30,left,left,0.239
VTM1984WRNO,2019-10-10-11-59-31,4,16,0.572051254752602,left,both,ambiguous-switch,98,-30,left,left,0.215
VTM1984WRNO,2019-10-10-11-59-31,4,17,0.6762259785527864,left,probe,ambiguous-switch,-1,-5,left,left,0.218
VTM1984WRNO,2019-10-10-11-59-31,4,18,0.5976640627565546,left,both,ambiguous-switch,93,-5,left,left,0.158
VTM1984WRNO,2019-10-10-11-59-31,4,19,0.5021696333317076,left,probe,biased-switch,-1,-5,left,left,0.229
VTM1984WRNO,2019-10-10-11-59-31,4,20,0.5409213366770262,left,both,biased-switch,90,-5,left,left,0.331
VTM1984WRNO,2019-10-10-11-59-31,4,21,0.6627066688998886,right,probe,ambiguous-switch,-1,10,left,left,0.313
VTM1984WRNO,2019-10-10-11-59-31,4,22,0.6613224231933931,right,both,ambiguous-switch,107,10,left,right,0.129
VTM1984WRNO,2019-10-10-11-59-31,4,23,0.5203070709217152,left,probe,ambiguous-switch,-1,40,left,left,0.328
VTM1984WRNO,2019-10-10-11-59-31,4,24,0.5561087413965526,left,both,ambiguous-switch,106,40,left,left,0.459
VTM1984WRNO,2019-10-10-11-59-31,4,25,0.5087880093801902,left,probe,biased-switch,-1,5,left,left,0.434
VTM1984WRNO,2019-10-10-11-59-31,4,26,0.5662425749884046,left,both,biased-switch,96,5,left,right,0.294
VTM1984WRNO,2019-10-10-11-59-31,4,27,0.6872476120799982,right,probe,biased-switch,-1,10,left,left,0.26
VTM1984WRNO,2019-10-10-11-59-31,4,28,0.5986053911114402,right,both,biased-switch,104,10,left,right,0.264
VTM1984WRNO,2019-10-10-11-59-31,4,29,0.544144133193753,right,probe,biased-switch,-1,-30,left,left,0.41
VTM1984WRNO,2019-10-10-11-59-31,4,30,0.6463833321461686,right,both,biased-switch,95,-30,left,left,0.31
VTM1984WRNO,2019-10-10-11-59-31,4,31,0.6124086660844387,right,probe,biased-switch,-1,-10,left,left,0.398
VTM1984WRNO,2019-10-10-11-59-31,4,32,0.5682761083289768,right,both,biased-switch,100,-10,left,left,0.24
VTM1984WRNO,2019-10-10-11-59-31,4,33,0.5659827502349449,left,probe,ambiguous-switch,-1,0,left,left,0.221
VTM1984WRNO,2019-10-10-11-59-31,4,34,0.6482072847681343,left,both,ambiguous-switch,108,0,left,left,0.236
VTM1984WRNO,2019-10-10-11-59-31,4,35,0.5843288771023443,left,probe,biased-switch,-1,40,left,left,0.256
VTM1984WRNO,2019-10-10-11-59-31,4,36,0.6168956904088759,left,both,biased-switch,91,40,left,left,0.31
VTM1984WRNO,2019-10-10-11-59-31,4,37,0.6629626976228857,right,probe,ambiguous-switch,-1,20,left,left,0.242
VTM1984WRNO,2019-10-10-11-59-31,4,38,0.5055722817443999,right,both,ambiguous-switch,103,20,left,left,0.247
VTM1984WRNO,2019-10-10-11-59-31,4,39,0.6411475131242778,right,probe,ambiguous-switch,-1,5,left,left,0.307
VTM1984WRNO,2019-10-10-11-59-31,4,40,0.5637301907475727,right,both,ambiguous-switch,107,5,left,left,0.248
VTM1984WRNO,2019-10-10-11-59-31,4,41,0.5964750603250478,left,probe,ambiguous-switch,-1,-20,left,left,0.267
VTM1984WRNO,2019-10-10-11-59-31,4,42,0.5602480868191927,left,both,ambiguous-switch,98,-20,left,right,0.682
VTM1984WRNO,2019-10-10-11-59-31,4,43,0.5241761213080757,right,probe,ambiguous-switch,-1,-10,left,left,0.253
VTM1984WRNO,2019-10-10-11-59-31,4,44,0.6054890656245918,right,both,ambiguous-switch,101,-10,left,left,0.314
VTM1984WRNO,2019-10-10-11-59-31,4,45,0.6126845506607824,right,probe,biased-switch,-1,30,left,left,0.311
VTM1984WRNO,2019-10-10-11-59-31,4,46,0.5084877040053467,right,both,biased-switch,109,30,left,left,0.314
VTM1984WRNO,2019-10-10-11-59-31,4,47,0.6580232177213761,left,probe,biased-switch,-1,0,left,left,0.327
VTM1984WRNO,2019-10-10-11-59-31,4,48,0.6634783224935396,left,both,biased-switch,105,0,left,right,0.273
VTM1984WRNO,2019-10-10-11-59-31,4,49,0.5080086855853481,right,probe,ambiguous-switch,-1,30,left,left,0.281
VTM1984WRNO,2019-10-10-11-59-31,4,50,0.6097779861861929,right,both,ambiguous-switch,100,30,left,left,0.332
VTM1984WRNO,2019-10-10-11-59-31,4,51,0.63976452468676,right,probe,biased-switch,-1,-20,left,left,0.267
VTM1984WRNO,2019-10-10-11-59-31,4,52,0.6334833524112409,right,both,biased-switch,100,-20,left,left,0.432
VTM1984WRNO,2019-10-10-11-59-31,4,53,0.5974493679882813,left,probe,biased-switch,-1,20,left,left,0.319
VTM1984WRNO,2019-10-10-11-59-31,4,54,0.5293389667164474,left,both,biased-switch,108,20,left,right,0.312
VTM1984WRNO,2019-10-10-11-59-31,4,55,0.6693971367239544,right,probe,ambiguous-switch,-1,-30,left,left,0.396
VTM1984WRNO,2019-10-10-11-59-31,4,56,0.5140100943320032,right,both,ambiguous-switch,102,-30,left,left,0.356
VTM1984WRNO,2019-10-10-11-59-31,4,57,0.5976225406116992,right,probe,ambiguous-switch,-1,-5,left,left,0.429
VTM1984WRNO,2019-10-10-11-59-31,4,58,0.6103571594857454,right,both,ambiguous-switch,93,-5,left,left,0.355
VTM1984WRNO,2019-10-10-11-59-31,4,59,0.6980621340394237,right,probe,biased-switch,-1,-5,left,left,0.292
VTM1984WRNO,2019-10-10-11-59-31,4,60,0.6808999406474671,right,both,biased-switch,102,-5,left,left,0.277
VTM1984WRNO,2019-10-10-11-59-31,4,61,0.6435935405686974,left,probe,ambiguous-switch,-1,10,left,left,0.246
VTM1984WRNO,2019-10-10-11-59-31,4,62,0.5819435339103596,left,both,ambiguous-switch,100,10,left,left,0.291
VTM1984WRNO,2019-10-10-11-59-31,4,63,0.6885994217598039,right,probe,ambiguous-switch,-1,40,left,left,0.28
VTM1984WRNO,2019-10-10-11-59-31,4,64,0.6228772761065307,right,both,ambiguous-switch,103,40,left,left,0.275
VTM1984WRNO,2019-10-10-11-59-31,4,65,0.6520373094338028,right,probe,biased-switch,-1,5,left,left,0.303
VTM1984WRNO,2019-10-10-11-59-31,4,66,0.6097106908575306,right,both,biased-switch,92,5,left,right,0.267
VTM1984WRNO,2019-10-10-11-59-31,4,67,0.5277112605142613,right,probe,biased-switch,-1,10,left,left,0.285
VTM1984WRNO,2019-10-10-11-59-31,4,68,0.6223025392362918,right,both,biased-switch,96,10,left,right,0.297
VTM1984WRNO,2019-10-10-11-59-31,4,69,0.5545542847072922,left,probe,biased-switch,-1,-30,left,left,0.265
VTM1984WRNO,2019-10-10-11-59-31,4,70,0.5182285971937642,left,both,biased-switch,95,-30,left,left,0.373
VTM1984WRNO,2019-10-10-11-59-31,4,71,0.6447443830633734,right,probe,biased-switch,-1,-10,left,left,0.411
VTM1984WRNO,2019-10-10-11-59-31,4,72,0.6112954181782864,right,both,biased-switch,100,-10,left,right,0.556
VTM1984WRNO,2019-10-10-11-59-31,4,73,0.5322071128376445,left,probe,ambiguous-switch,-1,0,left,left,0.601
VTM1984WRNO,2019-10-10-11-59-31,4,74,0.5377984943485634,left,both,ambiguous-switch,109,0,left,left,0.461
VTM1984WRNO,2019-10-10-11-59-31,4,75,0.6426758342189913,right,probe,biased-switch,-1,40,left,left,0.462
VTM1984WRNO,2019-10-10-11-59-31,4,76,0.5321345583236307,right,both,biased-switch,105,40,left,left,0.276
VTM1984WRNO,2019-10-10-11-59-31,4,77,0.6158697656541551,left,probe,ambiguous-switch,-1,20,left,left,0.419
VTM1984WRNO,2019-10-10-11-59-31,4,78,0.64849973921063,left,both,ambiguous-switch,94,20,left,left,0.265
VTM1984WRNO,2019-10-10-11-59-31,4,79,0.6462060506841905,right,probe,ambiguous-switch,-1,5,left,left,1.944
VTM1984WRNO,2019-10-10-11-59-31,4,80,0.6778415280783047,right,both,ambiguous-switch,107,5,left,left,0.443
VTM1984WRNO,2019-10-10-11-59-31,5,1,0.5802801022576105,right,probe,biased-switch,-1,-10,left,left,0.427
VTM1984WRNO,2019-10-10-11-59-31,5,2,0.6299114553597356,right,both,biased-switch,108,-10,left,right,0.379
VTM1984WRNO,2019-10-10-11-59-31,5,3,0.5903555344528835,left,probe,ambiguous-switch,-1,20,left,left,0.321
VTM1984WRNO,2019-10-10-11-59-31,5,4,0.693739914031778,left,both,ambiguous-switch,100,20,left,left,0.301
VTM1984WRNO,2019-10-10-11-59-31,5,5,0.5312366090525693,right,probe,biased-switch,-1,30,left,left,0.316
VTM1984WRNO,2019-10-10-11-59-31,5,6,0.5900916179827975,right,both,biased-switch,105,30,left,left,0.276
VTM1984WRNO,2019-10-10-11-59-31,5,7,0.6442391319716297,left,probe,biased-switch,-1,5,left,left,0.273
VTM1984WRNO,2019-10-10-11-59-31,5,8,0.6451194037624632,left,both,biased-switch,91,5,left,right,0.1
VTM1984WRNO,2019-10-10-11-59-31,5,9,0.5745760707357895,right,probe,ambiguous-switch,-1,40,left,left,0.349
VTM1984WRNO,2019-10-10-11-59-31,5,10,0.5988578898257177,right,both,ambiguous-switch,102,40,left,left,0.251
VTM1984WRNO,2019-10-10-11-59-31,5,11,0.5717447921258185,right,probe,biased-switch,-1,20,left,left,0.222
VTM1984WRNO,2019-10-10-11-59-31,5,12,0.5159660736376013,right,both,biased-switch,107,20,left,right,0.306
VTM1984WRNO,2019-10-10-11-59-31,5,13,0.6421094925995842,left,probe,ambiguous-switch,-1,-20,right,right,0.305
VTM1984WRNO,2019-10-10-11-59-31,5,14,0.6591334349400282,left,both,ambiguous-switch,104,-20,right,right,0.315
VTM1984WRNO,2019-10-10-11-59-31,5,15,0.6729644951441303,left,probe,ambiguous-switch,-1,0,right,right,0.271
VTM1984WRNO,2019-10-10-11-59-31,5,16,0.639792170292312,left,both,ambiguous-switch,109,0,right,right,0.273
VTM1984WRNO,2019-10-10-11-59-31,5,17,0.579337276030948,right,probe,ambiguous-switch,-1,-5,right,right,0.312
VTM1984WRNO,2019-10-10-11-59-31,5,18,0.5107809323485046,right,both,ambiguous-switch,92,-5,right,right,0.382
VTM1984WRNO,2019-10-10-11-59-31,5,19,0.5077733030457046,right,probe,biased-switch,-1,-5,right,right,0.337
VTM1984WRNO,2019-10-10-11-59-31,5,20,0.6380363904444945,right,both,biased-switch,107,-5,right,right,0.461
VTM1984WRNO,2019-10-10-11-59-31,5,21,0.6244514239322565,right,probe,biased-switch,-1,-20,right,right,0.426
VTM1984WRNO,2019-10-10-11-59-31,5,22,0.6966867408498183,right,both,biased-switch,95,-20,right,right,0.489
VTM1984WRNO,2019-10-10-11-59-31,5,23,0.6428337904073038,right,probe,biased-switch,-1,-30,right,right,0.344
VTM1984WRNO,2019-10-10-11-59-31,5,24,0.6078294765250095,right,both,biased-switch,102,-30,right,right,0.332
VTM1984WRNO,2019-10-10-11-59-31,5,25,0.686348402632756,left,probe,biased-switch,-1,0,right,right,0.348
VTM1984WRNO,2019-10-10-11-59-31,5,26,0.670823800293346,left,both,biased-switch,92,0,right,right,0.31
VTM1984WRNO,2019-10-10-11-59-31,5,27,0.5042154148067487,left,probe,ambiguous-switch,-1,-10,right,right,0.304
VTM1984WRNO,2019-10-10-11-59-31,5,28,0.6634568022958571,left,both,ambiguous-switch,91,-10,right,right,0.356
VTM1984WRNO,2019-10-10-11-59-31,5,29,0.6110072245149808,right,probe,ambiguous-switch,-1,30,right,right,0.316
VTM1984WRNO,2019-10-10-11-59-31,5,30,0.5065162742961515,right,both,ambiguous-switch,93,30,right,right,0.263
VTM1984WRNO,2019-10-10-11-59-31,5,31,0.6468859397805329,left,probe,ambiguous-switch,-1,5,right,right,0.336
VTM1984WRNO,2019-10-10-11-59-31,5,32,0.6371024518474799,left,both,ambiguous-switch,91,5,right,right,0.295
VTM1984WRNO,2019-10-10-11-59-31,5,33,0.5026058457380663,left,probe,ambiguous-switch,-1,10,right,right,0.388
VTM1984WRNO,2019-10-10-11-59-31,5,34,0.6687180642876358,left,both,ambiguous-switch,98,10,right,left,0.298
VTM1984WRNO,2019-10-10-11-59-31,5,35,0.5035971353063857,right,probe,biased-switch,-1,10,right,right,0.296
VTM1984WRNO,2019-10-10-11-59-31,5,36,0.5339080772369209,right,both,biased-switch,96,10,right,left,0.274
VTM1984WRNO,2019-10-10-11-59-31,5,37,0.6179546210433218,left,probe,ambiguous-switch,-1,-30,right,right,0.261
VTM1984WRNO,2019-10-10-11-59-31,5,38,0.6761988112987941,left,both,ambiguous-switch,105,-30,right,right,0.315
VTM1984WRNO,2019-10-10-11-59-31,5,39,0.5243053372780822,right,probe,biased-switch,-1,40,right,right,0.377
VTM1984WRNO,2019-10-10-11-59-31,5,40,0.5970858803806167,right,both,biased-switch,107,40,right,right,0.425
VTM1984WRNO,2019-10-10-11-59-31,5,41,0.643144781841966,right,probe,biased-switch,-1,-10,right,right,0.287
VTM1984WRNO,2019-10-10-11-59-31,5,42,0.6239200635446474,right,both,biased-switch,108,-10,right,right,0.184
VTM1984WRNO,2019-10-10-11-59-31,5,43,0.5644988381450133,left,probe,ambiguous-switch,-1,20,right,right,0.26
VTM1984WRNO,2019-10-10-11-59-31,5,44,0.5476476220798223,left,both,ambiguous-switch,106,20,right,right,0.277
VTM1984WRNO,2019-10-10-11-59-31,5,45,0.6216288622808068,left,probe,biased-switch,-1,30,right,right,0.234
VTM1984WRNO,2019-10-10-11-59-31,5,46,0.6492236304970662,left,both,biased-switch,102,30,right,right,0.185
VTM1984WRNO,2019-10-10-11-59-31,5,47,0.6963619781137461,left,probe,biased-switch,-1,5,right,right,0.268
VTM1984WRNO,2019-10-10-11-59-31,5,48,0.6954121068936173,left,both,biased-switch,91,5,right,left,0.231
VTM1984WRNO,2019-10-10-11-59-31,5,49,0.5703115456369703,left,probe,ambiguous-switch,-1,40,right,right,0.301
VTM1984WRNO,2019-10-10-11-59-31,5,50,0.5364390222556109,left,both,ambiguous-switch,99,40,right,right,0.316
VTM1984WRNO,2019-10-10-11-59-31,5,51,0.5326049011764016,right,probe,biased-switch,-1,20,right,right,0.372
VTM1984WRNO,2019-10-10-11-59-31,5,52,0.5484344861428571,right,both,biased-switch,102,20,right,left,0.294
VTM1984WRNO,2019-10-10-11-59-31,5,53,0.6191580442173727,left,probe,ambiguous-switch,-1,-20,right,right,0.328
VTM1984WRNO,2019-10-10-11-59-31,5,54,0.6491182129007815,left,both,ambiguous-switch,98,-20,right,right,0.335
VTM1984WRNO,2019-10-10-11-59-31,5,55,0.6389386954551093,right,probe,ambiguous-switch,-1,0,right,right,0.382
VTM1984WRNO,2019-10-10-11-59-31,5,56,0.5797756060175232,right,both,ambiguous-switch,107,0,right,right,0.276
VTM1984WRNO,2019-10-10-11-59-31,5,57,0.6592402591551606,right,probe,ambiguous-switch,-1,-5,right,right,0.351
VTM1984WRNO,2019-10-10-11-59-31,5,58,0.5079885030101551,right,both,ambiguous-switch,97,-5,right,right,0.292
VTM1984WRNO,2019-10-10-11-59-31,5,59,0.6735175824177042,right,probe,biased-switch,-1,-5,right,right,0.286
VTM1984WRNO,2019-10-10-11-59-31,5,60,0.5845545216062231,right,both,biased-switch,95,-5,right,right,0.269
VTM1984WRNO,2019-10-10-11-59-31,5,61,0.5267316606472534,right,probe,biased-switch,-1,-20,right,right,0.264
VTM1984WRNO,2019-10-10-11-59-31,5,62,0.6117147829757295,right,both,biased-switch,107,-20,right,left,0.4
VTM1984WRNO,2019-10-10-11-59-31,5,63,0.6729481143658212,left,probe,biased-switch,-1,-30,right,right,0.294
VTM1984WRNO,2019-10-10-11-59-31,5,64,0.5619743043405749,left,both,biased-switch,101,-30,right,right,0.18
VTM1984WRNO,2019-10-10-11-59-31,5,65,0.6716292904951895,left,probe,biased-switch,-1,0,right,right,0.332
VTM1984WRNO,2019-10-10-11-59-31,5,66,0.5285493815141048,left,both,biased-switch,95,0,right,right,0.327
VTM1984WRNO,2019-10-10-11-59-31,5,67,0.682762657632166,left,probe,ambiguous-switch,-1,-10,right,right,0.296
VTM1984WRNO,2019-10-10-11-59-31,5,68,0.6922244689539181,left,both,ambiguous-switch,104,-10,right,right,0.281
VTM1984WRNO,2019-10-10-11-59-31,5,69,0.5228777249999274,right,probe,ambiguous-switch,-1,30,right,right,0.222
VTM1984WRNO,2019-10-10-11-59-31,5,70,0.5050287775756791,right,both,ambiguous-switch,107,30,right,right,0.287
VTM1984WRNO,2019-10-10-11-59-31,5,71,0.5213402512746758,left,probe,ambiguous-switch,-1,5,right,right,0.356
VTM1984WRNO,2019-10-10-11-59-31,5,72,0.6252870301813568,left,both,ambiguous-switch,98,5,right,right,0.27
VTM1984WRNO,2019-10-10-11-59-31,5,73,0.6775106457236294,left,probe,ambiguous-switch,-1,10,right,right,0.263
VTM1984WRNO,2019-10-10-11-59-31,5,74,0.6806564587242244,left,both,ambiguous-switch,107,10,right,right,0.253
VTM1984WRNO,2019-10-10-11-59-31,5,75,0.595538299725155,left,probe,biased-switch,-1,10,right,right,0.302
VTM1984WRNO,2019-10-10-11-59-31,5,76,0.5059065204287271,left,both,biased-switch,110,10,right,right,0.305
VTM1984WRNO,2019-10-10-11-59-31,5,77,0.5032737485413777,right,probe,ambiguous-switch,-1,-30,right,right,0.263
VTM1984WRNO,2019-10-10-11-59-31,5,78,0.5401960277541088,right,both,ambiguous-switch,103,-30,right,right,0.322
VTM1984WRNO,2019-10-10-11-59-31,5,79,0.5650834116819987,right,probe,biased-switch,-1,40,right,right,0.323
VTM1984WRNO,2019-10-10-11-59-31,5,80,0.5326968833649375,right,both,biased-switch,91,40,right,right,0.191
VTM1984WRNO,2019-10-10-11-59-31,6,1,0.6917068883432325,left,probe,ambiguous-switch,-1,-10,right,right,0.318
VTM1984WRNO,2019-10-10-11-59-31,6,2,0.6046261101557996,left,both,ambiguous-switch,105,-10,right,right,0.232
VTM1984WRNO,2019-10-10-11-59-31,6,3,0.5699989877066232,left,probe,biased-switch,-1,-5,right,right,0.24
VTM1984WRNO,2019-10-10-11-59-31,6,4,0.5086509996955295,left,both,biased-switch,94,-5,right,right,0.159
VTM1984WRNO,2019-10-10-11-59-31,6,5,0.5568911978996482,right,probe,ambiguous-switch,-1,0,right,right,0.218
VTM1984WRNO,2019-10-10-11-59-31,6,6,0.5662903755501953,right,both,ambiguous-switch,94,0,right,right,0.038
VTM1984WRNO,2019-10-10-11-59-31,6,7,0.6335955169041226,right,probe,biased-switch,-1,20,right,right,0.144
VTM1984WRNO,2019-10-10-11-59-31,6,8,0.6918629209950617,right,both,biased-switch,97,20,right,right,0.063
VTM1984WRNO,2019-10-10-11-59-31,6,9,0.5425222271374186,right,probe,biased-switch,-1,-30,right,right,0.286
VTM1984WRNO,2019-10-10-11-59-31,6,10,0.679407042909021,right,both,biased-switch,108,-30,right,left,0.451
VTM1984WRNO,2019-10-10-11-59-31,6,11,0.6827409233737425,left,probe,biased-switch,-1,30,right,right,0.316
VTM1984WRNO,2019-10-10-11-59-31,6,12,0.5746869885435562,left,both,biased-switch,107,30,right,right,0.305
VTM1984WRNO,2019-10-10-11-59-31,6,13,0.5320011204791459,left,probe,biased-switch,-1,10,right,right,0.312
VTM1984WRNO,2019-10-10-11-59-31,6,14,0.6645105722753448,left,both,biased-switch,95,10,right,left,0.318
VTM1984WRNO,2019-10-10-11-59-31,6,15,0.5249532917633783,right,probe,biased-switch,-1,0,right,right,0.306
VTM1984WRNO,2019-10-10-11-59-31,6,16,0.6685971926991756,right,both,biased-switch,91,0,right,left,0.294
VTM1984WRNO,2019-10-10-11-59-31,6,17,0.6555939030032227,right,probe,biased-switch,-1,-20,right,right,0.296
VTM1984WRNO,2019-10-10-11-59-31,6,18,0.5051056087362665,right,both,biased-switch,104,-20,right,right,0.316
VTM1984WRNO,2019-10-10-11-59-31,6,19,0.5040377266712174,left,probe,ambiguous-switch,-1,40,right,right,0.321
VTM1984WRNO,2019-10-10-11-59-31,6,20,0.6968091741758096,left,both,ambiguous-switch,110,40,right,right,0.308
VTM1984WRNO,2019-10-10-11-59-31,6,21,0.659986195696979,right,probe,biased-switch,-1,40,right,right,0.41
VTM1984WRNO,2019-10-10-11-59-31,6,22,0.5096427241563395,right,both,biased-switch,105,40,right,right,0.848
VTM1984WRNO,2019-10-10-11-59-31,6,23,0.5226567685915167,right,probe,ambiguous-switch,-1,-5,right,right,0.283
VTM1984WRNO,2019-10-10-11-59-31,6,24,0.6230430300125285,right,both,ambiguous-switch,99,-5,right,right,0.218
VTM1984WRNO,2019-10-10-11-59-31,6,25,0.6178883632344867,left,probe,ambiguous-switch,-1,-30,right,right,0.27
VTM1984WRNO,2019-10-10-11-59-31,6,26,0.5936723459795883,left,both,ambiguous-switch,95,-30,right,right,0.346
VTM1984WRNO,2019-10-10-11-59-31,6,27,0.6653992147056106,right,probe,ambiguous-switch,-1,20,right,right,0.531
VTM1984WRNO,2019-10-10-11-59-31,6,28,0.6774030808094131,right,both,ambiguous-switch,100,20,right,right,0.412
VTM1984WRNO,2019-10-10-11-59-31,6,29,0.6062474482409203,right,probe,ambiguous-switch,-1,5,right,right,0.314
VTM1984WRNO,2019-10-10-11-59-31,6,30,0.6632289412805232,right,both,ambiguous-switch,105,5,right,right,0.268
VTM1984WRNO,2019-10-10-11-59-31,6,31,0.5847373100727922,right,probe,biased-switch,-1,-10,right,right,0.238
VTM1984WRNO,2019-10-10-11-59-31,6,32,0.6111475417469869,right,both,biased-switch,90,-10,right,left,0.295
VTM1984WRNO,2019-10-10-11-59-31,6,33,0.6561795033604104,left,probe,biased-switch,-1,5,right,right,0.234
VTM1984WRNO,2019-10-10-11-59-31,6,34,0.5921232819580973,left,both,biased-switch,94,5,right,left,0.25
VTM1984WRNO,2019-10-10-11-59-31,6,35,0.6576733762705315,right,probe,ambiguous-switch,-1,-20,right,right,0.408
VTM1984WRNO,2019-10-10-11-59-31,6,36,0.6839774147312954,right,both,ambiguous-switch,90,-20,right,right,0.192
VTM1984WRNO,2019-10-10-11-59-31,6,37,0.69122984837596,right,probe,ambiguous-switch,-1,30,left,left,0.649
VTM1984WRNO,2019-10-10-11-59-31,6,38,0.6151137013997124,right,both,ambiguous-switch,97,30,left,right,0.358
VTM1984WRNO,2019-10-10-11-59-31,6,39,0.5641280991401056,right,probe,ambiguous-switch,-1,10,right,right,0.556
VTM1984WRNO,2019-10-10-11-59-31,6,40,0.5345852466066192,right,both,ambiguous-switch,95,10,right,right,0.3
VTM1984WRNO,2019-10-10-11-59-31,6,41,0.6744366349655686,right,probe,ambiguous-switch,-1,-10,right,right,0.315
VTM1984WRNO,2019-10-10-11-59-31,6,42,0.5416397742271564,right,both,ambiguous-switch,107,-10,right,right,0.339
VTM1984WRNO,2019-10-10-11-59-31,6,43,0.6859962505816339,left,probe,biased-switch,-1,-5,right,right,0.288
VTM1984WRNO,2019-10-10-11-59-31,6,44,0.5086874694180602,left,both,biased-switch,103,-5,right,right,0.246
VTM1984WRNO,2019-10-10-11-59-31,6,45,0.5915358467328,right,probe,ambiguous-switch,-1,0,right,right,0.294
VTM1984WRNO,2019-10-10-11-59-31,6,46,0.5704973934667182,right,both,ambiguous-switch,95,0,right,right,0.185
VTM1984WRNO,2019-10-10-11-59-31,6,47,0.6893991985967585,left,probe,biased-switch,-1,20,right,right,0.277
VTM1984WRNO,2019-10-10-11-59-31,6,48,0.6015846615731072,left,both,biased-switch,92,20,right,right,0.307
VTM1984WRNO,2019-10-10-11-59-31,6,49,0.598737084165811,right,probe,biased-switch,-1,-30,right,right,0.274
VTM1984WRNO,2019-10-10-11-59-31,6,50,0.5017057667196455,right,both,biased-switch,95,-30,right,right,0.384
VTM1984WRNO,2019-10-10-11-59-31,6,51,0.5190678614748726,left,probe,biased-switch,-1,30,right,right,0.451
VTM1984WRNO,2019-10-10-11-59-31,6,52,0.6811714915689888,left,both,biased-switch,91,30,right,right,0.314
VTM1984WRNO,2019-10-10-11-59-31,6,53,0.5729455401450726,left,probe,biased-switch,-1,10,right,right,0.377
VTM1984WRNO,2019-10-10-11-59-31,6,54,0.6376752291789708,left,both,biased-switch,101,10,right,left,0.31
VTM1984WRNO,2019-10-10-11-59-31,6,55,0.6609938980598453,right,probe,biased-switch,-1,0,right,right,0.296
VTM1984WRNO,2019-10-10-11-59-31,6,56,0.6000207060266416,right,both,biased-switch,90,0,right,left,0.282
VTM1984WRNO,2019-10-10-11-59-31,6,57,0.513772206589369,right,probe,biased-switch,-1,-20,right,right,0.276
VTM1984WRNO,2019-10-10-11-59-31,6,58,0.6999215903714915,right,both,biased-switch,100,-20,right,left,0.386
VTM1984WRNO,2019-10-10-11-59-31,6,59,0.6192349324017015,left,probe,ambiguous-switch,-1,40,right,right,0.271
VTM1984WRNO,2019-10-10-11-59-31,6,60,0.6884531198407897,left,both,ambiguous-switch,100,40,right,right,0.439
VTM1984WRNO,2019-10-10-11-59-31,6,61,0.5595195914196254,left,probe,biased-switch,-1,40,right,right,0.336
VTM1984WRNO,2019-10-10-11-59-31,6,62,0.612832598589333,left,both,biased-switch,91,40,right,right,0.347
VTM1984WRNO,2019-10-10-11-59-31,6,63,0.6812484039524738,left,probe,ambiguous-switch,-1,-5,right,right,0.43
VTM1984WRNO,2019-10-10-11-59-31,6,64,0.6053737999717342,left,both,ambiguous-switch,109,-5,right,right,0.29
VTM1984WRNO,2019-10-10-11-59-31,6,65,0.5566085347880922,right,probe,ambiguous-switch,-1,-30,right,right,0.211
VTM1984WRNO,2019-10-10-11-59-31,6,66,0.678072943892724,right,both,ambiguous-switch,97,-30,right,left,0.409
VTM1984WRNO,2019-10-10-11-59-31,6,67,0.6635144413740943,right,probe,ambiguous-switch,-1,20,right,right,0.28
VTM1984WRNO,2019-10-10-11-59-31,6,68,0.6088915057526767,right,both,ambiguous-switch,91,20,right,right,0.23
VTM1984WRNO,2019-10-10-11-59-31,6,69,0.5173046405780461,left,probe,ambiguous-switch,-1,5,right,right,0.334
VTM1984WRNO,2019-10-10-11-59-31,6,70,0.6963008807448665,left,both,ambiguous-switch,99,5,right,right,0.319
VTM1984WRNO,2019-10-10-11-59-31,6,71,0.5263376012724216,left,probe,biased-switch,-1,-10,right,right,0.359
VTM1984WRNO,2019-10-10-11-59-31,6,72,0.6986807048259208,left,both,biased-switch,106,-10,right,right,0.061
VTM1984WRNO,2019-10-10-11-59-31,6,73,0.5106325157563913,right,probe,biased-switch,-1,5,right,right,0.266
VTM1984WRNO,2019-10-10-11-59-31,6,74,0.6921217396712256,right,both,biased-switch,97,5,right,left,0.164
VTM1984WRNO,2019-10-10-11-59-31,6,75,0.5225374370217505,left,probe,ambiguous-switch,-1,-20,right,right,0.135
VTM1984WRNO,2019-10-10-11-59-31,6,76,0.6567077566166173,left,both,ambiguous-switch,95,-20,right,right,0.153
VTM1984WRNO,2019-10-10-11-59-31,6,77,0.6626115679943894,right,probe,ambiguous-switch,-1,30,right,right,0.313
VTM1984WRNO,2019-10-10-11-59-31,6,78,0.562701376858688,right,both,ambiguous-switch,96,30,right,right,0.102
VTM1984WRNO,2019-10-10-11-59-31,6,79,0.6004929102131263,right,probe,ambiguous-switch,-1,10,right,right,0.247
VTM1984WRNO,2019-10-10-11-59-31,6,80,0.6477830852246316,right,both,ambiguous-switch,94,10,right,left,2.655
VTM1984WRNO,2019-10-10-11-59-31,7,1,0.6229688008007674,right,probe,biased-switch,-1,-20,right,right,0.302
VTM1984WRNO,2019-10-10-11-59-31,7,2,0.6216100023264286,right,both,biased-switch,96,-20,right,left,0.395
VTM1984WRNO,2019-10-10-11-59-31,7,3,0.6350088390560544,left,probe,ambiguous-switch,-1,-30,right,right,0.307
VTM1984WRNO,2019-10-10-11-59-31,7,4,0.5161667019501445,left,both,ambiguous-switch,109,-30,right,right,0.265
VTM1984WRNO,2019-10-10-11-59-31,7,5,0.689209287595371,right,probe,ambiguous-switch,-1,-20,right,right,0.384
VTM1984WRNO,2019-10-10-11-59-31,7,6,0.5755998053009054,right,both,ambiguous-switch,94,-20,right,right,0.048
VTM1984WRNO,2019-10-10-11-59-31,7,7,0.6543407582987033,left,probe,biased-switch,-1,20,right,right,0.296
VTM1984WRNO,2019-10-10-11-59-31,7,8,0.6451475453848039,left,both,biased-switch,102,20,right,right,0.15
VTM1984WRNO,2019-10-10-11-59-31,7,9,0.5794249300293923,right,probe,biased-switch,-1,10,right,right,0.363
VTM1984WRNO,2019-10-10-11-59-31,7,10,0.5408902529699615,right,both,biased-switch,99,10,right,left,0.223
VTM1984WRNO,2019-10-10-11-59-31,7,11,0.5755062381200533,right,probe,ambiguous-switch,-1,5,right,right,0.083
VTM1984WRNO,2019-10-10-11-59-31,7,12,0.6229949774241225,right,both,ambiguous-switch,93,5,right,left,0.257
VTM1984WRNO,2019-10-10-11-59-31,7,13,0.6994553212704074,left,probe,biased-switch,-1,5,right,right,0.264
VTM1984WRNO,2019-10-10-11-59-31,7,14,0.6270091232885248,left,both,biased-switch,104,5,right,left,0.271
VTM1984WRNO,2019-10-10-11-59-31,7,15,0.6405087528563326,left,probe,biased-switch,-1,-30,right,right,0.354
VTM1984WRNO,2019-10-10-11-59-31,7,16,0.5668017218107588,left,both,biased-switch,94,-30,right,right,0.342
VTM1984WRNO,2019-10-10-11-59-31,7,17,0.6254413897551117,right,probe,ambiguous-switch,-1,20,right,right,0.275
VTM1984WRNO,2019-10-10-11-59-31,7,18,0.5146860253884168,right,both,ambiguous-switch,104,20,right,right,0.292
VTM1984WRNO,2019-10-10-11-59-31,7,19,0.586200813407452,right,probe,biased-switch,-1,-10,right,right,0.297
VTM1984WRNO,2019-10-10-11-59-31,7,20,0.5503393852914702,right,both,biased-switch,94,-10,right,left,0.252
VTM1984WRNO,2019-10-10-11-59-31,7,21,0.5919202443420412,right,probe,ambiguous-switch,-1,-5,right,right,0.229
VTM1984WRNO,2019-10-10-11-59-31,7,22,0.5352983021976321,right,both,ambiguous-switch,98,-5,right,left,0.087
VTM1984WRNO,2019-10-10-11-59-31,7,23,0.5088989396730703,right,probe,ambiguous-switch,-1,30,right,right,0.243
VTM1984WRNO,2019-10-10-11-59-31,7,24,0.6357785139823242,right,both,ambiguous-switch,99,30,right,right,0.255
VTM1984WRNO,2019-10-10-11-59-31,7,25,0.6212509471381711,left,probe,ambiguous-switch,-1,-10,right,right,0.257
VTM1984WRNO,2019-10-10-11-59-31,7,26,0.6826224635695382,left,both,ambiguous-switch,106,-10,right,right,0.045
VTM1984WRNO,2019-10-10-11-59-31,7,27,0.5248102739233864,left,probe,biased-switch,-1,30,right,right,0.346
VTM1984WRNO,2019-10-10-11-59-31,7,28,0.6156990021834512,left,both,biased-switch,95,30,right,right,0.255
VTM1984WRNO,2019-10-10-11-59-31,7,29,0.5925521147288852,left,probe,biased-switch,-1,40,right,right,0.249
VTM1984WRNO,2019-10-10-11-59-31,7,30,0.5080735861943542,left,both,biased-switch,90,40,right,right,0.241
VTM1984WRNO,2019-10-10-11-59-31,7,31,0.563748650868174,left,probe,ambiguous-switch,-1,40,right,right,0.231
VTM1984WRNO,2019-10-10-11-59-31,7,32,0.623804133106626,left,both,ambiguous-switch,94,40,right,right,0.625
VTM1984WRNO,2019-10-10-11-59-31,7,33,0.5950499425912379,right,probe,ambiguous-switch,-1,0,right,right,0.271
VTM1984WRNO,2019-10-10-11-59-31,7,34,0.5579301552250057,right,both,ambiguous-switch,106,0,right,left,0.012
VTM1984WRNO,2019-10-10-11-59-31,7,35,0.5300126394125932,right,probe,biased-switch,-1,-5,right,right,0.113
VTM1984WRNO,2019-10-10-11-59-31,7,36,0.5700456510394711,right,both,biased-switch,95,-5,right,left,0.201
VTM1984WRNO,2019-10-10-11-59-31,7,37,0.5604849643484656,left,probe,ambiguous-switch,-1,10,right,right,0.185
VTM1984WRNO,2019-10-10-11-59-31,7,38,0.5534852301521715,left,both,ambiguous-switch,106,10,right,right,0.128
VTM1984WRNO,2019-10-10-11-59-31,7,39,0.6938323981568327,right,probe,biased-switch,-1,0,right,right,0.189
VTM1984WRNO,2019-10-10-11-59-31,7,40,0.6100077328760743,right,both,biased-switch,96,0,right,left,0.202
VTM1984WRNO,2019-10-10-11-59-31,7,41,0.5416285127381603,right,probe,biased-switch,-1,-20,right,right,0.153
VTM1984WRNO,2019-10-10-11-59-31,7,42,0.6011462118349531,right,both,biased-switch,109,-20,right,right,2.527
VTM1984WRNO,2019-10-10-11-59-31,7,43,0.6881910719551385,left,probe,ambiguous-switch,-1,-30,right,right,0.53
VTM1984WRNO,2019-10-10-11-59-31,7,44,0.6640364136769376,left,both,ambiguous-switch,97,-30,right,left,0.484
VTM1984WRNO,2019-10-10-11-59-31,7,45,0.5721913832895631,right,probe,ambiguous-switch,-1,-20,right,right,0.293
VTM1984WRNO,2019-10-10-11-59-31,7,46,0.6585552270799819,right,both,ambiguous-switch,110,-20,right,left,0.352
VTM1984WRNO,2019-10-10-11-59-31,7,47,0.6414435795873463,left,probe,biased-switch,-1,20,right,right,0.328
VTM1984WRNO,2019-10-10-11-59-31,7,48,0.5711103400869377,left,both,biased-switch,97,20,right,right,0.392
VTM1984WRNO,2019-10-10-11-59-31,7,49,0.5552725492854016,right,probe,biased-switch,-1,10,right,right,0.363
VTM1984WRNO,2019-10-10-11-59-31,7,50,0.5219284185325712,right,both,biased-switch,106,10,right,left,0.307
VTM1984WRNO,2019-10-10-11-59-31,7,51,0.6589130879323171,right,probe,ambiguous-switch,-1,5,right,right,0.29
VTM1984WRNO,2019-10-10-11-59-31,7,52,0.5836332637358793,right,both,ambiguous-switch,92,5,right,right,0.295
VTM1984WRNO,2019-10-10-11-59-31,7,53,0.5246511431842109,left,probe,biased-switch,-1,5,right,right,0.347
VTM1984WRNO,2019-10-10-11-59-31,7,54,0.5676262899551189,left,both,biased-switch,96,5,right,left,0.261
VTM1984WRNO,2019-10-10-11-59-31,7,55,0.6981109925831115,right,probe,biased-switch,-1,-30,right,right,0.843
VTM1984WRNO,2019-10-10-11-59-31,7,56,0.6862208064112071,right,both,biased-switch,101,-30,right,left,0.212
VTM1984WRNO,2019-10-10-11-59-31,7,57,0.6561166325233023,left,probe,ambiguous-switch,-1,20,right,right,0.296
VTM1984WRNO,2019-10-10-11-59-31,7,58,0.6601156869899202,left,both,ambiguous-switch,97,20,right,right,0.028
VTM1984WRNO,2019-10-10-11-59-31,7,59,0.626365382008596,right,probe,biased-switch,-1,-10,right,right,0.331
VTM1984WRNO,2019-10-10-11-59-31,7,60,0.5769654286759807,right,both,biased-switch,97,-10,right,left,0.229
VTM1984WRNO,2019-10-10-11-59-31,7,61,0.6325482451728216,right,probe,ambiguous-switch,-1,-5,right,right,2.701
VTM1984WRNO,2019-10-10-11-59-31,7,62,0.5383960984940575,right,both,ambiguous-switch,95,-5,right,left,0.268
VTM1984WRNO,2019-10-10-11-59-31,7,63,0.586669370009958,right,probe,ambiguous-switch,-1,30,right,right,0.385
VTM1984WRNO,2019-10-10-11-59-31,7,64,0.6935779836785014,right,both,ambiguous-switch,91,30,right,right,0.267
VTM1984WRNO,2019-10-10-11-59-31,7,65,0.5367266719011107,left,probe,ambiguous-switch,-1,-10,right,right,0.363
VTM1984WRNO,2019-10-10-11-59-31,7,66,0.6870849863654596,left,both,ambiguous-switch,110,-10,right,right,0.331
VTM1984WRNO,2019-10-10-11-59-31,7,67,0.5348553060284831,left,probe,biased-switch,-1,30,right,right,0.323
VTM1984WRNO,2019-10-10-11-59-31,7,68,0.5844572819761295,left,both,biased-switch,101,30,right,right,0.307
VTM1984WRNO,2019-10-10-11-59-31,7,69,0.5402344388971149,left,probe,biased-switch,-1,40,right,right,0.246
VTM1984WRNO,2019-10-10-11-59-31,7,70,0.5530438339750678,left,both,biased-switch,108,40,right,right,0.255
VTM1984WRNO,2019-10-10-11-59-31,7,71,0.6467428658134166,left,probe,ambiguous-switch,-1,40,right,right,0.248
VTM1984WRNO,2019-10-10-11-59-31,7,72,0.6826938697744922,left,both,ambiguous-switch,96,40,right,right,0.715
VTM1984WRNO,2019-10-10-11-59-31,7,73,0.599056351176138,right,probe,ambiguous-switch,-1,0,right,right,0.299
VTM1984WRNO,2019-10-10-11-59-31,7,74,0.6882799511160388,right,both,ambiguous-switch,108,0,right,right,0.31
VTM1984WRNO,2019-10-10-11-59-31,7,75,0.5987013030854789,right,probe,biased-switch,-1,-5,right,right,0.259
VTM1984WRNO,2019-10-10-11-59-31,7,76,0.6710522915820937,right,both,biased-switch,97,-5,right,left,0.294
VTM1984WRNO,2019-10-10-11-59-31,7,77,0.6938287890221116,left,probe,ambiguous-switch,-1,10,right,right,0.262
VTM1984WRNO,2019-10-10-11-59-31,7,78,0.6690282232135428,left,both,ambiguous-switch,97,10,right,left,0.284
VTM1984WRNO,2019-10-10-11-59-31,7,79,0.5705395904368687,left,probe,biased-switch,-1,0,right,right,0.286
VTM1984WRNO,2019-10-10-11-59-31,7,80,0.5034618442379964,left,both,biased-switch,98,0,right,left,0.28
VTM1984WRNO,2019-10-10-11-59-31,8,1,0.5385175648965467,left,probe,biased-switch,-1,20,right,right,0.178
VTM1984WRNO,2019-10-10-11-59-31,8,2,0.6582632843776643,left,both,biased-switch,106,20,right,right,0.289
VTM1984WRNO,2019-10-10-11-59-31,8,3,0.6348028609659045,left,probe,biased-switch,-1,30,right,right,0.314
VTM1984WRNO,2019-10-10-11-59-31,8,4,0.579755857744058,left,both,biased-switch,106,30,right,left,1.151
VTM1984WRNO,2019-10-10-11-59-31,8,5,0.5508144330486073,left,probe,biased-switch,-1,10,right,right,0.367
VTM1984WRNO,2019-10-10-11-59-31,8,6,0.6875556227565874,left,both,biased-switch,108,10,right,right,0.448
VTM1984WRNO,2019-10-10-11-59-31,8,7,0.6019793127539834,left,probe,ambiguous-switch,-1,5,right,right,0.378
VTM1984WRNO,2019-10-10-11-59-31,8,8,0.5653392861554667,left,both,ambiguous-switch,103,5,right,right,0.29
VTM1984WRNO,2019-10-10-11-59-31,8,9,0.6901308004783968,right,probe,ambiguous-switch,-1,10,right,right,0.301
VTM1984WRNO,2019-10-10-11-59-31,8,10,0.660258516745599,right,both,ambiguous-switch,95,10,right,left,0.263
VTM1984WRNO,2019-10-10-11-59-31,8,11,0.6108228812034924,right,probe,biased-switch,-1,5,right,right,0.245
VTM1984WRNO,2019-10-10-11-59-31,8,12,0.5012310172988665,right,both,biased-switch,108,5,right,left,0.279
VTM1984WRNO,2019-10-10-11-59-31,8,13,0.6039843959565131,left,probe,ambiguous-switch,-1,-10,right,right,0.241
VTM1984WRNO,2019-10-10-11-59-31,8,14,0.581784866882093,left,both,ambiguous-switch,95,-10,right,right,0.21
VTM1984WRNO,2019-10-10-11-59-31,8,15,0.5264444135364291,left,probe,biased-switch,-1,-30,right,right,0.282
VTM1984WRNO,2019-10-10-11-59-31,8,16,0.5832950049280461,left,both,biased-switch,95,-30,right,left,0.409
VTM1984WRNO,2019-10-10-11-59-31,8,17,0.5499463998216488,right,probe,ambiguous-switch,-1,20,right,right,0.269
VTM1984WRNO,2019-10-10-11-59-31,8,18,0.6402502277899458,right,both,ambiguous-switch,93,20,right,left,0.263
VTM1984WRNO,2019-10-10-11-59-31,8,19,0.6980137052543338,right,probe,ambiguous-switch,-1,-20,right,right,0.307
VTM1984WRNO,2019-10-10-11-59-31,8,20,0.6848951031329573,right,both,ambiguous-switch,104,-20,right,left,0.254
VTM1984WRNO,2019-10-10-11-59-31,8,21,0.51693215863624,right,probe,biased-switch,-1,-10,left,left,0.228
VTM1984WRNO,2019-10-10-11-59-31,8,22,0.5220024936844884,right,both,biased-switch,94,-10,left,left,0.305
VTM1984WRNO,2019-10-10-11-59-31,8,23,0.6777839964989713,right,probe,biased-switch,-1,-20,left,left,0.195
VTM1984WRNO,2019-10-10-11-59-31,8,24,0.6811815370820831,right,both,biased-switch,105,-20,left,left,0.279
VTM1984WRNO,2019-10-10-11-59-31,8,25,0.682125395671841,right,probe,ambiguous-switch,-1,-5,left,left,0.293
VTM1984WRNO,2019-10-10-11-59-31,8,26,0.6934512104378002,right,both,ambiguous-switch,106,-5,left,left,0.159
VTM1984WRNO,2019-10-10-11-59-31,8,27,0.5567146453149452,right,probe,biased-switch,-1,0,left,left,0.282
VTM1984WRNO,2019-10-10-11-59-31,8,28,0.5468832273729983,right,both,biased-switch,97,0,left,left,0.161
VTM1984WRNO,2019-10-10-11-59-31,8,29,0.639204158704295,right,probe,ambiguous-switch,-1,0,left,left,0.298
VTM1984WRNO,2019-10-10-11-59-31,8,30,0.6267964338639974,right,both,ambiguous-switch,94,0,left,left,0.304
VTM1984WRNO,2019-10-10-11-59-31,8,31,0.6356124309537354,left,probe,ambiguous-switch,-1,30,left,left,0.264
VTM1984WRNO,2019-10-10-11-59-31,8,32,0.55670904587902,left,both,ambiguous-switch,104,30,left,left,0.244
VTM1984WRNO,2019-10-10-11-59-31,8,33,0.510023584081317,left,probe,biased-switch,-1,40,left,left,0.281
VTM1984WRNO,2019-10-10-11-59-31,8,34,0.6042952717151272,left,both,biased-switch,96,40,left,left,0.242
VTM1984WRNO,2019-10-10-11-59-31,8,35,0.5640626390372373,left,probe,ambiguous-switch,-1,40,left,left,0.459
VTM1984WRNO,2019-10-10-11-59-31,8,36,0.6979824596419302,left,both,ambiguous-switch,94,40,left,left,0.251
VTM1984WRNO,2019-10-10-11-59-31,8,37,0.662101064879559,right,probe,ambiguous-switch,-1,-30,left,left,0.244
VTM1984WRNO,2019-10-10-11-59-31,8,38,0.5864151032694525,right,both,ambiguous-switch,90,-30,left,left,0.246
VTM1984WRNO,2019-10-10-11-59-31,8,39,0.6751463133419733,right,probe,biased-switch,-1,-5,left,left,0.247
VTM1984WRNO,2019-10-10-11-59-31,8,40,0.5644269368463168,right,both,biased-switch,99,-5,left,left,0.164
VTM1984WRNO,2019-10-10-11-59-31,8,41,0.5078947401506518,right,probe,biased-switch,-1,20,left,left,0.311
VTM1984WRNO,2019-10-10-11-59-31,8,42,0.5961341014479776,right,both,biased-switch,102,20,left,left,0.244
VTM1984WRNO,2019-10-10-11-59-31,8,43,0.68479073313327,left,probe,biased-switch,-1,30,left,left,0.227
VTM1984WRNO,2019-10-10-11-59-31,8,44,0.5892059067147921,left,both,biased-switch,92,30,left,left,0.223
VTM1984WRNO,2019-10-10-11-59-31,8,45,0.5088060390678999,left,probe,biased-switch,-1,10,left,left,0.266
VTM1984WRNO,2019-10-10-11-59-31,8,46,0.6558814046420454,left,both,biased-switch,95,10,left,right,0.24
VTM1984WRNO,2019-10-10-11-59-31,8,47,0.6681658421169682,right,probe,ambiguous-switch,-1,5,left,left,0.287
VTM1984WRNO,2019-10-10-11-59-31,8,48,0.6150825256761392,right,both,ambiguous-switch,107,5,left,left,0.159
VTM1984WRNO,2019-10-10-11-59-31,8,49,0.6277936135101421,left,probe,ambiguous-switch,-1,10,left,left,0.29
VTM1984WRNO,2019-10-10-11-59-31,8,50,0.5871057508026657,left,both,ambiguous-switch,98,10,left,left,0.266
VTM1984WRNO,2019-10-10-11-59-31,8,51,0.6479367200298557,left,probe,biased-switch,-1,5,left,left,0.325
VTM1984WRNO,2019-10-10-11-59-31,8,52,0.6766719117942244,left,both,biased-switch,92,5,left,right,0.263
VTM1984WRNO,2019-10-10-11-59-31,8,53,0.5442896913061049,left,probe,ambiguous-switch,-1,-10,left,left,0.23
VTM1984WRNO,2019-10-10-11-59-31,8,54,0.5564691279307333,left,both,ambiguous-switch,91,-10,left,left,0.29
VTM1984WRNO,2019-10-10-11-59-31,8,55,0.5524512888003702,left,probe,biased-switch,-1,-30,left,left,0.297
VTM1984WRNO,2019-10-10-11-59-31,8,56,0.5253189083216522,left,both,biased-switch,108,-30,left,left,0.237
VTM1984WRNO,2019-10-10-11-59-31,8,57,0.6020353404584652,left,probe,ambiguous-switch,-1,20,left,left,0.238
VTM1984WRNO,2019-10-10-11-59-31,8,58,0.5381401744468886,left,both,ambiguous-switch,99,20,left,left,0.25
VTM1984WRNO,2019-10-10-11-59-31,8,59,0.6850318680389534,left,probe,ambiguous-switch,-1,-20,left,left,0.296
VTM1984WRNO,2019-10-10-11-59-31,8,60,0.6921612049492649,left,both,ambiguous-switch,95,-20,left,left,0.26
VTM1984WRNO,2019-10-10-11-59-31,8,61,0.6623684768436156,left,probe,biased-switch,-1,-10,left,left,0.374
VTM1984WRNO,2019-10-10-11-59-31,8,62,0.6134468644761407,left,both,biased-switch,101,-10,left,left,0.253
VTM1984WRNO,2019-10-10-11-59-31,8,63,0.5520867434413513,right,probe,biased-switch,-1,-20,left,left,0.271
VTM1984WRNO,2019-10-10-11-59-31,8,64,0.5122415463137611,right,both,biased-switch,106,-20,left,left,0.212
VTM1984WRNO,2019-10-10-11-59-31,8,65,0.5149235891266614,right,probe,ambiguous-switch,-1,-5,left,left,0.292
VTM1984WRNO,2019-10-10-11-59-31,8,66,0.6632548708034274,right,both,ambiguous-switch,101,-5,left,left,0.041
VTM1984WRNO,2019-10-10-11-59-31,8,67,0.5367980651450389,right,probe,biased-switch,-1,0,left,left,0.268
VTM1984WRNO,2019-10-10-11-59-31,8,68,0.680137885833629,right,both,biased-switch,109,0,left,left,0.276
VTM1984WRNO,2019-10-10-11-59-31,8,69,0.5443443640311676,right,probe,ambiguous-switch,-1,0,left,left,0.281
VTM1984WRNO,2019-10-10-11-59-31,8,70,0.6147085193135691,right,both,ambiguous-switch,93,0,left,left,0.267
VTM1984WRNO,2019-10-10-11-59-31,8,71,0.5805944733201113,left,probe,ambiguous-switch,-1,30,left,left,0.294
VTM1984WRNO,2019-10-10-11-59-31,8,72,0.6001576628530333,left,both,ambiguous-switch,108,30,left,left,0.277
VTM1984WRNO,2019-10-10-11-59-31,8,73,0.6227303270065503,right,probe,biased-switch,-1,40,left,left,0.24
VTM1984WRNO,2019-10-10-11-59-31,8,74,0.6036608900739598,right,both,biased-switch,108,40,left,left,0.275
VTM1984WRNO,2019-10-10-11-59-31,8,75,0.5024418459223388,left,probe,ambiguous-switch,-1,40,left,left,0.294
VTM1984WRNO,2019-10-10-11-59-31,8,76,0.6988494430769372,left,both,ambiguous-switch,104,40,left,left,0.33
VTM1984WRNO,2019-10-10-11-59-31,8,77,0.533160797814487,left,probe,ambiguous-switch,-1,-30,left,left,0.331
VTM1984WRNO,2019-10-10-11-59-31,8,78,0.5236519123027485,left,both,ambiguous-switch,104,-30,left,left,2.267
VTM1984WRNO,2019-10-10-11-59-31,8,79,0.6429292641565989,left,probe,biased-switch,-1,-5,left,left,0.364
VTM1984WRNO,2019-10-10-11-59-31,8,80,0.5716141852008847,left,both,biased-switch,107,-5,left,left,0.308
VTM1984WRNO,2019-10-10-11-59-31,9,1,0.5114390389471205,left,probe,ambiguous-switch,-1,20,left,left,0.113
VTM1984WRNO,2019-10-10-11-59-31,9,2,0.5733550959080596,left,both,ambiguous-switch,95,20,left,left,0.286
VTM1984WRNO,2019-10-10-11-59-31,9,3,0.6176965941126391,right,probe,ambiguous-switch,-1,5,left,left,0.253
VTM1984WRNO,2019-10-10-11-59-31,9,4,0.6000872401641759,right,both,ambiguous-switch,97,5,left,left,0.267
VTM1984WRNO,2019-10-10-11-59-31,9,5,0.6974277164267375,left,probe,ambiguous-switch,-1,30,left,left,0.243
VTM1984WRNO,2019-10-10-11-59-31,9,6,0.6183496055298978,left,both,ambiguous-switch,107,30,left,left,0.276
VTM1984WRNO,2019-10-10-11-59-31,9,7,0.5750090642704299,right,probe,ambiguous-switch,-1,10,left,left,0.261
VTM1984WRNO,2019-10-10-11-59-31,9,8,0.6753670023819559,right,both,ambiguous-switch,100,10,left,left,0.218
VTM1984WRNO,2019-10-10-11-59-31,9,9,0.5845275749290297,right,probe,biased-switch,-1,-10,left,left,0.257
VTM1984WRNO,2019-10-10-11-59-31,9,10,0.5810919765578626,right,both,biased-switch,92,-10,left,left,0.265
VTM1984WRNO,2019-10-10-11-59-31,9,11,0.5564767014773009,right,probe,biased-switch,-1,30,left,left,0.251
VTM1984WRNO,2019-10-10-11-59-31,9,12,0.6398098904911674,right,both,biased-switch,96,30,left,left,0.211
VTM1984WRNO,2019-10-10-11-59-31,9,13,0.6878596620257789,right,probe,ambiguous-switch,-1,-30,left,left,0.278
VTM1984WRNO,2019-10-10-11-59-31,9,14,0.6883395022725965,right,both,ambiguous-switch,102,-30,left,left,0.261
VTM1984WRNO,2019-10-10-11-59-31,9,15,0.5224618442471637,left,probe,biased-switch,-1,20,left,left,0.234
VTM1984WRNO,2019-10-10-11-59-31,9,16,0.6871098586011226,left,both,biased-switch,104,20,left,right,0.221
VTM1984WRNO,2019-10-10-11-59-31,9,17,0.5722961566875928,right,probe,biased-switch,-1,-30,left,left,0.264
VTM1984WRNO,2019-10-10-11-59-31,9,18,0.5734078064767902,right,both,biased-switch,97,-30,left,left,0.231
VTM1984WRNO,2019-10-10-11-59-31,9,19,0.5314791480718236,right,probe,ambiguous-switch,-1,-5,left,left,0.253
VTM1984WRNO,2019-10-10-11-59-31,9,20,0.6367860949941989,right,both,ambiguous-switch,90,-5,left,left,0.199
VTM1984WRNO,2019-10-10-11-59-31,9,21,0.66936134640767,left,probe,biased-switch,-1,-20,left,left,0.187
VTM1984WRNO,2019-10-10-11-59-31,9,22,0.6331285646856128,left,both,biased-switch,102,-20,left,left,0.234
VTM1984WRNO,2019-10-10-11-59-31,9,23,0.5012122363156862,left,probe,biased-switch,-1,-5,left,left,0.262
VTM1984WRNO,2019-10-10-11-59-31,9,24,0.6950794106165845,left,both,biased-switch,100,-5,left,left,0.253
VTM1984WRNO,2019-10-10-11-59-31,9,25,0.6794591914752132,right,probe,biased-switch,-1,40,left,left,0.224
VTM1984WRNO,2019-10-10-11-59-31,9,26,0.6909046441322506,right,both,biased-switch,100,40,left,left,0.167
VTM1984WRNO,2019-10-10-11-59-31,9,27,0.5845434706760155,left,probe,biased-switch,-1,10,left,left,0.25
VTM1984WRNO,2019-10-10-11-59-31,9,28,0.5380952937789554,left,both,biased-switch,91,10,left,right,0.138
VTM1984WRNO,2019-10-10-11-59-31,9,29,0.6750063625756697,right,probe,ambiguous-switch,-1,40,left,left,0.409
VTM1984WRNO,2019-10-10-11-59-31,9,30,0.6256441475208675,right,both,ambiguous-switch,109,40,left,left,0.127
VTM1984WRNO,2019-10-10-11-59-31,9,31,0.6133837668962127,right,probe,ambiguous-switch,-1,-10,left,left,0.316
VTM1984WRNO,2019-10-10-11-59-31,9,32,0.5470377699934468,right,both,ambiguous-switch,94,-10,left,left,0.269
VTM1984WRNO,2019-10-10-11-59-31,9,33,0.6175285464749384,left,probe,ambiguous-switch,-1,0,left,left,0.29
VTM1984WRNO,2019-10-10-11-59-31,9,34,0.5456255204561039,left,both,ambiguous-switch,103,0,left,left,0.29
VTM1984WRNO,2019-10-10-11-59-31,9,35,0.6988649061752101,left,probe,biased-switch,-1,0,left,left,0.293
VTM1984WRNO,2019-10-10-11-59-31,9,36,0.6046188911851778,left,both,biased-switch,107,0,left,left,0.236
VTM1984WRNO,2019-10-10-11-59-31,9,37,0.6829581660799411,right,probe,ambiguous-switch,-1,-20,left,left,0.236
VTM1984WRNO,2019-10-10-11-59-31,9,38,0.6001066091621123,right,both,ambiguous-switch,90,-20,left,left,0.356
VTM1984WRNO,2019-10-10-11-59-31,9,39,0.6056357676661771,right,probe,biased-switch,-1,5,left,left,0.283
VTM1984WRNO,2019-10-10-11-59-31,9,40,0.572625840207543,right,both,biased-switch,102,5,left,right,0.299
VTM1984WRNO,2019-10-10-11-59-31,9,41,0.5207359393976891,left,probe,ambiguous-switch,-1,20,left,left,0.243
VTM1984WRNO,2019-10-10-11-59-31,9,42,0.5580720526601933,left,both,ambiguous-switch,96,20,left,left,0.267
VTM1984WRNO,2019-10-10-11-59-31,9,43,0.6812402300624808,left,probe,ambiguous-switch,-1,5,left,left,0.261
VTM1984WRNO,2019-10-10-11-59-31,9,44,0.6228280515652534,left,both,ambiguous-switch,97,5,left,left,0.232
VTM1984WRNO,2019-10-10-11-59-31,9,45,0.6218211815420304,left,probe,ambiguous-switch,-1,30,left,left,0.291
VTM1984WRNO,2019-10-10-11-59-31,9,46,0.5922286802305347,left,both,ambiguous-switch,103,30,left,left,0.277
VTM1984WRNO,2019-10-10-11-59-31,9,47,0.5814966809743279,right,probe,ambiguous-switch,-1,10,left,left,0.327
VTM1984WRNO,2019-10-10-11-59-31,9,48,0.6855095475188747,right,both,ambiguous-switch,99,10,left,right,0.281
VTM1984WRNO,2019-10-10-11-59-31,9,49,0.5083264451971203,left,probe,biased-switch,-1,-10,left,left,0.324
VTM1984WRNO,2019-10-10-11-59-31,9,50,0.5763307552787558,left,both,biased-switch,94,-10,left,left,0.257
VTM1984WRNO,2019-10-10-11-59-31,9,51,0.5678298810392468,left,probe,biased-switch,-1,30,left,left,0.246
VTM1984WRNO,2019-10-10-11-59-31,9,52,0.5599446729130511,left,both,biased-switch,103,30,left,left,0.192
VTM1984WRNO,2019-10-10-11-59-31,9,53,0.6836564587271506,right,probe,ambiguous-switch,-1,-30,left,left,0.236
VTM1984WRNO,2019-10-10-11-59-31,9,54,0.5486088314924462,right,both,ambiguous-switch,99,-30,left,left,0.239
VTM1984WRNO,2019-10-10-11-59-31,9,55,0.627672443670443,right,probe,biased-switch,-1,20,left,left,0.238
VTM1984WRNO,2019-10-10-11-59-31,9,56,0.6595821763841869,right,both,biased-switch,107,20,left,right,0.309
VTM1984WRNO,2019-10-10-11-59-31,9,57,0.524826225371599,left,probe,biased-switch,-1,-30,left,left,0.311
VTM1984WRNO,2019-10-10-11-59-31,9,58,0.6936746350861926,left,both,biased-switch,109,-30,left,left,0.426
VTM1984WRNO,2019-10-10-11-59-31,9,59,0.5889474088204071,right,probe,ambiguous-switch,-1,-5,left,left,0.344
VTM1984WRNO,2019-10-10-11-59-31,9,60,0.6735891341709119,right,both,ambiguous-switch,92,-5,left,left,0.334
VTM1984WRNO,2019-10-10-11-59-31,9,61,0.5907663807599859,right,probe,biased-switch,-1,-20,left,left,0.324
VTM1984WRNO,2019-10-10-11-59-31,9,62,0.5868470103211347,right,both,biased-switch,103,-20,left,left,0.233
VTM1984WRNO,2019-10-10-11-59-31,9,63,0.6180025932210177,left,probe,biased-switch,-1,-5,left,left,0.252
VTM1984WRNO,2019-10-10-11-59-31,9,64,0.6711695853249607,left,both,biased-switch,107,-5,left,left,0.285
VTM1984WRNO,2019-10-10-11-59-31,9,65,0.6768596534341632,left,probe,biased-switch,-1,40,left,left,0.3
VTM1984WRNO,2019-10-10-11-59-31,9,66,0.6118183534462166,left,both,biased-switch,104,40,left,left,0.743
VTM1984WRNO,2019-10-10-11-59-31,9,67,0.647577391420888,right,probe,biased-switch,-1,10,left,left,0.474
VTM1984WRNO,2019-10-10-11-59-31,9,68,0.5642149313166682,right,both,biased-switch,103,10,left,right,0.357
VTM1984WRNO,2019-10-10-11-59-31,9,69,0.5419836643996214,right,probe,ambiguous-switch,-1,40,left,left,0.227
VTM1984WRNO,2019-10-10-11-59-31,9,70,0.6273191530233695,right,both,ambiguous-switch,92,40,left,left,0.41
VTM1984WRNO,2019-10-10-11-59-31,9,71,0.5902524463163065,left,probe,ambiguous-switch,-1,-10,left,left,0.248
VTM1984WRNO,2019-10-10-11-59-31,9,72,0.5358475180640945,left,both,ambiguous-switch,103,-10,left,left,0.279
VTM1984WRNO,2019-10-10-11-59-31,9,73,0.6852668418124221,left,probe,ambiguous-switch,-1,0,left,left,0.301
VTM1984WRNO,2019-10-10-11-59-31,9,74,0.6657528411635365,left,both,ambiguous-switch,97,0,left,left,0.306
VTM1984WRNO,2019-10-10-11-59-31,9,75,0.6690338623257549,left,probe,biased-switch,-1,0,left,left,0.385
VTM1984WRNO,2019-10-10-11-59-31,9,76,0.5618157786899963,left,both,biased-switch,90,0,left,left,0.384
VTM1984WRNO,2019-10-10-11-59-31,9,77,0.5311582358672128,right,probe,ambiguous-switch,-1,-20,left,left,0.373
VTM1984WRNO,2019-10-10-11-59-31,9,78,0.6040793594732259,right,both,ambiguous-switch,97,-20,left,left,0.28
VTM1984WRNO,2019-10-10-11-59-31,9,79,0.6910497309462706,right,probe,biased-switch,-1,5,left,left,0.454
VTM1984WRNO,2019-10-10-11-59-31,9,80,0.6432693196805976,right,both,biased-switch,109,5,left,right,0.341
VTM1984WRNO,2019-10-10-11-59-31,10,1,0.6648616217036803,right,probe,ambiguous-switch,-1,-20,left,left,0.422
VTM1984WRNO,2019-10-10-11-59-31,10,2,0.6771040798899486,right,both,ambiguous-switch,108,-20,left,left,0.309
VTM1984WRNO,2019-10-10-11-59-31,10,3,0.5390021182536155,right,probe,ambiguous-switch,-1,10,left,left,0.4
VTM1984WRNO,2019-10-10-11-59-31,10,4,0.6547840003710412,right,both,ambiguous-switch,106,10,left,right,0.299
VTM1984WRNO,2019-10-10-11-59-31,10,5,0.5254066592772557,right,probe,biased-switch,-1,5,right,right,0.276
VTM1984WRNO,2019-10-10-11-59-31,10,6,0.6443219018932549,right,both,biased-switch,105,5,right,left,0.26
VTM1984WRNO,2019-10-10-11-59-31,10,7,0.5171800245974105,right,probe,biased-switch,-1,-10,left,left,0.325
VTM1984WRNO,2019-10-10-11-59-31,10,8,0.6499897291250867,right,both,biased-switch,110,-10,left,left,0.23
VTM1984WRNO,2019-10-10-11-59-31,10,9,0.5798329331199239,left,probe,biased-switch,-1,-5,left,left,0.286
VTM1984WRNO,2019-10-10-11-59-31,10,10,0.6266681660637498,left,both,biased-switch,105,-5,left,right,0.302
VTM1984WRNO,2019-10-10-11-59-31,10,11,0.6140122271413785,left,probe,ambiguous-switch,-1,40,left,left,0.269
VTM1984WRNO,2019-10-10-11-59-31,10,12,0.6987856912531023,left,both,ambiguous-switch,101,40,left,left,0.238
VTM1984WRNO,2019-10-10-11-59-31,10,13,0.52808086368012,left,probe,ambiguous-switch,-1,-5,left,left,0.269
VTM1984WRNO,2019-10-10-11-59-31,10,14,0.6937727150069148,left,both,ambiguous-switch,91,-5,left,left,0.269
VTM1984WRNO,2019-10-10-11-59-31,10,15,0.6161312846016725,left,probe,biased-switch,-1,40,left,left,0.288
VTM1984WRNO,2019-10-10-11-59-31,10,16,0.5145881045473601,left,both,biased-switch,109,40,left,left,0.238
VTM1984WRNO,2019-10-10-11-59-31,10,17,0.5788240762785805,left,probe,biased-switch,-1,-20,left,left,0.276
VTM1984WRNO,2019-10-10-11-59-31,10,18,0.6292528204811016,left,both,biased-switch,98,-20,left,left,0.293
VTM1984WRNO,2019-10-10-11-59-31,10,19,0.6975678891567749,left,probe,ambiguous-switch,-1,5,left,left,0.268
VTM1984WRNO,2019-10-10-11-59-31,10,20,0.5206639522203657,left,both,ambiguous-switch,105,5,left,right,0.327
VTM1984WRNO,2019-10-10-11-59-31,10,21,0.5308237099833231,right,probe,biased-switch,-1,10,left,left,0.251
VTM1984WRNO,2019-10-10-11-59-31,10,22,0.6401456846597321,right,both,biased-switch,95,10,left,right,0.316
VTM1984WRNO,2019-10-10-11-59-31,10,23,0.6908316149358751,right,probe,ambiguous-switch,-1,0,left,left,0.303
VTM1984WRNO,2019-10-10-11-59-31,10,24,0.5454784840373806,right,both,ambiguous-switch,91,0,left,left,0.239
VTM1984WRNO,2019-10-10-11-59-31,10,25,0.6460341688992292,right,probe,biased-switch,-1,0,left,left,0.223
VTM1984WRNO,2019-10-10-11-59-31,10,26,0.5200078310361326,right,both,biased-switch,93,0,left,right,0.301
VTM1984WRNO,2019-10-10-11-59-31,10,27,0.5818437893864801,left,probe,ambiguous-switch,-1,-30,left,left,0.242
VTM1984WRNO,2019-10-10-11-59-31,10,28,0.6131082835075657,left,both,ambiguous-switch,92,-30,left,left,0.311
VTM1984WRNO,2019-10-10-11-59-31,10,29,0.6342958860552688,right,probe,ambiguous-switch,-1,20,left,left,0.279
VTM1984WRNO,2019-10-10-11-59-31,10,30,0.6330516613838607,right,both,ambiguous-switch,105,20,left,left,0.232
VTM1984WRNO,2019-10-10-11-59-31,10,31,0.5982606914156909,right,probe,biased-switch,-1,20,left,left,0.297
VTM1984WRNO,2019-10-10-11-59-31,10,32,0.5956167379821192,right,both,biased-switch,94,20,left,right,0.298
VTM1984WRNO,2019-10-10-11-59-31,10,33,0.545909863401096,right,probe,ambiguous-switch,-1,30,right,right,0.264
VTM1984WRNO,2019-10-10-11-59-31,10,34,0.6915063129560666,right,both,ambiguous-switch,99,30,right,left,0.228
VTM1984WRNO,2019-10-10-11-59-31,10,35,0.6159495594588552,right,probe,ambiguous-switch,-1,-10,left,left,0.295
VTM1984WRNO,2019-10-10-11-59-31,10,36,0.5866325019051976,right,both,ambiguous-switch,102,-10,left,left,0.273
VTM1984WRNO,2019-10-10-11-59-31,10,37,0.5207039113732718,right,probe,biased-switch,-1,30,left,left,0.288
VTM1984WRNO,2019-10-10-11-59-31,10,38,0.5151836525177965,right,both,biased-switch,91,30,left,left,0.365
VTM1984WRNO,2019-10-10-11-59-31,10,39,0.5099543919600207,right,probe,biased-switch,-1,-30,left,left,0.335
VTM1984WRNO,2019-10-10-11-59-31,10,40,0.5807125140762462,right,both,biased-switch,109,-30,left,left,0.269
VTM1984WRNO,2019-10-10-11-59-31,10,41,0.6477937530684996,left,probe,ambiguous-switch,-1,-20,left,left,0.26
VTM1984WRNO,2019-10-10-11-59-31,10,42,0.6183096829891742,left,both,ambiguous-switch,101,-20,left,left,0.254
VTM1984WRNO,2019-10-10-11-59-31,10,43,0.668226895715823,left,probe,ambiguous-switch,-1,10,left,left,0.234
VTM1984WRNO,2019-10-10-11-59-31,10,44,0.6349128730680489,left,both,ambiguous-switch,95,10,left,left,0.255
VTM1984WRNO,2019-10-10-11-59-31,10,45,0.5514636226985581,left,probe,biased-switch,-1,5,left,left,0.368
VTM1984WRNO,2019-10-10-11-59-31,10,46,0.6994564829725942,left,both,biased-switch,98,5,left,right,0.241
VTM1984WRNO,2019-10-10-11-59-31,10,47,0.5161046741640865,right,probe,biased-switch,-1,-10,left,left,0.223
VTM1984WRNO,2019-10-10-11-59-31,10,48,0.6065273784194506,right,both,biased-switch,97,-10,left,left,0.076
VTM1984WRNO,2019-10-10-11-59-31,10,49,0.509117626563361,left,probe,biased-switch,-1,-5,left,left,0.17
VTM1984WRNO,2019-10-10-11-59-31,10,50,0.6703228131142478,left,both,biased-switch,94,-5,left,right,0.177
VTM1984WRNO,2019-10-10-11-59-31,10,51,0.5227881534045508,right,probe,ambiguous-switch,-1,40,left,left,0.093
VTM1984WRNO,2019-10-10-11-59-31,10,52,0.5971476377517285,right,both,ambiguous-switch,98,40,left,left,0.089
VTM1984WRNO,2019-10-10-11-59-31,10,53,0.606693597242999,left,probe,ambiguous-switch,-1,-5,right,right,0.233
VTM1984WRNO,2019-10-10-11-59-31,10,54,0.6949258355672894,left,both,ambiguous-switch,93,-5,right,right,0.219
VTM1984WRNO,2019-10-10-11-59-31,10,55,0.5965215004744739,left,probe,biased-switch,-1,40,right,right,0.323
VTM1984WRNO,2019-10-10-11-59-31,10,56,0.5762161141437828,left,both,biased-switch,95,40,right,right,0.19
VTM1984WRNO,2019-10-10-11-59-31,10,57,0.6444627828106981,right,probe,biased-switch,-1,-20,right,right,0.629
VTM1984WRNO,2019-10-10-11-59-31,10,58,0.659713701568882,right,both,biased-switch,104,-20,right,right,0.156
VTM1984WRNO,2019-10-10-11-59-31,10,59,0.5415298514936706,right,probe,ambiguous-switch,-1,5,right,right,0.286
VTM1984WRNO,2019-10-10-11-59-31,10,60,0.6012880651280281,right,both,ambiguous-switch,98,5,right,left,0.214
VTM1984WRNO,2019-10-10-11-59-31,10,61,0.6032478461354814,right,probe,biased-switch,-1,10,right,right,0.223
VTM1984WRNO,2019-10-10-11-59-31,10,62,0.6965860390933489,right,both,biased-switch,110,10,right,left,0.27
VTM1984WRNO,2019-10-10-11-59-31,10,63,0.6574434433644459,right,probe,ambiguous-switch,-1,0,left,left,0.087
VTM1984WRNO,2019-10-10-11-59-31,10,64,0.6670064119660594,right,both,ambiguous-switch,109,0,left,left,0.269
VTM1984WRNO,2019-10-10-11-59-31,10,65,0.6843530915496712,left,probe,biased-switch,-1,0,right,right,0.191
VTM1984WRNO,2019-10-10-11-59-31,10,66,0.6001306794060823,left,both,biased-switch,103,0,right,left,0.261
VTM1984WRNO,2019-10-10-11-59-31,10,67,0.6042347309042291,right,probe,ambiguous-switch,-1,-30,left,left,0.227
VTM1984WRNO,2019-10-10-11-59-31,10,68,0.527996499095449,right,both,ambiguous-switch,93,-30,left,left,0.279
VTM1984WRNO,2019-10-10-11-59-31,10,69,0.6507008405475372,right,probe,ambiguous-switch,-1,20,left,left,0.229
VTM1984WRNO,2019-10-10-11-59-31,10,70,0.6059546809343479,right,both,ambiguous-switch,109,20,left,left,0.244
VTM1984WRNO,2019-10-10-11-59-31,10,71,0.674338345795199,right,probe,biased-switch,-1,20,left,left,0.203
VTM1984WRNO,2019-10-10-11-59-31,10,72,0.6423288571207358,right,both,biased-switch,97,20,left,right,0.158
VTM1984WRNO,2019-10-10-11-59-31,10,73,0.5751398333107681,left,probe,ambiguous-switch,-1,30,right,right,0.25
VTM1984WRNO,2019-10-10-11-59-31,10,74,0.618200199063203,left,both,ambiguous-switch,105,30,right,right,0.284
VTM1984WRNO,2019-10-10-11-59-31,10,75,0.5781446900701149,left,probe,ambiguous-switch,-1,-10,right,right,0.334
VTM1984WRNO,2019-10-10-11-59-31,10,76,0.6276967240454507,left,both,ambiguous-switch,94,-10,right,right,0.296
VTM1984WRNO,2019-10-10-11-59-31,10,77,0.6379321769818359,right,probe,biased-switch,-1,30,right,right,0.298
VTM1984WRNO,2019-10-10-11-59-31,10,78,0.538538138074363,right,both,biased-switch,91,30,right,left,0.228
VTM1984WRNO,2019-10-10-11-59-31,10,79,0.601458353392475,left,probe,biased-switch,-1,-30,right,right,0.238
VTM1984WRNO,2019-10-10-11-59-31,10,80,0.5275150228121951,left,both,biased-switch,100,-30,right,right,0.219
