Participant,Session,Block,Trial,OnsetDelay,ProbeLocation,WhatIsReported,Condition,TriggerTime,ProbeSOA,PrimeDirection,Response,RT
MON1991WRNO,2019-10-24-11-04-57,1,1,0.5458455666385192,right,probe,ambiguous-switch,-1,-30,right,right,0.418
MON1991WRNO,2019-10-24-11-04-57,1,2,0.5149986250776972,right,both,ambiguous-switch,99,-30,right,right,0.282
MON1991WRNO,2019-10-24-11-04-57,1,3,0.5642061909741931,left,probe,ambiguous-switch,-1,10,right,right,0.324
MON1991WRNO,2019-10-24-11-04-57,1,4,0.5273545996285481,left,both,ambiguous-switch,95,10,right,right,0.242
MON1991WRNO,2019-10-24-11-04-57,1,5,0.5226712652285335,right,probe,biased-switch,-1,10,right,right,0.29
MON1991WRNO,2019-10-24-11-04-57,1,6,0.6220041939027455,right,both,biased-switch,108,10,right,right,0.303
MON1991WRNO,2019-10-24-11-04-57,1,7,0.6916066364627808,left,probe,ambiguous-switch,-1,30,right,right,0.223
MON1991WRNO,2019-10-24-11-04-57,1,8,0.5605218009018041,left,both,ambiguous-switch,108,30,right,left,0.285
MON1991WRNO,2019-10-24-11-04-57,1,9,0.590538672303769,right,probe,biased-switch,-1,0,right,right,0.323
MON1991WRNO,2019-10-24-11-04-57,1,10,0.5904428179313245,right,both,biased-switch,91,0,right,right,0.192
MON1991WRNO,2019-10-24-11-04-57,1,11,0.5342560047011325,left,probe,biased-switch,-1,5,right,right,0.34
MON1991WRNO,2019-10-24-11-04-57,1,12,0.5278858160508251,left,both,biased-switch,92,5,right,right,0.204
MON1991WRNO,2019-10-24-11-04-57,1,13,0.5927911563786166,left,probe,ambiguous-switch,-1,-20,right,right,0.315
MON1991WRNO,2019-10-24-11-04-57,1,14,0.5016397421260381,left,both,ambiguous-switch,109,-20,right,right,0.222
MON1991WRNO,2019-10-24-11-04-57,1,15,0.6607486121532575,right,probe,biased-switch,-1,30,right,right,0.263
MON1991WRNO,2019-10-24-11-04-57,1,16,0.5396705178186236,right,both,biased-switch,101,30,right,right,0.192
MON1991WRNO,2019-10-24-11-04-57,1,17,0.5321928163821751,left,probe,biased-switch,-1,40,right,right,0.282
MON1991WRNO,2019-10-24-11-04-57,1,18,0.595348545355483,left,both,biased-switch,91,40,right,right,0.221
MON1991WRNO,2019-10-24-11-04-57,1,19,0.6536017449488567,left,probe,biased-switch,-1,-30,right,right,0.257
MON1991WRNO,2019-10-24-11-04-57,1,20,0.6703510605945969,left,both,biased-switch,97,-30,right,right,0.226
MON1991WRNO,2019-10-24-11-04-57,1,21,0.6169050884576315,left,probe,biased-switch,-1,-10,right,right,0.234
MON1991WRNO,2019-10-24-11-04-57,1,22,0.5509554323207406,left,both,biased-switch,96,-10,right,right,0.223
MON1991WRNO,2019-10-24-11-04-57,1,23,0.6945507085306604,right,probe,ambiguous-switch,-1,-10,right,right,0.216
MON1991WRNO,2019-10-24-11-04-57,1,24,0.6460954555254235,right,both,ambiguous-switch,92,-10,right,right,0.24
MON1991WRNO,2019-10-24-11-04-57,1,25,0.653553784322576,right,probe,biased-switch,-1,-5,right,right,0.235
MON1991WRNO,2019-10-24-11-04-57,1,26,0.560118728449281,right,both,biased-switch,101,-5,right,right,0.186
MON1991WRNO,2019-10-24-11-04-57,1,27,0.6109793303213991,right,probe,ambiguous-switch,-1,-5,right,right,0.219
MON1991WRNO,2019-10-24-11-04-57,1,28,0.694445907238944,right,both,ambiguous-switch,92,-5,right,right,0.196
MON1991WRNO,2019-10-24-11-04-57,1,29,0.6591724437110621,left,probe,biased-switch,-1,20,right,right,0.248
MON1991WRNO,2019-10-24-11-04-57,1,30,0.6702146460089422,left,both,biased-switch,105,20,right,right,0.202
MON1991WRNO,2019-10-24-11-04-57,1,31,0.5400680627669177,right,probe,ambiguous-switch,-1,40,right,right,0.197
MON1991WRNO,2019-10-24-11-04-57,1,32,0.5332143669730658,right,both,ambiguous-switch,101,40,right,right,0.228
MON1991WRNO,2019-10-24-11-04-57,1,33,0.6346232796352907,left,probe,ambiguous-switch,-1,0,right,right,0.248
MON1991WRNO,2019-10-24-11-04-57,1,34,0.6282772081255101,left,both,ambiguous-switch,94,0,right,right,0.25
MON1991WRNO,2019-10-24-11-04-57,1,35,0.5185302735858565,left,probe,biased-switch,-1,-20,right,right,0.29
MON1991WRNO,2019-10-24-11-04-57,1,36,0.6623933781085709,left,both,biased-switch,101,-20,right,right,0.243
MON1991WRNO,2019-10-24-11-04-57,1,37,0.5681073393955334,left,probe,ambiguous-switch,-1,20,right,right,0.22
MON1991WRNO,2019-10-24-11-04-57,1,38,0.6044994114871457,left,both,ambiguous-switch,93,20,right,right,0.231
MON1991WRNO,2019-10-24-11-04-57,1,39,0.5232932835430805,right,probe,ambiguous-switch,-1,5,right,right,0.285
MON1991WRNO,2019-10-24-11-04-57,1,40,0.5761179115959806,right,both,ambiguous-switch,105,5,right,right,0.244
MON1991WRNO,2019-10-24-11-04-57,1,41,0.5132603565815611,left,probe,ambiguous-switch,-1,-30,right,right,0.216
MON1991WRNO,2019-10-24-11-04-57,1,42,0.5220584811985732,left,both,ambiguous-switch,106,-30,right,right,1.151
MON1991WRNO,2019-10-24-11-04-57,1,43,0.5969974529479385,right,probe,ambiguous-switch,-1,10,right,right,0.277
MON1991WRNO,2019-10-24-11-04-57,1,44,0.5133928597695281,right,both,ambiguous-switch,109,10,right,right,0.204
MON1991WRNO,2019-10-24-11-04-57,1,45,0.6597933918492802,left,probe,biased-switch,-1,10,right,right,0.349
MON1991WRNO,2019-10-24-11-04-57,1,46,0.6261139872680372,left,both,biased-switch,93,10,right,right,0.254
MON1991WRNO,2019-10-24-11-04-57,1,47,0.6339293731152006,right,probe,ambiguous-switch,-1,30,right,right,0.236
MON1991WRNO,2019-10-24-11-04-57,1,48,0.5654139011401313,right,both,ambiguous-switch,110,30,right,right,0.257
MON1991WRNO,2019-10-24-11-04-57,1,49,0.6182571873683907,right,probe,biased-switch,-1,0,right,right,0.75
MON1991WRNO,2019-10-24-11-04-57,1,50,0.5466093924679585,right,both,biased-switch,95,0,right,right,0.246
MON1991WRNO,2019-10-24-11-04-57,1,51,0.6126611030993008,left,probe,biased-switch,-1,5,right,right,0.382
MON1991WRNO,2019-10-24-11-04-57,1,52,0.5246113825193566,left,both,biased-switch,97,5,right,left,0.814
MON1991WRNO,2019-10-24-11-04-57,1,53,0.6876371238903496,right,probe,ambiguous-switch,-1,-20,right,right,0.392
MON1991WRNO,2019-10-24-11-04-57,1,54,0.6052149017893886,right,both,ambiguous-switch,107,-20,right,right,0.472
MON1991WRNO,2019-10-24-11-04-57,1,55,0.6159333462171901,right,probe,biased-switch,-1,30,right,right,0.37
MON1991WRNO,2019-10-24-11-04-57,1,56,0.6085957466738416,right,both,biased-switch,106,30,right,right,0.315
MON1991WRNO,2019-10-24-11-04-57,1,57,0.560089019369113,left,probe,biased-switch,-1,40,right,right,0.329
MON1991WRNO,2019-10-24-11-04-57,1,58,0.6468687572792795,left,both,biased-switch,104,40,right,right,0.525
MON1991WRNO,2019-10-24-11-04-57,1,59,0.5819940559121094,right,probe,biased-switch,-1,-30,right,right,0.507
MON1991WRNO,2019-10-24-11-04-57,1,60,0.5921861520252109,right,both,biased-switch,95,-30,right,right,0.409
MON1991WRNO,2019-10-24-11-04-57,1,61,0.5383784202489217,right,probe,biased-switch,-1,-10,right,right,0.326
MON1991WRNO,2019-10-24-11-04-57,1,62,0.6401445118258164,right,both,biased-switch,93,-10,right,right,0.19
MON1991WRNO,2019-10-24-11-04-57,1,63,0.6433156237541164,right,probe,ambiguous-switch,-1,-10,right,right,0.321
MON1991WRNO,2019-10-24-11-04-57,1,64,0.5352131259818396,right,both,ambiguous-switch,108,-10,right,right,0.232
MON1991WRNO,2019-10-24-11-04-57,1,65,0.559942507980103,right,probe,biased-switch,-1,-5,right,right,0.322
MON1991WRNO,2019-10-24-11-04-57,1,66,0.6158340615097395,right,both,biased-switch,93,-5,right,right,0.257
MON1991WRNO,2019-10-24-11-04-57,1,67,0.5235452374177078,right,probe,ambiguous-switch,-1,-5,right,right,0.526
MON1991WRNO,2019-10-24-11-04-57,1,68,0.6867779007844533,right,both,ambiguous-switch,103,-5,right,right,0.188
MON1991WRNO,2019-10-24-11-04-57,1,69,0.6809922844667649,right,probe,biased-switch,-1,20,right,right,1.524
MON1991WRNO,2019-10-24-11-04-57,1,70,0.5712381839580778,right,both,biased-switch,95,20,right,right,0.234
MON1991WRNO,2019-10-24-11-04-57,1,71,0.6984659447670168,right,probe,ambiguous-switch,-1,40,right,right,0.248
MON1991WRNO,2019-10-24-11-04-57,1,72,0.5410652833846631,right,both,ambiguous-switch,110,40,right,right,0.248
MON1991WRNO,2019-10-24-11-04-57,1,73,0.6012664475223549,right,probe,ambiguous-switch,-1,0,right,right,0.28
MON1991WRNO,2019-10-24-11-04-57,1,74,0.5470218389638326,right,both,ambiguous-switch,93,0,right,right,0.243
MON1991WRNO,2019-10-24-11-04-57,1,75,0.5674578222482037,right,probe,biased-switch,-1,-20,right,right,0.227
MON1991WRNO,2019-10-24-11-04-57,1,76,0.5419585705514228,right,both,biased-switch,102,-20,right,right,0.193
MON1991WRNO,2019-10-24-11-04-57,1,77,0.559144459355881,left,probe,ambiguous-switch,-1,20,right,right,0.227
MON1991WRNO,2019-10-24-11-04-57,1,78,0.6370544471223307,left,both,ambiguous-switch,91,20,right,right,0.299
MON1991WRNO,2019-10-24-11-04-57,1,79,0.5386184323630092,left,probe,ambiguous-switch,-1,5,right,right,0.275
MON1991WRNO,2019-10-24-11-04-57,1,80,0.5478266087494083,left,both,ambiguous-switch,95,5,right,right,0.286
MON1991WRNO,2019-10-24-11-04-57,2,1,0.6167780962252584,right,probe,ambiguous-switch,-1,40,right,right,0.274
MON1991WRNO,2019-10-24-11-04-57,2,2,0.6508690284136747,right,both,ambiguous-switch,102,40,right,right,0.241
MON1991WRNO,2019-10-24-11-04-57,2,3,0.6413468412944451,left,probe,biased-switch,-1,20,right,right,0.316
MON1991WRNO,2019-10-24-11-04-57,2,4,0.6420126982666273,left,both,biased-switch,93,20,right,right,0.278
MON1991WRNO,2019-10-24-11-04-57,2,5,0.6483334615251372,left,probe,ambiguous-switch,-1,30,right,right,0.48
MON1991WRNO,2019-10-24-11-04-57,2,6,0.6015975247460387,left,both,ambiguous-switch,100,30,right,right,0.264
MON1991WRNO,2019-10-24-11-04-57,2,7,0.690014646586611,right,probe,ambiguous-switch,-1,10,right,right,0.576
MON1991WRNO,2019-10-24-11-04-57,2,8,0.591590064495513,right,both,ambiguous-switch,103,10,right,right,0.234
MON1991WRNO,2019-10-24-11-04-57,2,9,0.5768825037644552,right,probe,biased-switch,-1,10,right,right,0.225
MON1991WRNO,2019-10-24-11-04-57,2,10,0.6440799316800512,right,both,biased-switch,104,10,right,right,0.229
MON1991WRNO,2019-10-24-11-04-57,2,11,0.507329013882486,left,probe,biased-switch,-1,5,right,right,0.249
MON1991WRNO,2019-10-24-11-04-57,2,12,0.6193549125102247,left,both,biased-switch,108,5,right,left,0.274
MON1991WRNO,2019-10-24-11-04-57,2,13,0.6899624096289869,left,probe,ambiguous-switch,-1,-20,right,right,0.276
MON1991WRNO,2019-10-24-11-04-57,2,14,0.516627933165523,left,both,ambiguous-switch,92,-20,right,right,0.236
MON1991WRNO,2019-10-24-11-04-57,2,15,0.6235488074616911,left,probe,ambiguous-switch,-1,0,right,right,0.25
MON1991WRNO,2019-10-24-11-04-57,2,16,0.6622460041778866,left,both,ambiguous-switch,102,0,right,right,0.192
MON1991WRNO,2019-10-24-11-04-57,2,17,0.6101906089823029,left,probe,ambiguous-switch,-1,5,right,right,0.288
MON1991WRNO,2019-10-24-11-04-57,2,18,0.5917370239623188,left,both,ambiguous-switch,92,5,right,right,0.202
MON1991WRNO,2019-10-24-11-04-57,2,19,0.6248627421223026,left,probe,ambiguous-switch,-1,20,right,right,0.271
MON1991WRNO,2019-10-24-11-04-57,2,20,0.6765789831320748,left,both,ambiguous-switch,106,20,right,right,0.28
MON1991WRNO,2019-10-24-11-04-57,2,21,0.5187438364572351,left,probe,biased-switch,-1,40,right,right,0.395
MON1991WRNO,2019-10-24-11-04-57,2,22,0.5318521477101547,left,both,biased-switch,101,40,right,right,0.239
MON1991WRNO,2019-10-24-11-04-57,2,23,0.5306672174861224,left,probe,biased-switch,-1,-10,right,right,0.357
MON1991WRNO,2019-10-24-11-04-57,2,24,0.6062577698904371,left,both,biased-switch,109,-10,right,right,0.221
MON1991WRNO,2019-10-24-11-04-57,2,25,0.6299952999709516,left,probe,biased-switch,-1,-20,right,right,0.327
MON1991WRNO,2019-10-24-11-04-57,2,26,0.5834151668810417,left,both,biased-switch,93,-20,right,right,0.277
MON1991WRNO,2019-10-24-11-04-57,2,27,0.6352169597210525,right,probe,ambiguous-switch,-1,-10,right,right,0.311
MON1991WRNO,2019-10-24-11-04-57,2,28,0.6873457808659338,right,both,ambiguous-switch,104,-10,right,right,0.291
MON1991WRNO,2019-10-24-11-04-57,2,29,0.6664239708215668,left,probe,ambiguous-switch,-1,-5,right,right,0.329
MON1991WRNO,2019-10-24-11-04-57,2,30,0.5010250974663653,left,both,ambiguous-switch,99,-5,right,right,0.279
MON1991WRNO,2019-10-24-11-04-57,2,31,0.6937779132473347,left,probe,biased-switch,-1,-5,right,right,0.432
MON1991WRNO,2019-10-24-11-04-57,2,32,0.6675255320903902,left,both,biased-switch,98,-5,right,right,0.956
MON1991WRNO,2019-10-24-11-04-57,2,33,0.6209348256129738,right,probe,biased-switch,-1,30,right,right,0.374
MON1991WRNO,2019-10-24-11-04-57,2,34,0.6153414381139858,right,both,biased-switch,106,30,right,right,0.34
MON1991WRNO,2019-10-24-11-04-57,2,35,0.5297681633713187,right,probe,ambiguous-switch,-1,-30,right,right,0.356
MON1991WRNO,2019-10-24-11-04-57,2,36,0.6461676553875678,right,both,ambiguous-switch,106,-30,right,right,0.204
MON1991WRNO,2019-10-24-11-04-57,2,37,0.6516785374026393,left,probe,biased-switch,-1,0,right,right,0.388
MON1991WRNO,2019-10-24-11-04-57,2,38,0.5366714115118543,left,both,biased-switch,106,0,right,right,0.276
MON1991WRNO,2019-10-24-11-04-57,2,39,0.5890773355062454,right,probe,biased-switch,-1,-30,right,right,0.274
MON1991WRNO,2019-10-24-11-04-57,2,40,0.663193036052788,right,both,biased-switch,104,-30,right,right,0.287
MON1991WRNO,2019-10-24-11-04-57,2,41,0.6348060374298286,left,probe,ambiguous-switch,-1,40,right,right,0.289
MON1991WRNO,2019-10-24-11-04-57,2,42,0.5448979336571738,left,both,ambiguous-switch,108,40,right,right,0.294
MON1991WRNO,2019-10-24-11-04-57,2,43,0.5305166148695355,right,probe,biased-switch,-1,20,right,right,0.269
MON1991WRNO,2019-10-24-11-04-57,2,44,0.6005539129215272,right,both,biased-switch,105,20,right,right,0.275
MON1991WRNO,2019-10-24-11-04-57,2,45,0.5435205191620208,left,probe,ambiguous-switch,-1,30,right,right,0.451
MON1991WRNO,2019-10-24-11-04-57,2,46,0.6892959161734189,left,both,ambiguous-switch,97,30,right,left,0.355
MON1991WRNO,2019-10-24-11-04-57,2,47,0.6100746834642283,left,probe,ambiguous-switch,-1,10,right,right,0.311
MON1991WRNO,2019-10-24-11-04-57,2,48,0.5945799285748498,left,both,ambiguous-switch,95,10,right,left,0.628
MON1991WRNO,2019-10-24-11-04-57,2,49,0.6406151077979512,left,probe,biased-switch,-1,10,right,right,0.351
MON1991WRNO,2019-10-24-11-04-57,2,50,0.6098604272707117,left,both,biased-switch,92,10,right,right,0.374
MON1991WRNO,2019-10-24-11-04-57,2,51,0.6507016116504233,left,probe,biased-switch,-1,5,right,right,0.382
MON1991WRNO,2019-10-24-11-04-57,2,52,0.5247225439299138,left,both,biased-switch,93,5,right,left,0.368
MON1991WRNO,2019-10-24-11-04-57,2,53,0.566874571029356,left,probe,ambiguous-switch,-1,-20,right,right,0.453
MON1991WRNO,2019-10-24-11-04-57,2,54,0.6059319278954917,left,both,ambiguous-switch,104,-20,right,right,0.256
MON1991WRNO,2019-10-24-11-04-57,2,55,0.5020053764320156,right,probe,ambiguous-switch,-1,0,right,right,0.308
MON1991WRNO,2019-10-24-11-04-57,2,56,0.639334302030619,right,both,ambiguous-switch,96,0,right,right,0.283
MON1991WRNO,2019-10-24-11-04-57,2,57,0.6147872126622848,left,probe,ambiguous-switch,-1,5,right,right,0.35
MON1991WRNO,2019-10-24-11-04-57,2,58,0.6634098084885365,left,both,ambiguous-switch,94,5,right,left,0.263
MON1991WRNO,2019-10-24-11-04-57,2,59,0.5511134341087609,right,probe,ambiguous-switch,-1,20,right,right,0.269
MON1991WRNO,2019-10-24-11-04-57,2,60,0.6588310789243403,right,both,ambiguous-switch,93,20,right,right,0.028
MON1991WRNO,2019-10-24-11-04-57,2,61,0.6831059634112329,right,probe,biased-switch,-1,40,right,right,0.302
MON1991WRNO,2019-10-24-11-04-57,2,62,0.6145478303480096,right,both,biased-switch,100,40,right,right,0.255
MON1991WRNO,2019-10-24-11-04-57,2,63,0.6402227798850815,right,probe,biased-switch,-1,-10,right,right,0.33
MON1991WRNO,2019-10-24-11-04-57,2,64,0.5132442872262548,right,both,biased-switch,96,-10,right,right,0.287
MON1991WRNO,2019-10-24-11-04-57,2,65,0.5471722237101575,left,probe,biased-switch,-1,-20,right,right,0.32
MON1991WRNO,2019-10-24-11-04-57,2,66,0.5848822794913343,left,both,biased-switch,92,-20,right,right,0.322
MON1991WRNO,2019-10-24-11-04-57,2,67,0.6357986401374236,left,probe,ambiguous-switch,-1,-10,right,right,0.279
MON1991WRNO,2019-10-24-11-04-57,2,68,0.5298822656965385,left,both,ambiguous-switch,108,-10,right,left,3.302
MON1991WRNO,2019-10-24-11-04-57,2,69,0.613405388626896,left,probe,ambiguous-switch,-1,-5,right,right,1.022
MON1991WRNO,2019-10-24-11-04-57,2,70,0.5527881354107272,left,both,ambiguous-switch,105,-5,right,right,0.254
MON1991WRNO,2019-10-24-11-04-57,2,71,0.6504064884477777,right,probe,biased-switch,-1,-5,right,right,0.261
MON1991WRNO,2019-10-24-11-04-57,2,72,0.6179911772579417,right,both,biased-switch,101,-5,right,right,0.241
MON1991WRNO,2019-10-24-11-04-57,2,73,0.5246023455193738,left,probe,biased-switch,-1,30,right,right,0.429
MON1991WRNO,2019-10-24-11-04-57,2,74,0.6750189702267504,left,both,biased-switch,97,30,right,right,0.505
MON1991WRNO,2019-10-24-11-04-57,2,75,0.6367282471559297,left,probe,ambiguous-switch,-1,-30,right,right,0.512
MON1991WRNO,2019-10-24-11-04-57,2,76,0.6053367523812657,left,both,ambiguous-switch,104,-30,right,right,0.31
MON1991WRNO,2019-10-24-11-04-57,2,77,0.525477154109727,right,probe,biased-switch,-1,0,right,right,0.491
MON1991WRNO,2019-10-24-11-04-57,2,78,0.5206857268382965,right,both,biased-switch,92,0,right,right,0.317
MON1991WRNO,2019-10-24-11-04-57,2,79,0.5276056787464717,left,probe,biased-switch,-1,-30,right,right,0.239
MON1991WRNO,2019-10-24-11-04-57,2,80,0.6486942520090533,left,both,biased-switch,109,-30,right,right,0.447
MON1991WRNO,2019-10-24-11-04-57,3,1,0.5634874973894352,left,probe,biased-switch,-1,-10,right,right,0.483
MON1991WRNO,2019-10-24-11-04-57,3,2,0.5110258503145779,left,both,biased-switch,109,-10,right,right,0.252
MON1991WRNO,2019-10-24-11-04-57,3,3,0.5286803640866745,right,probe,biased-switch,-1,5,right,right,0.248
MON1991WRNO,2019-10-24-11-04-57,3,4,0.5937017989296267,right,both,biased-switch,107,5,right,right,0.218
MON1991WRNO,2019-10-24-11-04-57,3,5,0.6075807956508104,right,probe,biased-switch,-1,0,right,right,0.205
MON1991WRNO,2019-10-24-11-04-57,3,6,0.6084983819421297,right,both,biased-switch,101,0,right,right,0.195
MON1991WRNO,2019-10-24-11-04-57,3,7,0.5700811190646397,right,probe,ambiguous-switch,-1,-20,right,right,0.235
MON1991WRNO,2019-10-24-11-04-57,3,8,0.5106256836720767,right,both,ambiguous-switch,104,-20,right,right,0.269
MON1991WRNO,2019-10-24-11-04-57,3,9,0.652410418331069,right,probe,ambiguous-switch,-1,-30,right,right,0.062
MON1991WRNO,2019-10-24-11-04-57,3,10,0.6295948558158999,right,both,ambiguous-switch,96,-30,right,right,0.218
MON1991WRNO,2019-10-24-11-04-57,3,11,0.6546017764086991,right,probe,ambiguous-switch,-1,-5,right,right,0.239
MON1991WRNO,2019-10-24-11-04-57,3,12,0.6011388460418173,right,both,ambiguous-switch,110,-5,right,right,0.258
MON1991WRNO,2019-10-24-11-04-57,3,13,0.593985649074113,left,probe,ambiguous-switch,-1,0,right,right,0.476
MON1991WRNO,2019-10-24-11-04-57,3,14,0.524587356635747,left,both,ambiguous-switch,95,0,right,right,0.305
MON1991WRNO,2019-10-24-11-04-57,3,15,0.6303272972235425,right,probe,biased-switch,-1,-20,right,right,0.282
MON1991WRNO,2019-10-24-11-04-57,3,16,0.5399830148376439,right,both,biased-switch,96,-20,right,right,0.394
MON1991WRNO,2019-10-24-11-04-57,3,17,0.5504290069087316,left,probe,ambiguous-switch,-1,20,right,right,0.266
MON1991WRNO,2019-10-24-11-04-57,3,18,0.6747338488786412,left,both,ambiguous-switch,100,20,right,left,0.284
MON1991WRNO,2019-10-24-11-04-57,3,19,0.5536108801820907,left,probe,biased-switch,-1,30,right,right,0.273
MON1991WRNO,2019-10-24-11-04-57,3,20,0.5181506571331939,left,both,biased-switch,107,30,right,right,0.237
MON1991WRNO,2019-10-24-11-04-57,3,21,0.5927662566184496,left,probe,ambiguous-switch,-1,-10,right,right,0.264
MON1991WRNO,2019-10-24-11-04-57,3,22,0.6812690780237457,left,both,ambiguous-switch,97,-10,right,right,0.621
MON1991WRNO,2019-10-24-11-04-57,3,23,0.6314490315486531,left,probe,biased-switch,-1,10,right,right,0.547
MON1991WRNO,2019-10-24-11-04-57,3,24,0.6808714838031451,left,both,biased-switch,99,10,right,right,0.202
MON1991WRNO,2019-10-24-11-04-57,3,25,0.6985888918813327,left,probe,biased-switch,-1,-30,right,right,0.266
MON1991WRNO,2019-10-24-11-04-57,3,26,0.5735426679890218,left,both,biased-switch,106,-30,right,right,0.31
MON1991WRNO,2019-10-24-11-04-57,3,27,0.6799161263567804,right,probe,ambiguous-switch,-1,10,right,right,0.259
MON1991WRNO,2019-10-24-11-04-57,3,28,0.570726206533362,right,both,ambiguous-switch,98,10,right,right,0.269
MON1991WRNO,2019-10-24-11-04-57,3,29,0.6647104314388463,right,probe,ambiguous-switch,-1,40,right,right,0.29
MON1991WRNO,2019-10-24-11-04-57,3,30,0.504948671986906,right,both,ambiguous-switch,96,40,right,right,0.261
MON1991WRNO,2019-10-24-11-04-57,3,31,0.6583763865997855,right,probe,biased-switch,-1,40,right,right,0.234
MON1991WRNO,2019-10-24-11-04-57,3,32,0.6443914937486576,right,both,biased-switch,94,40,right,right,0.224
MON1991WRNO,2019-10-24-11-04-57,3,33,0.6521769128301265,left,probe,biased-switch,-1,20,right,right,0.285
MON1991WRNO,2019-10-24-11-04-57,3,34,0.655860021908765,left,both,biased-switch,100,20,right,left,0.296
MON1991WRNO,2019-10-24-11-04-57,3,35,0.6009749312378903,right,probe,ambiguous-switch,-1,30,right,right,0.267
MON1991WRNO,2019-10-24-11-04-57,3,36,0.5420661536285074,right,both,ambiguous-switch,90,30,right,right,0.252
MON1991WRNO,2019-10-24-11-04-57,3,37,0.6261298128799024,right,probe,ambiguous-switch,-1,5,right,right,0.268
MON1991WRNO,2019-10-24-11-04-57,3,38,0.6052290314666965,right,both,ambiguous-switch,95,5,right,right,0.247
MON1991WRNO,2019-10-24-11-04-57,3,39,0.5172977739441526,left,probe,biased-switch,-1,-5,right,right,0.204
MON1991WRNO,2019-10-24-11-04-57,3,40,0.5176528311792323,left,both,biased-switch,96,-5,right,left,0.389
MON1991WRNO,2019-10-24-11-04-57,3,41,0.6477427583671522,right,probe,biased-switch,-1,-10,right,right,0.273
MON1991WRNO,2019-10-24-11-04-57,3,42,0.5147752824212298,right,both,biased-switch,110,-10,right,right,0.241
MON1991WRNO,2019-10-24-11-04-57,3,43,0.6933188797208119,right,probe,biased-switch,-1,5,right,right,0.225
MON1991WRNO,2019-10-24-11-04-57,3,44,0.5640390827003787,right,both,biased-switch,93,5,right,right,0.193
MON1991WRNO,2019-10-24-11-04-57,3,45,0.6282673097800139,right,probe,biased-switch,-1,0,right,right,0.191
MON1991WRNO,2019-10-24-11-04-57,3,46,0.5159710301442991,right,both,biased-switch,92,0,right,right,0.231
MON1991WRNO,2019-10-24-11-04-57,3,47,0.6521047338914967,left,probe,ambiguous-switch,-1,-20,right,right,0.244
MON1991WRNO,2019-10-24-11-04-57,3,48,0.5715661435162638,left,both,ambiguous-switch,107,-20,right,right,0.191
MON1991WRNO,2019-10-24-11-04-57,3,49,0.6132178966263879,right,probe,ambiguous-switch,-1,-30,right,right,0.293
MON1991WRNO,2019-10-24-11-04-57,3,50,0.510712804694968,right,both,ambiguous-switch,104,-30,right,right,0.239
MON1991WRNO,2019-10-24-11-04-57,3,51,0.6899929362197665,left,probe,ambiguous-switch,-1,-5,right,right,0.185
MON1991WRNO,2019-10-24-11-04-57,3,52,0.6640984494048096,left,both,ambiguous-switch,103,-5,right,right,0.236
MON1991WRNO,2019-10-24-11-04-57,3,53,0.5538604945993557,right,probe,ambiguous-switch,-1,0,right,right,0.422
MON1991WRNO,2019-10-24-11-04-57,3,54,0.5635250334442773,right,both,ambiguous-switch,94,0,right,right,0.248
MON1991WRNO,2019-10-24-11-04-57,3,55,0.631993999540693,left,probe,biased-switch,-1,-20,right,right,0.253
MON1991WRNO,2019-10-24-11-04-57,3,56,0.5228742721041773,left,both,biased-switch,94,-20,right,right,0.231
MON1991WRNO,2019-10-24-11-04-57,3,57,0.5322999507599896,right,probe,ambiguous-switch,-1,20,right,right,0.278
MON1991WRNO,2019-10-24-11-04-57,3,58,0.5859148854463797,right,both,ambiguous-switch,93,20,right,right,0.052
MON1991WRNO,2019-10-24-11-04-57,3,59,0.5535546325344,left,probe,biased-switch,-1,30,right,right,0.574
MON1991WRNO,2019-10-24-11-04-57,3,60,0.6198836630398051,left,both,biased-switch,101,30,right,right,0.274
MON1991WRNO,2019-10-24-11-04-57,3,61,0.6740380887725467,left,probe,ambiguous-switch,-1,-10,right,right,0.237
MON1991WRNO,2019-10-24-11-04-57,3,62,0.5889820540677106,left,both,ambiguous-switch,104,-10,right,right,0.181
MON1991WRNO,2019-10-24-11-04-57,3,63,0.6136358538592794,left,probe,biased-switch,-1,10,right,right,0.275
MON1991WRNO,2019-10-24-11-04-57,3,64,0.6215834323479347,left,both,biased-switch,96,10,right,left,0.347
MON1991WRNO,2019-10-24-11-04-57,3,65,0.6080682002079346,left,probe,biased-switch,-1,-30,left,left,0.352
MON1991WRNO,2019-10-24-11-04-57,3,66,0.5645237094521336,left,both,biased-switch,92,-30,left,left,0.268
MON1991WRNO,2019-10-24-11-04-57,3,67,0.6172451544691865,left,probe,ambiguous-switch,-1,10,right,right,0.258
MON1991WRNO,2019-10-24-11-04-57,3,68,0.6175182277213961,left,both,ambiguous-switch,98,10,right,right,0.352
MON1991WRNO,2019-10-24-11-04-57,3,69,0.6442390467003845,right,probe,ambiguous-switch,-1,40,right,right,0.237
MON1991WRNO,2019-10-24-11-04-57,3,70,0.6725986678547102,right,both,ambiguous-switch,91,40,right,right,0.306
MON1991WRNO,2019-10-24-11-04-57,3,71,0.6474549390936644,right,probe,biased-switch,-1,40,right,right,0.097
MON1991WRNO,2019-10-24-11-04-57,3,72,0.625161150487659,right,both,biased-switch,95,40,right,right,0.055
MON1991WRNO,2019-10-24-11-04-57,3,73,0.5024517536248446,right,probe,biased-switch,-1,20,right,right,0.245
MON1991WRNO,2019-10-24-11-04-57,3,74,0.5946080390703375,right,both,biased-switch,101,20,right,right,0.22
MON1991WRNO,2019-10-24-11-04-57,3,75,0.5338396394288879,right,probe,ambiguous-switch,-1,30,right,right,0.173
MON1991WRNO,2019-10-24-11-04-57,3,76,0.5914767633227904,right,both,ambiguous-switch,103,30,right,right,0.44
MON1991WRNO,2019-10-24-11-04-57,3,77,0.5347459654907255,right,probe,ambiguous-switch,-1,5,right,right,0.286
MON1991WRNO,2019-10-24-11-04-57,3,78,0.6364954038703412,right,both,ambiguous-switch,99,5,right,right,1.879
MON1991WRNO,2019-10-24-11-04-57,3,79,0.6429321363954283,right,probe,biased-switch,-1,-5,right,right,0.381
MON1991WRNO,2019-10-24-11-04-57,3,80,0.6200850209345655,right,both,biased-switch,106,-5,right,right,0.293
MON1991WRNO,2019-10-24-11-04-57,4,1,0.5199503584694797,left,probe,ambiguous-switch,-1,5,right,right,0.402
MON1991WRNO,2019-10-24-11-04-57,4,2,0.5146136536117928,left,both,ambiguous-switch,106,5,right,right,0.248
MON1991WRNO,2019-10-24-11-04-57,4,3,0.5539778244654006,left,probe,biased-switch,-1,-20,right,right,0.296
MON1991WRNO,2019-10-24-11-04-57,4,4,0.6136613383941022,left,both,biased-switch,97,-20,right,right,0.313
MON1991WRNO,2019-10-24-11-04-57,4,5,0.5166619219227911,right,probe,ambiguous-switch,-1,10,right,right,0.338
MON1991WRNO,2019-10-24-11-04-57,4,6,0.6674039722662813,right,both,ambiguous-switch,110,10,right,right,0.283
MON1991WRNO,2019-10-24-11-04-57,4,7,0.6376928213007473,right,probe,biased-switch,-1,30,right,right,0.26
MON1991WRNO,2019-10-24-11-04-57,4,8,0.686798715660425,right,both,biased-switch,93,30,right,right,0.253
MON1991WRNO,2019-10-24-11-04-57,4,9,0.5855856826421608,right,probe,ambiguous-switch,-1,-5,right,right,0.36
MON1991WRNO,2019-10-24-11-04-57,4,10,0.6411316386881942,right,both,ambiguous-switch,98,-5,right,right,0.221
MON1991WRNO,2019-10-24-11-04-57,4,11,0.5302261611982811,right,probe,biased-switch,-1,10,right,right,0.254
MON1991WRNO,2019-10-24-11-04-57,4,12,0.6858185888074094,right,both,biased-switch,94,10,right,right,0.197
MON1991WRNO,2019-10-24-11-04-57,4,13,0.5505120408164422,left,probe,biased-switch,-1,20,right,right,0.68
MON1991WRNO,2019-10-24-11-04-57,4,14,0.6514590442747559,left,both,biased-switch,105,20,right,right,0.293
MON1991WRNO,2019-10-24-11-04-57,4,15,0.6659239693394337,left,probe,ambiguous-switch,-1,0,right,right,0.324
MON1991WRNO,2019-10-24-11-04-57,4,16,0.5116799205590665,left,both,ambiguous-switch,106,0,right,right,0.289
MON1991WRNO,2019-10-24-11-04-57,4,17,0.6289565574529777,right,probe,biased-switch,-1,-5,right,right,0.29
MON1991WRNO,2019-10-24-11-04-57,4,18,0.6058391657221458,right,both,biased-switch,103,-5,right,right,0.09
MON1991WRNO,2019-10-24-11-04-57,4,19,0.5596567002374275,right,probe,ambiguous-switch,-1,-20,right,right,0.055
MON1991WRNO,2019-10-24-11-04-57,4,20,0.6767661490982315,right,both,ambiguous-switch,95,-20,right,right,0.301
MON1991WRNO,2019-10-24-11-04-57,4,21,0.6017594057134953,left,probe,biased-switch,-1,-10,right,right,0.299
MON1991WRNO,2019-10-24-11-04-57,4,22,0.6694969503131762,left,both,biased-switch,94,-10,right,right,0.235
MON1991WRNO,2019-10-24-11-04-57,4,23,0.599639324417142,right,probe,biased-switch,-1,-30,right,right,0.271
MON1991WRNO,2019-10-24-11-04-57,4,24,0.6327119172123012,right,both,biased-switch,96,-30,right,right,0.117
MON1991WRNO,2019-10-24-11-04-57,4,25,0.6685604802104933,right,probe,ambiguous-switch,-1,20,right,right,0.118
MON1991WRNO,2019-10-24-11-04-57,4,26,0.5733666408382143,right,both,ambiguous-switch,103,20,right,right,0.243
MON1991WRNO,2019-10-24-11-04-57,4,27,0.594249384326033,right,probe,ambiguous-switch,-1,40,right,right,0.354
MON1991WRNO,2019-10-24-11-04-57,4,28,0.5185222532484522,right,both,ambiguous-switch,90,40,right,right,0.244
MON1991WRNO,2019-10-24-11-04-57,4,29,0.5045727772130482,left,probe,biased-switch,-1,0,right,right,0.303
MON1991WRNO,2019-10-24-11-04-57,4,30,0.6639412124139674,left,both,biased-switch,98,0,right,right,0.161
MON1991WRNO,2019-10-24-11-04-57,4,31,0.6112528413281259,right,probe,biased-switch,-1,5,right,right,0.3
MON1991WRNO,2019-10-24-11-04-57,4,32,0.6023530383014144,right,both,biased-switch,103,5,right,right,0.223
MON1991WRNO,2019-10-24-11-04-57,4,33,0.5762660163367426,left,probe,ambiguous-switch,-1,-30,right,right,0.279
MON1991WRNO,2019-10-24-11-04-57,4,34,0.6952420038123416,left,both,ambiguous-switch,108,-30,right,right,0.233
MON1991WRNO,2019-10-24-11-04-57,4,35,0.6890184337693619,right,probe,ambiguous-switch,-1,-10,right,right,0.234
MON1991WRNO,2019-10-24-11-04-57,4,36,0.5770617814548029,right,both,ambiguous-switch,99,-10,right,right,0.027
MON1991WRNO,2019-10-24-11-04-57,4,37,0.6889254326189616,left,probe,biased-switch,-1,40,right,right,0.214
MON1991WRNO,2019-10-24-11-04-57,4,38,0.5830595984302052,left,both,biased-switch,91,40,right,right,0.042
MON1991WRNO,2019-10-24-11-04-57,4,39,0.5871040394618728,left,probe,ambiguous-switch,-1,30,right,right,0.262
MON1991WRNO,2019-10-24-11-04-57,4,40,0.6821157993316349,left,both,ambiguous-switch,94,30,right,right,0.219
MON1991WRNO,2019-10-24-11-04-57,4,41,0.6126175470723131,right,probe,ambiguous-switch,-1,5,right,right,0.238
MON1991WRNO,2019-10-24-11-04-57,4,42,0.622502293564667,right,both,ambiguous-switch,102,5,right,right,0.084
MON1991WRNO,2019-10-24-11-04-57,4,43,0.687439085676883,left,probe,biased-switch,-1,-20,right,right,0.254
MON1991WRNO,2019-10-24-11-04-57,4,44,0.542948946772784,left,both,biased-switch,104,-20,right,right,0.327
MON1991WRNO,2019-10-24-11-04-57,4,45,0.5568925603185129,right,probe,ambiguous-switch,-1,10,right,right,0.347
MON1991WRNO,2019-10-24-11-04-57,4,46,0.6981647444778601,right,both,ambiguous-switch,94,10,right,right,0.244
MON1991WRNO,2019-10-24-11-04-57,4,47,0.6302491304915049,left,probe,biased-switch,-1,30,right,right,0.427
MON1991WRNO,2019-10-24-11-04-57,4,48,0.5870965274148225,left,both,biased-switch,94,30,right,right,1.886
MON1991WRNO,2019-10-24-11-04-57,4,49,0.5711298352264477,left,probe,ambiguous-switch,-1,-5,right,right,3.745
MON1991WRNO,2019-10-24-11-04-57,4,50,0.5921981259714167,left,both,ambiguous-switch,96,-5,right,right,0.244
MON1991WRNO,2019-10-24-11-04-57,4,51,0.5762371375213241,right,probe,biased-switch,-1,10,right,right,0.227
MON1991WRNO,2019-10-24-11-04-57,4,52,0.6994969502009543,right,both,biased-switch,104,10,right,right,1.714
MON1991WRNO,2019-10-24-11-04-57,4,53,0.6516315722656566,right,probe,biased-switch,-1,20,right,right,0.393
MON1991WRNO,2019-10-24-11-04-57,4,54,0.555808505089753,right,both,biased-switch,93,20,right,right,0.426
MON1991WRNO,2019-10-24-11-04-57,4,55,0.6150944440758404,right,probe,ambiguous-switch,-1,0,right,right,0.327
MON1991WRNO,2019-10-24-11-04-57,4,56,0.5937458165000581,right,both,ambiguous-switch,103,0,right,right,0.356
MON1991WRNO,2019-10-24-11-04-57,4,57,0.68495922544262,right,probe,biased-switch,-1,-5,right,right,0.515
MON1991WRNO,2019-10-24-11-04-57,4,58,0.5761782882529914,right,both,biased-switch,97,-5,right,right,0.27
MON1991WRNO,2019-10-24-11-04-57,4,59,0.6350560253111818,right,probe,ambiguous-switch,-1,-20,right,right,0.285
MON1991WRNO,2019-10-24-11-04-57,4,60,0.6692876863355034,right,both,ambiguous-switch,100,-20,right,right,0.222
MON1991WRNO,2019-10-24-11-04-57,4,61,0.6251514387823511,left,probe,biased-switch,-1,-10,right,right,0.427
MON1991WRNO,2019-10-24-11-04-57,4,62,0.5702667966070555,left,both,biased-switch,93,-10,right,left,0.422
MON1991WRNO,2019-10-24-11-04-57,4,63,0.6205954537491667,right,probe,biased-switch,-1,-30,right,right,0.252
MON1991WRNO,2019-10-24-11-04-57,4,64,0.5113153173700584,right,both,biased-switch,102,-30,right,right,0.191
MON1991WRNO,2019-10-24-11-04-57,4,65,0.6137865653176082,right,probe,ambiguous-switch,-1,20,right,right,0.238
MON1991WRNO,2019-10-24-11-04-57,4,66,0.6255791811921687,right,both,ambiguous-switch,100,20,right,right,0.075
MON1991WRNO,2019-10-24-11-04-57,4,67,0.5213051088096874,left,probe,ambiguous-switch,-1,40,right,right,0.475
MON1991WRNO,2019-10-24-11-04-57,4,68,0.5750416559525311,left,both,ambiguous-switch,106,40,right,left,0.333
MON1991WRNO,2019-10-24-11-04-57,4,69,0.668425524725334,left,probe,biased-switch,-1,0,right,right,0.292
MON1991WRNO,2019-10-24-11-04-57,4,70,0.679326270525725,left,both,biased-switch,96,0,right,left,0.232
MON1991WRNO,2019-10-24-11-04-57,4,71,0.6022144973732836,left,probe,biased-switch,-1,5,right,right,0.241
MON1991WRNO,2019-10-24-11-04-57,4,72,0.5538553794562624,left,both,biased-switch,93,5,right,left,0.26
MON1991WRNO,2019-10-24-11-04-57,4,73,0.6797558550561149,right,probe,ambiguous-switch,-1,-30,right,right,0.224
MON1991WRNO,2019-10-24-11-04-57,4,74,0.6426191967792255,right,both,ambiguous-switch,107,-30,right,right,0.232
MON1991WRNO,2019-10-24-11-04-57,4,75,0.609151669411423,right,probe,ambiguous-switch,-1,-10,right,right,0.148
MON1991WRNO,2019-10-24-11-04-57,4,76,0.5502337370395455,right,both,ambiguous-switch,96,-10,right,right,0.219
MON1991WRNO,2019-10-24-11-04-57,4,77,0.6520717642952316,left,probe,biased-switch,-1,40,right,right,0.21
MON1991WRNO,2019-10-24-11-04-57,4,78,0.5503631930989467,left,both,biased-switch,95,40,right,right,0.24
MON1991WRNO,2019-10-24-11-04-57,4,79,0.5654590076855172,left,probe,ambiguous-switch,-1,30,right,right,0.373
MON1991WRNO,2019-10-24-11-04-57,4,80,0.6885373157836827,left,both,ambiguous-switch,107,30,right,right,0.254
MON1991WRNO,2019-10-24-11-04-57,5,1,0.6505777322154799,right,probe,biased-switch,-1,40,right,right,0.424
MON1991WRNO,2019-10-24-11-04-57,5,2,0.5771784864313598,right,both,biased-switch,95,40,right,left,2.833
MON1991WRNO,2019-10-24-11-04-57,5,3,0.5754825172692345,right,probe,ambiguous-switch,-1,0,right,right,0.468
MON1991WRNO,2019-10-24-11-04-57,5,4,0.5287241461432546,right,both,ambiguous-switch,98,0,right,right,0.241
MON1991WRNO,2019-10-24-11-04-57,5,5,0.6301458008832251,right,probe,ambiguous-switch,-1,-30,right,right,0.237
MON1991WRNO,2019-10-24-11-04-57,5,6,0.5709920863434221,right,both,ambiguous-switch,106,-30,right,right,0.238
MON1991WRNO,2019-10-24-11-04-57,5,7,0.5107562444912699,right,probe,ambiguous-switch,-1,10,right,right,0.238
MON1991WRNO,2019-10-24-11-04-57,5,8,0.64248186203673,right,both,ambiguous-switch,91,10,right,right,0.235
MON1991WRNO,2019-10-24-11-04-57,5,9,0.5890107538429021,left,probe,biased-switch,-1,-5,right,right,0.312
MON1991WRNO,2019-10-24-11-04-57,5,10,0.6919875201799188,left,both,biased-switch,100,-5,right,right,0.239
MON1991WRNO,2019-10-24-11-04-57,5,11,0.5538161859970526,right,probe,ambiguous-switch,-1,-20,right,right,0.238
MON1991WRNO,2019-10-24-11-04-57,5,12,0.6320299580999554,right,both,ambiguous-switch,106,-20,right,right,0.036
MON1991WRNO,2019-10-24-11-04-57,5,13,0.572855325145312,right,probe,biased-switch,-1,20,right,right,0.223
MON1991WRNO,2019-10-24-11-04-57,5,14,0.5710048722503638,right,both,biased-switch,96,20,right,right,0.288
MON1991WRNO,2019-10-24-11-04-57,5,15,0.5019379284108562,right,probe,ambiguous-switch,-1,-5,right,right,0.252
MON1991WRNO,2019-10-24-11-04-57,5,16,0.5127594509224352,right,both,ambiguous-switch,104,-5,right,right,0.256
MON1991WRNO,2019-10-24-11-04-57,5,17,0.5608490037181646,right,probe,ambiguous-switch,-1,5,right,right,0.237
MON1991WRNO,2019-10-24-11-04-57,5,18,0.5004741495782085,right,both,ambiguous-switch,99,5,right,right,0.252
MON1991WRNO,2019-10-24-11-04-57,5,19,0.544585822275593,left,probe,biased-switch,-1,-10,right,right,0.248
MON1991WRNO,2019-10-24-11-04-57,5,20,0.6438682110192436,left,both,biased-switch,99,-10,right,left,0.226
MON1991WRNO,2019-10-24-11-04-57,5,21,0.6041345824074368,right,probe,biased-switch,-1,-20,right,right,0.173
MON1991WRNO,2019-10-24-11-04-57,5,22,0.5985015409751826,right,both,biased-switch,98,-20,right,right,0.249
MON1991WRNO,2019-10-24-11-04-57,5,23,0.5648449693497517,left,probe,ambiguous-switch,-1,-10,right,right,0.25
MON1991WRNO,2019-10-24-11-04-57,5,24,0.5622338211890543,left,both,ambiguous-switch,100,-10,right,right,0.0
MON1991WRNO,2019-10-24-11-04-57,5,25,0.5818839105456465,left,probe,ambiguous-switch,-1,30,right,right,0.293
MON1991WRNO,2019-10-24-11-04-57,5,26,0.6973358645944889,left,both,ambiguous-switch,93,30,right,right,0.303
MON1991WRNO,2019-10-24-11-04-57,5,27,0.6434613212729933,right,probe,biased-switch,-1,10,right,right,0.742
MON1991WRNO,2019-10-24-11-04-57,5,28,0.5443869661748817,right,both,biased-switch,106,10,right,right,0.244
MON1991WRNO,2019-10-24-11-04-57,5,29,0.6813327003186188,left,probe,biased-switch,-1,0,right,right,0.225
MON1991WRNO,2019-10-24-11-04-57,5,30,0.5853553667336939,left,both,biased-switch,110,0,right,left,0.214
MON1991WRNO,2019-10-24-11-04-57,5,31,0.5026316431878856,right,probe,ambiguous-switch,-1,40,right,right,0.343
MON1991WRNO,2019-10-24-11-04-57,5,32,0.5731067636242072,right,both,ambiguous-switch,104,40,right,right,0.161
MON1991WRNO,2019-10-24-11-04-57,5,33,0.5813874220966033,right,probe,biased-switch,-1,-30,right,right,0.49
MON1991WRNO,2019-10-24-11-04-57,5,34,0.6381641369922296,right,both,biased-switch,110,-30,right,right,0.362
MON1991WRNO,2019-10-24-11-04-57,5,35,0.5849324173003847,left,probe,ambiguous-switch,-1,20,right,right,0.554
MON1991WRNO,2019-10-24-11-04-57,5,36,0.5994768560817635,left,both,ambiguous-switch,107,20,right,right,0.422
MON1991WRNO,2019-10-24-11-04-57,5,37,0.6762785835795863,right,probe,biased-switch,-1,5,right,right,0.4
MON1991WRNO,2019-10-24-11-04-57,5,38,0.6060335145377149,right,both,biased-switch,97,5,right,right,0.109
MON1991WRNO,2019-10-24-11-04-57,5,39,0.5308637542568745,left,probe,biased-switch,-1,30,right,right,0.233
MON1991WRNO,2019-10-24-11-04-57,5,40,0.5505475225956371,left,both,biased-switch,107,30,right,left,0.284
MON1991WRNO,2019-10-24-11-04-57,5,41,0.5310173751166127,right,probe,biased-switch,-1,40,right,right,0.223
MON1991WRNO,2019-10-24-11-04-57,5,42,0.6639397084463078,right,both,biased-switch,92,40,right,right,0.233
MON1991WRNO,2019-10-24-11-04-57,5,43,0.5381430795749336,right,probe,ambiguous-switch,-1,0,right,right,0.273
MON1991WRNO,2019-10-24-11-04-57,5,44,0.6611094032210539,right,both,ambiguous-switch,110,0,right,right,0.296
MON1991WRNO,2019-10-24-11-04-57,5,45,0.6675246855498174,left,probe,ambiguous-switch,-1,-30,right,right,0.572
MON1991WRNO,2019-10-24-11-04-57,5,46,0.6986605403027045,left,both,ambiguous-switch,108,-30,right,right,0.131
MON1991WRNO,2019-10-24-11-04-57,5,47,0.5497137440647234,right,probe,ambiguous-switch,-1,10,right,right,0.193
MON1991WRNO,2019-10-24-11-04-57,5,48,0.5328585053203676,right,both,ambiguous-switch,107,10,right,right,0.066
MON1991WRNO,2019-10-24-11-04-57,5,49,0.5748207749886479,left,probe,biased-switch,-1,-5,right,right,0.267
MON1991WRNO,2019-10-24-11-04-57,5,50,0.5056446274757623,left,both,biased-switch,104,-5,right,left,0.273
MON1991WRNO,2019-10-24-11-04-57,5,51,0.5750157272473502,right,probe,ambiguous-switch,-1,-20,right,right,0.271
MON1991WRNO,2019-10-24-11-04-57,5,52,0.6274584278405061,right,both,ambiguous-switch,102,-20,right,right,0.084
MON1991WRNO,2019-10-24-11-04-57,5,53,0.5253683799583945,left,probe,biased-switch,-1,20,right,right,0.365
MON1991WRNO,2019-10-24-11-04-57,5,54,0.5131183777665567,left,both,biased-switch,98,20,right,left,0.262
MON1991WRNO,2019-10-24-11-04-57,5,55,0.6300407117089818,right,probe,ambiguous-switch,-1,-5,right,right,0.271
MON1991WRNO,2019-10-24-11-04-57,5,56,0.6621775598217194,right,both,ambiguous-switch,108,-5,right,right,0.207
MON1991WRNO,2019-10-24-11-04-57,5,57,0.5285815320087344,right,probe,ambiguous-switch,-1,5,right,right,0.216
MON1991WRNO,2019-10-24-11-04-57,5,58,0.5837575450564574,right,both,ambiguous-switch,109,5,right,right,1.672
MON1991WRNO,2019-10-24-11-04-57,5,59,0.579989780557056,left,probe,biased-switch,-1,-10,right,right,0.426
MON1991WRNO,2019-10-24-11-04-57,5,60,0.6526272985686341,left,both,biased-switch,105,-10,right,left,0.249
MON1991WRNO,2019-10-24-11-04-57,5,61,0.5555149140882667,left,probe,biased-switch,-1,-20,left,left,0.289
MON1991WRNO,2019-10-24-11-04-57,5,62,0.6205064962703386,left,both,biased-switch,101,-20,left,right,0.294
MON1991WRNO,2019-10-24-11-04-57,5,63,0.6933562863057225,right,probe,ambiguous-switch,-1,-10,right,right,0.243
MON1991WRNO,2019-10-24-11-04-57,5,64,0.6672959919038379,right,both,ambiguous-switch,104,-10,right,right,0.282
MON1991WRNO,2019-10-24-11-04-57,5,65,0.6880046031084988,right,probe,ambiguous-switch,-1,30,right,right,0.249
MON1991WRNO,2019-10-24-11-04-57,5,66,0.6132030391488406,right,both,ambiguous-switch,107,30,right,right,0.191
MON1991WRNO,2019-10-24-11-04-57,5,67,0.5507538146170559,left,probe,biased-switch,-1,10,right,right,0.355
MON1991WRNO,2019-10-24-11-04-57,5,68,0.5554418018483129,left,both,biased-switch,90,10,right,left,0.292
MON1991WRNO,2019-10-24-11-04-57,5,69,0.6154982009123193,right,probe,biased-switch,-1,0,right,right,0.312
MON1991WRNO,2019-10-24-11-04-57,5,70,0.5178723006146954,right,both,biased-switch,103,0,right,right,0.289
MON1991WRNO,2019-10-24-11-04-57,5,71,0.5123479248010887,left,probe,ambiguous-switch,-1,40,right,right,0.262
MON1991WRNO,2019-10-24-11-04-57,5,72,0.6030342723140589,left,both,ambiguous-switch,98,40,right,left,0.253
MON1991WRNO,2019-10-24-11-04-57,5,73,0.6413688394999687,left,probe,biased-switch,-1,-30,right,right,0.289
MON1991WRNO,2019-10-24-11-04-57,5,74,0.539999948024248,left,both,biased-switch,98,-30,right,right,0.178
MON1991WRNO,2019-10-24-11-04-57,5,75,0.5185240272496849,left,probe,ambiguous-switch,-1,20,right,right,0.319
MON1991WRNO,2019-10-24-11-04-57,5,76,0.664991257555952,left,both,ambiguous-switch,106,20,right,right,0.332
MON1991WRNO,2019-10-24-11-04-57,5,77,0.6552824548083582,right,probe,biased-switch,-1,5,right,right,0.329
MON1991WRNO,2019-10-24-11-04-57,5,78,0.6456203190845733,right,both,biased-switch,100,5,right,right,0.26
MON1991WRNO,2019-10-24-11-04-57,5,79,0.6474879680344674,left,probe,biased-switch,-1,30,right,right,0.293
MON1991WRNO,2019-10-24-11-04-57,5,80,0.5445933584626521,left,both,biased-switch,108,30,right,right,0.232
MON1991WRNO,2019-10-24-11-04-57,6,1,0.5067320582776439,left,probe,ambiguous-switch,-1,30,right,right,0.314
MON1991WRNO,2019-10-24-11-04-57,6,2,0.6152009611732173,left,both,ambiguous-switch,91,30,right,right,0.286
MON1991WRNO,2019-10-24-11-04-57,6,3,0.5455822270394115,left,probe,ambiguous-switch,-1,5,right,right,0.419
MON1991WRNO,2019-10-24-11-04-57,6,4,0.6206113164879385,left,both,ambiguous-switch,102,5,right,right,0.216
MON1991WRNO,2019-10-24-11-04-57,6,5,0.6884420684100193,left,probe,ambiguous-switch,-1,10,right,right,0.327
MON1991WRNO,2019-10-24-11-04-57,6,6,0.5773019780196476,left,both,ambiguous-switch,94,10,right,right,0.256
MON1991WRNO,2019-10-24-11-04-57,6,7,0.5999743673198642,right,probe,biased-switch,-1,5,right,right,0.272
MON1991WRNO,2019-10-24-11-04-57,6,8,0.6457258664623606,right,both,biased-switch,102,5,right,right,0.187
MON1991WRNO,2019-10-24-11-04-57,6,9,0.6725156532233716,left,probe,ambiguous-switch,-1,-5,right,right,0.267
MON1991WRNO,2019-10-24-11-04-57,6,10,0.6262203973587924,left,both,ambiguous-switch,99,-5,right,right,0.106
MON1991WRNO,2019-10-24-11-04-57,6,11,0.6585219897967636,right,probe,biased-switch,-1,-20,right,right,0.258
MON1991WRNO,2019-10-24-11-04-57,6,12,0.6926275887089297,right,both,biased-switch,109,-20,right,right,1.618
MON1991WRNO,2019-10-24-11-04-57,6,13,0.6078276271942306,right,probe,ambiguous-switch,-1,-10,right,right,0.521
MON1991WRNO,2019-10-24-11-04-57,6,14,0.6645647219063214,right,both,ambiguous-switch,94,-10,right,right,0.238
MON1991WRNO,2019-10-24-11-04-57,6,15,0.5557386688775986,left,probe,ambiguous-switch,-1,20,right,right,0.171
MON1991WRNO,2019-10-24-11-04-57,6,16,0.6057639144529505,left,both,ambiguous-switch,100,20,right,right,0.048
MON1991WRNO,2019-10-24-11-04-57,6,17,0.6431779532421781,right,probe,biased-switch,-1,40,right,right,0.21
MON1991WRNO,2019-10-24-11-04-57,6,18,0.6857393434046667,right,both,biased-switch,90,40,right,right,0.267
MON1991WRNO,2019-10-24-11-04-57,6,19,0.6750305330205615,left,probe,ambiguous-switch,-1,-20,right,right,0.261
MON1991WRNO,2019-10-24-11-04-57,6,20,0.6411855067442578,left,both,ambiguous-switch,108,-20,right,right,0.205
MON1991WRNO,2019-10-24-11-04-57,6,21,0.6841004781577851,right,probe,biased-switch,-1,0,right,right,0.221
MON1991WRNO,2019-10-24-11-04-57,6,22,0.6448791458461,right,both,biased-switch,100,0,right,right,0.267
MON1991WRNO,2019-10-24-11-04-57,6,23,0.5979821705119717,right,probe,biased-switch,-1,20,right,right,0.225
MON1991WRNO,2019-10-24-11-04-57,6,24,0.6552334782700737,right,both,biased-switch,90,20,right,right,0.245
MON1991WRNO,2019-10-24-11-04-57,6,25,0.511566280709719,right,probe,biased-switch,-1,30,right,right,0.223
MON1991WRNO,2019-10-24-11-04-57,6,26,0.614534552957879,right,both,biased-switch,95,30,right,right,0.235
MON1991WRNO,2019-10-24-11-04-57,6,27,0.6395337921914548,left,probe,biased-switch,-1,-10,right,right,0.262
MON1991WRNO,2019-10-24-11-04-57,6,28,0.5891003257844691,left,both,biased-switch,105,-10,right,left,0.288
MON1991WRNO,2019-10-24-11-04-57,6,29,0.5316033962105474,left,probe,biased-switch,-1,-30,right,right,0.279
MON1991WRNO,2019-10-24-11-04-57,6,30,0.6430730067303584,left,both,biased-switch,94,-30,right,left,0.28
MON1991WRNO,2019-10-24-11-04-57,6,31,0.6277452730663456,left,probe,ambiguous-switch,-1,0,left,left,0.252
MON1991WRNO,2019-10-24-11-04-57,6,32,0.6151745267955708,left,both,ambiguous-switch,100,0,left,left,0.05
MON1991WRNO,2019-10-24-11-04-57,6,33,0.5542853890205718,left,probe,biased-switch,-1,10,right,right,0.246
MON1991WRNO,2019-10-24-11-04-57,6,34,0.62158778242618,left,both,biased-switch,98,10,right,left,0.2
MON1991WRNO,2019-10-24-11-04-57,6,35,0.5174614699342508,left,probe,biased-switch,-1,-5,left,left,0.262
MON1991WRNO,2019-10-24-11-04-57,6,36,0.5682781766133959,left,both,biased-switch,96,-5,left,right,0.022
MON1991WRNO,2019-10-24-11-04-57,6,37,0.6270278164843716,right,probe,ambiguous-switch,-1,40,right,right,0.22
MON1991WRNO,2019-10-24-11-04-57,6,38,0.5020366066971386,right,both,ambiguous-switch,108,40,right,left,0.271
MON1991WRNO,2019-10-24-11-04-57,6,39,0.5410083605299901,left,probe,ambiguous-switch,-1,-30,right,right,0.196
MON1991WRNO,2019-10-24-11-04-57,6,40,0.5307900287273406,left,both,ambiguous-switch,105,-30,right,right,0.124
MON1991WRNO,2019-10-24-11-04-57,6,41,0.538808459041688,left,probe,ambiguous-switch,-1,30,right,right,0.237
MON1991WRNO,2019-10-24-11-04-57,6,42,0.5284649118230229,left,both,ambiguous-switch,99,30,right,right,0.219
MON1991WRNO,2019-10-24-11-04-57,6,43,0.6695655947393908,right,probe,ambiguous-switch,-1,5,right,right,0.187
MON1991WRNO,2019-10-24-11-04-57,6,44,0.5377858064920724,right,both,ambiguous-switch,92,5,right,right,0.194
MON1991WRNO,2019-10-24-11-04-57,6,45,0.6655684171224353,left,probe,ambiguous-switch,-1,10,right,right,0.246
MON1991WRNO,2019-10-24-11-04-57,6,46,0.5668413048977186,left,both,ambiguous-switch,93,10,right,left,0.273
MON1991WRNO,2019-10-24-11-04-57,6,47,0.6197057685422316,right,probe,biased-switch,-1,5,right,right,0.255
MON1991WRNO,2019-10-24-11-04-57,6,48,0.6376267325255944,right,both,biased-switch,97,5,right,right,0.071
MON1991WRNO,2019-10-24-11-04-57,6,49,0.6216390761579318,right,probe,ambiguous-switch,-1,-5,right,right,1.739
MON1991WRNO,2019-10-24-11-04-57,6,50,0.6931700564475277,right,both,ambiguous-switch,90,-5,right,right,0.283
MON1991WRNO,2019-10-24-11-04-57,6,51,0.6800634012588372,left,probe,biased-switch,-1,-20,right,right,0.222
MON1991WRNO,2019-10-24-11-04-57,6,52,0.5391814545192852,left,both,biased-switch,94,-20,right,right,2.141
MON1991WRNO,2019-10-24-11-04-57,6,53,0.6863041523784387,right,probe,ambiguous-switch,-1,-10,right,right,0.298
MON1991WRNO,2019-10-24-11-04-57,6,54,0.5236110531315339,right,both,ambiguous-switch,92,-10,right,right,0.205
MON1991WRNO,2019-10-24-11-04-57,6,55,0.5479378739833667,right,probe,ambiguous-switch,-1,20,right,right,0.292
MON1991WRNO,2019-10-24-11-04-57,6,56,0.645656699271739,right,both,ambiguous-switch,105,20,right,right,0.263
MON1991WRNO,2019-10-24-11-04-57,6,57,0.6039645480930408,left,probe,biased-switch,-1,40,right,right,1.965
MON1991WRNO,2019-10-24-11-04-57,6,58,0.5405355271254236,left,both,biased-switch,103,40,right,right,0.264
MON1991WRNO,2019-10-24-11-04-57,6,59,0.5050047854465726,right,probe,ambiguous-switch,-1,-20,right,right,0.321
MON1991WRNO,2019-10-24-11-04-57,6,60,0.6515390723838416,right,both,ambiguous-switch,106,-20,right,right,0.225
MON1991WRNO,2019-10-24-11-04-57,6,61,0.5367660767366496,right,probe,biased-switch,-1,0,right,right,0.25
MON1991WRNO,2019-10-24-11-04-57,6,62,0.6087268589873253,right,both,biased-switch,95,0,right,right,0.246
MON1991WRNO,2019-10-24-11-04-57,6,63,0.5386580007118051,right,probe,biased-switch,-1,20,right,right,0.303
MON1991WRNO,2019-10-24-11-04-57,6,64,0.6772206891975415,right,both,biased-switch,93,20,right,right,0.23
MON1991WRNO,2019-10-24-11-04-57,6,65,0.5487372370990288,left,probe,biased-switch,-1,30,right,right,0.226
MON1991WRNO,2019-10-24-11-04-57,6,66,0.5092476756773913,left,both,biased-switch,106,30,right,right,0.229
MON1991WRNO,2019-10-24-11-04-57,6,67,0.5392970053254514,left,probe,biased-switch,-1,-10,right,right,0.292
MON1991WRNO,2019-10-24-11-04-57,6,68,0.5721440952131963,left,both,biased-switch,90,-10,right,right,0.269
MON1991WRNO,2019-10-24-11-04-57,6,69,0.5622806780793865,right,probe,biased-switch,-1,-30,right,right,0.241
MON1991WRNO,2019-10-24-11-04-57,6,70,0.561791662593669,right,both,biased-switch,98,-30,right,right,0.277
MON1991WRNO,2019-10-24-11-04-57,6,71,0.625206453499034,left,probe,ambiguous-switch,-1,0,right,right,0.226
MON1991WRNO,2019-10-24-11-04-57,6,72,0.6330858879299025,left,both,ambiguous-switch,102,0,right,right,0.24
MON1991WRNO,2019-10-24-11-04-57,6,73,0.6627823917820922,left,probe,biased-switch,-1,10,right,right,0.282
MON1991WRNO,2019-10-24-11-04-57,6,74,0.6643232938200427,left,both,biased-switch,106,10,right,left,0.212
MON1991WRNO,2019-10-24-11-04-57,6,75,0.5623535743440627,left,probe,biased-switch,-1,-5,right,right,0.027
MON1991WRNO,2019-10-24-11-04-57,6,76,0.5298027968895668,left,both,biased-switch,108,-5,right,right,0.237
MON1991WRNO,2019-10-24-11-04-57,6,77,0.5660659614291208,left,probe,ambiguous-switch,-1,40,right,right,0.147
MON1991WRNO,2019-10-24-11-04-57,6,78,0.6318030855130523,left,both,ambiguous-switch,101,40,right,right,0.992
MON1991WRNO,2019-10-24-11-04-57,6,79,0.5405914620851047,left,probe,ambiguous-switch,-1,-30,left,left,0.223
MON1991WRNO,2019-10-24-11-04-57,6,80,0.6184582136755986,left,both,ambiguous-switch,106,-30,left,right,0.153
MON1991WRNO,2019-10-24-11-04-57,7,1,0.657493371390245,left,probe,biased-switch,-1,10,left,left,0.228
MON1991WRNO,2019-10-24-11-04-57,7,2,0.6201344449792404,left,both,biased-switch,96,10,left,right,0.22
MON1991WRNO,2019-10-24-11-04-57,7,3,0.6379567672208377,left,probe,ambiguous-switch,-1,5,right,right,1.914
MON1991WRNO,2019-10-24-11-04-57,7,4,0.5639045097817641,left,both,ambiguous-switch,94,5,right,left,0.227
MON1991WRNO,2019-10-24-11-04-57,7,5,0.6601243401786795,right,probe,biased-switch,-1,5,right,right,0.221
MON1991WRNO,2019-10-24-11-04-57,7,6,0.6847248984115929,right,both,biased-switch,102,5,right,right,0.091
MON1991WRNO,2019-10-24-11-04-57,7,7,0.6208461031089129,right,probe,ambiguous-switch,-1,-5,right,right,0.186
MON1991WRNO,2019-10-24-11-04-57,7,8,0.5156540837629675,right,both,ambiguous-switch,101,-5,right,right,0.244
MON1991WRNO,2019-10-24-11-04-57,7,9,0.5274743648448096,left,probe,ambiguous-switch,-1,10,right,right,0.248
MON1991WRNO,2019-10-24-11-04-57,7,10,0.6898415874649242,left,both,ambiguous-switch,98,10,right,right,0.092
MON1991WRNO,2019-10-24-11-04-57,7,11,0.539248405191529,left,probe,biased-switch,-1,-5,right,right,0.137
MON1991WRNO,2019-10-24-11-04-57,7,12,0.5414244375948375,left,both,biased-switch,101,-5,right,left,0.23
MON1991WRNO,2019-10-24-11-04-57,7,13,0.5203010825460838,right,probe,ambiguous-switch,-1,0,right,right,0.063
MON1991WRNO,2019-10-24-11-04-57,7,14,0.5265918831445656,right,both,ambiguous-switch,96,0,right,right,0.251
MON1991WRNO,2019-10-24-11-04-57,7,15,0.5210527482669872,right,probe,ambiguous-switch,-1,40,right,right,0.218
MON1991WRNO,2019-10-24-11-04-57,7,16,0.5452546461655565,right,both,ambiguous-switch,105,40,right,right,0.153
MON1991WRNO,2019-10-24-11-04-57,7,17,0.5960626508429838,left,probe,ambiguous-switch,-1,20,right,right,0.175
MON1991WRNO,2019-10-24-11-04-57,7,18,0.6738750044066504,left,both,ambiguous-switch,102,20,right,right,0.218
MON1991WRNO,2019-10-24-11-04-57,7,19,0.5168314593811828,right,probe,biased-switch,-1,-30,right,right,0.254
MON1991WRNO,2019-10-24-11-04-57,7,20,0.5143808678926465,right,both,biased-switch,110,-30,right,right,0.28
MON1991WRNO,2019-10-24-11-04-57,7,21,0.5120035364069504,left,probe,ambiguous-switch,-1,-20,right,right,0.245
MON1991WRNO,2019-10-24-11-04-57,7,22,0.6684510653633177,left,both,ambiguous-switch,94,-20,right,left,0.227
MON1991WRNO,2019-10-24-11-04-57,7,23,0.6832540555803035,right,probe,biased-switch,-1,-20,right,right,0.334
MON1991WRNO,2019-10-24-11-04-57,7,24,0.5594845904122572,right,both,biased-switch,107,-20,right,right,0.37
MON1991WRNO,2019-10-24-11-04-57,7,25,0.6505111285038802,left,probe,ambiguous-switch,-1,-30,right,right,0.522
MON1991WRNO,2019-10-24-11-04-57,7,26,0.555605534297718,left,both,ambiguous-switch,91,-30,right,right,0.226
MON1991WRNO,2019-10-24-11-04-57,7,27,0.6905033694052247,right,probe,biased-switch,-1,40,right,right,0.229
MON1991WRNO,2019-10-24-11-04-57,7,28,0.6410364586284435,right,both,biased-switch,105,40,right,right,0.269
MON1991WRNO,2019-10-24-11-04-57,7,29,0.6284798787886672,left,probe,biased-switch,-1,0,right,right,0.005
MON1991WRNO,2019-10-24-11-04-57,7,30,0.5502168047401537,left,both,biased-switch,96,0,right,right,0.164
MON1991WRNO,2019-10-24-11-04-57,7,31,0.6976531902321449,left,probe,biased-switch,-1,20,right,right,0.301
MON1991WRNO,2019-10-24-11-04-57,7,32,0.6697447249120934,left,both,biased-switch,92,20,right,right,0.237
MON1991WRNO,2019-10-24-11-04-57,7,33,0.665077541103556,right,probe,ambiguous-switch,-1,-10,right,right,0.207
MON1991WRNO,2019-10-24-11-04-57,7,34,0.6405708663032322,right,both,ambiguous-switch,99,-10,right,right,0.072
MON1991WRNO,2019-10-24-11-04-57,7,35,0.6354038211741495,right,probe,ambiguous-switch,-1,30,right,right,0.256
MON1991WRNO,2019-10-24-11-04-57,7,36,0.5577785220851943,right,both,ambiguous-switch,101,30,right,right,0.326
MON1991WRNO,2019-10-24-11-04-57,7,37,0.6015768180328592,left,probe,biased-switch,-1,-10,right,right,0.302
MON1991WRNO,2019-10-24-11-04-57,7,38,0.5504986787692216,left,both,biased-switch,91,-10,right,right,0.251
MON1991WRNO,2019-10-24-11-04-57,7,39,0.527011037703127,left,probe,biased-switch,-1,30,right,right,1.298
MON1991WRNO,2019-10-24-11-04-57,7,40,0.5471446361502021,left,both,biased-switch,102,30,right,right,0.222
MON1991WRNO,2019-10-24-11-04-57,7,41,0.5758836824023157,right,probe,biased-switch,-1,10,right,right,0.275
MON1991WRNO,2019-10-24-11-04-57,7,42,0.5401794551201049,right,both,biased-switch,93,10,right,right,0.159
MON1991WRNO,2019-10-24-11-04-57,7,43,0.6351046301119314,left,probe,ambiguous-switch,-1,5,right,right,0.222
MON1991WRNO,2019-10-24-11-04-57,7,44,0.6278629592543548,left,both,ambiguous-switch,94,5,right,right,0.347
MON1991WRNO,2019-10-24-11-04-57,7,45,0.5603724861388221,right,probe,biased-switch,-1,5,right,right,0.283
MON1991WRNO,2019-10-24-11-04-57,7,46,0.522576379299794,right,both,biased-switch,103,5,right,right,0.259
MON1991WRNO,2019-10-24-11-04-57,7,47,0.6022261259897601,left,probe,ambiguous-switch,-1,-5,right,right,0.553
MON1991WRNO,2019-10-24-11-04-57,7,48,0.5924963274560533,left,both,ambiguous-switch,98,-5,right,right,0.282
MON1991WRNO,2019-10-24-11-04-57,7,49,0.6375169540878008,left,probe,ambiguous-switch,-1,10,right,right,0.28
MON1991WRNO,2019-10-24-11-04-57,7,50,0.639139237047941,left,both,ambiguous-switch,104,10,right,left,0.123
MON1991WRNO,2019-10-24-11-04-57,7,51,0.6880383133847349,right,probe,biased-switch,-1,-5,right,right,0.19
MON1991WRNO,2019-10-24-11-04-57,7,52,0.5849133682162103,right,both,biased-switch,102,-5,right,right,0.062
MON1991WRNO,2019-10-24-11-04-57,7,53,0.695451271443535,right,probe,ambiguous-switch,-1,0,right,right,0.165
MON1991WRNO,2019-10-24-11-04-57,7,54,0.6576602942984215,right,both,ambiguous-switch,103,0,right,left,0.227
MON1991WRNO,2019-10-24-11-04-57,7,55,0.5856215106812849,right,probe,ambiguous-switch,-1,40,right,right,0.435
MON1991WRNO,2019-10-24-11-04-57,7,56,0.5096784376263216,right,both,ambiguous-switch,98,40,right,right,0.24
MON1991WRNO,2019-10-24-11-04-57,7,57,0.6536665214103909,right,probe,ambiguous-switch,-1,20,right,right,0.827
MON1991WRNO,2019-10-24-11-04-57,7,58,0.5636586001520248,right,both,ambiguous-switch,97,20,right,right,2.022
MON1991WRNO,2019-10-24-11-04-57,7,59,0.5617459701242642,left,probe,biased-switch,-1,-30,right,right,0.298
MON1991WRNO,2019-10-24-11-04-57,7,60,0.5190279298900455,left,both,biased-switch,96,-30,right,right,0.415
MON1991WRNO,2019-10-24-11-04-57,7,61,0.5453397254598863,left,probe,ambiguous-switch,-1,-20,right,right,0.283
MON1991WRNO,2019-10-24-11-04-57,7,62,0.6233460482425427,left,both,ambiguous-switch,107,-20,right,right,1.31
MON1991WRNO,2019-10-24-11-04-57,7,63,0.5899338836521199,right,probe,biased-switch,-1,-20,right,right,0.241
MON1991WRNO,2019-10-24-11-04-57,7,64,0.5984189853782159,right,both,biased-switch,110,-20,right,right,0.187
MON1991WRNO,2019-10-24-11-04-57,7,65,0.5197129998265453,left,probe,ambiguous-switch,-1,-30,left,left,0.201
MON1991WRNO,2019-10-24-11-04-57,7,66,0.5334405322878479,left,both,ambiguous-switch,108,-30,left,left,0.192
MON1991WRNO,2019-10-24-11-04-57,7,67,0.6236650144533054,right,probe,biased-switch,-1,40,right,right,0.129
MON1991WRNO,2019-10-24-11-04-57,7,68,0.6023371930669621,right,both,biased-switch,105,40,right,right,0.051
MON1991WRNO,2019-10-24-11-04-57,7,69,0.5693940507165275,right,probe,biased-switch,-1,0,right,right,0.078
MON1991WRNO,2019-10-24-11-04-57,7,70,0.6018720800976187,right,both,biased-switch,108,0,right,right,0.07
MON1991WRNO,2019-10-24-11-04-57,7,71,0.6621990138620495,right,probe,biased-switch,-1,20,right,right,0.188
MON1991WRNO,2019-10-24-11-04-57,7,72,0.6185862373936155,right,both,biased-switch,108,20,right,right,0.213
MON1991WRNO,2019-10-24-11-04-57,7,73,0.5877601711529344,right,probe,ambiguous-switch,-1,-10,right,right,0.186
MON1991WRNO,2019-10-24-11-04-57,7,74,0.6616078299492353,right,both,ambiguous-switch,105,-10,right,right,0.325
MON1991WRNO,2019-10-24-11-04-57,7,75,0.5013017103409191,right,probe,ambiguous-switch,-1,30,right,right,0.244
MON1991WRNO,2019-10-24-11-04-57,7,76,0.6775253720348817,right,both,ambiguous-switch,104,30,right,right,0.286
MON1991WRNO,2019-10-24-11-04-57,7,77,0.5395252953082746,right,probe,biased-switch,-1,-10,right,right,0.281
MON1991WRNO,2019-10-24-11-04-57,7,78,0.6631631650872429,right,both,biased-switch,101,-10,right,right,0.263
MON1991WRNO,2019-10-24-11-04-57,7,79,0.5580805488207696,left,probe,biased-switch,-1,30,right,right,0.323
MON1991WRNO,2019-10-24-11-04-57,7,80,0.6039642931532847,left,both,biased-switch,96,30,right,right,1.075
MON1991WRNO,2019-10-24-11-04-57,8,1,0.6747803114806181,left,probe,ambiguous-switch,-1,10,right,right,0.243
MON1991WRNO,2019-10-24-11-04-57,8,2,0.5232053509107869,left,both,ambiguous-switch,101,10,right,left,0.077
MON1991WRNO,2019-10-24-11-04-57,8,3,0.6699404481992178,left,probe,biased-switch,-1,-5,right,right,0.235
MON1991WRNO,2019-10-24-11-04-57,8,4,0.5067673037983712,left,both,biased-switch,98,-5,right,left,0.219
MON1991WRNO,2019-10-24-11-04-57,8,5,0.6475324484988545,left,probe,biased-switch,-1,20,right,right,0.116
MON1991WRNO,2019-10-24-11-04-57,8,6,0.6870742062101513,left,both,biased-switch,97,20,right,right,0.355
MON1991WRNO,2019-10-24-11-04-57,8,7,0.67409922998937,right,probe,ambiguous-switch,-1,0,right,right,0.439
MON1991WRNO,2019-10-24-11-04-57,8,8,0.6979086778890882,right,both,ambiguous-switch,92,0,right,right,0.339
MON1991WRNO,2019-10-24-11-04-57,8,9,0.5214778644137461,right,probe,biased-switch,-1,-10,right,right,0.093
MON1991WRNO,2019-10-24-11-04-57,8,10,0.6890703883794221,right,both,biased-switch,101,-10,right,right,0.012
MON1991WRNO,2019-10-24-11-04-57,8,11,0.684572828652266,left,probe,biased-switch,-1,0,right,right,0.224
MON1991WRNO,2019-10-24-11-04-57,8,12,0.6664200519072685,left,both,biased-switch,104,0,right,right,0.246
MON1991WRNO,2019-10-24-11-04-57,8,13,0.5138948631201399,right,probe,ambiguous-switch,-1,-5,right,right,0.406
MON1991WRNO,2019-10-24-11-04-57,8,14,0.692288640153679,right,both,ambiguous-switch,109,-5,right,left,0.277
MON1991WRNO,2019-10-24-11-04-57,8,15,0.550047480013861,right,probe,ambiguous-switch,-1,-20,right,right,0.29
MON1991WRNO,2019-10-24-11-04-57,8,16,0.5995678926763632,right,both,ambiguous-switch,99,-20,right,right,0.332
MON1991WRNO,2019-10-24-11-04-57,8,17,0.5621395774545447,left,probe,ambiguous-switch,-1,40,right,right,0.363
MON1991WRNO,2019-10-24-11-04-57,8,18,0.6330761785207405,left,both,ambiguous-switch,106,40,right,right,0.663
MON1991WRNO,2019-10-24-11-04-57,8,19,0.5310872268039757,left,probe,ambiguous-switch,-1,5,right,right,0.218
MON1991WRNO,2019-10-24-11-04-57,8,20,0.5680277921939623,left,both,ambiguous-switch,103,5,right,right,0.263
MON1991WRNO,2019-10-24-11-04-57,8,21,0.6336418901884903,left,probe,biased-switch,-1,30,right,right,0.409
MON1991WRNO,2019-10-24-11-04-57,8,22,0.5123528726025145,left,both,biased-switch,106,30,right,left,0.335
MON1991WRNO,2019-10-24-11-04-57,8,23,0.5407428026474247,left,probe,biased-switch,-1,-20,right,right,0.376
MON1991WRNO,2019-10-24-11-04-57,8,24,0.6372596680524443,left,both,biased-switch,90,-20,right,right,0.311
MON1991WRNO,2019-10-24-11-04-57,8,25,0.5965440020393361,left,probe,biased-switch,-1,5,right,right,0.156
MON1991WRNO,2019-10-24-11-04-57,8,26,0.5427574100328068,left,both,biased-switch,109,5,right,right,0.026
MON1991WRNO,2019-10-24-11-04-57,8,27,0.6999541078372205,left,probe,biased-switch,-1,10,right,right,0.234
MON1991WRNO,2019-10-24-11-04-57,8,28,0.6459124930285168,left,both,biased-switch,109,10,right,left,0.291
MON1991WRNO,2019-10-24-11-04-57,8,29,0.5157146519612987,right,probe,biased-switch,-1,40,right,right,0.261
MON1991WRNO,2019-10-24-11-04-57,8,30,0.6908403360062031,right,both,biased-switch,106,40,right,right,0.092
MON1991WRNO,2019-10-24-11-04-57,8,31,0.5369354160068842,left,probe,ambiguous-switch,-1,-30,right,right,0.11
MON1991WRNO,2019-10-24-11-04-57,8,32,0.6795367441943603,left,both,ambiguous-switch,94,-30,right,right,0.265
MON1991WRNO,2019-10-24-11-04-57,8,33,0.5989592792416053,left,probe,ambiguous-switch,-1,20,right,right,0.223
MON1991WRNO,2019-10-24-11-04-57,8,34,0.6955942824730047,left,both,ambiguous-switch,93,20,right,right,0.241
MON1991WRNO,2019-10-24-11-04-57,8,35,0.6141182074310052,right,probe,biased-switch,-1,-30,right,right,0.281
MON1991WRNO,2019-10-24-11-04-57,8,36,0.5090778978329331,right,both,biased-switch,101,-30,right,right,0.316
MON1991WRNO,2019-10-24-11-04-57,8,37,0.5203261763256466,left,probe,ambiguous-switch,-1,-10,right,right,0.163
MON1991WRNO,2019-10-24-11-04-57,8,38,0.5345670520137478,left,both,ambiguous-switch,97,-10,right,right,0.084
MON1991WRNO,2019-10-24-11-04-57,8,39,0.5652529434707284,left,probe,ambiguous-switch,-1,30,right,right,0.31
MON1991WRNO,2019-10-24-11-04-57,8,40,0.5839875628509431,left,both,ambiguous-switch,97,30,right,right,0.283
MON1991WRNO,2019-10-24-11-04-57,8,41,0.6614449885762934,left,probe,ambiguous-switch,-1,10,right,right,0.312
MON1991WRNO,2019-10-24-11-04-57,8,42,0.5533749938430149,left,both,ambiguous-switch,100,10,right,left,0.205
MON1991WRNO,2019-10-24-11-04-57,8,43,0.6657459679250789,left,probe,biased-switch,-1,-5,right,right,0.272
MON1991WRNO,2019-10-24-11-04-57,8,44,0.5958353290628613,left,both,biased-switch,92,-5,right,right,0.159
MON1991WRNO,2019-10-24-11-04-57,8,45,0.5470043098998238,right,probe,biased-switch,-1,20,right,right,0.147
MON1991WRNO,2019-10-24-11-04-57,8,46,0.6340376699753688,right,both,biased-switch,106,20,right,right,0.205
MON1991WRNO,2019-10-24-11-04-57,8,47,0.564382048789059,right,probe,ambiguous-switch,-1,0,right,right,0.191
MON1991WRNO,2019-10-24-11-04-57,8,48,0.67751853065937,right,both,ambiguous-switch,91,0,right,right,1.641
MON1991WRNO,2019-10-24-11-04-57,8,49,0.6975429530569024,right,probe,biased-switch,-1,-10,right,right,0.166
MON1991WRNO,2019-10-24-11-04-57,8,50,0.6194939750744559,right,both,biased-switch,101,-10,right,right,1.918
MON1991WRNO,2019-10-24-11-04-57,8,51,0.5537675618099547,left,probe,biased-switch,-1,0,right,right,0.398
MON1991WRNO,2019-10-24-11-04-57,8,52,0.5443130616270286,left,both,biased-switch,105,0,right,left,0.144
MON1991WRNO,2019-10-24-11-04-57,8,53,0.6064420108619112,left,probe,ambiguous-switch,-1,-5,right,right,0.222
MON1991WRNO,2019-10-24-11-04-57,8,54,0.669907576681944,left,both,ambiguous-switch,106,-5,right,right,0.094
MON1991WRNO,2019-10-24-11-04-57,8,55,0.672252406267954,right,probe,ambiguous-switch,-1,-20,right,right,0.036
MON1991WRNO,2019-10-24-11-04-57,8,56,0.5431548212045016,right,both,ambiguous-switch,105,-20,right,right,0.221
MON1991WRNO,2019-10-24-11-04-57,8,57,0.5458585585851315,left,probe,ambiguous-switch,-1,40,right,right,0.166
MON1991WRNO,2019-10-24-11-04-57,8,58,0.6156526502536719,left,both,ambiguous-switch,96,40,right,right,2.168
MON1991WRNO,2019-10-24-11-04-57,8,59,0.6982909817579624,left,probe,ambiguous-switch,-1,5,right,right,0.239
MON1991WRNO,2019-10-24-11-04-57,8,60,0.6777332811928365,left,both,ambiguous-switch,99,5,right,left,0.225
MON1991WRNO,2019-10-24-11-04-57,8,61,0.5115989821616395,left,probe,biased-switch,-1,30,right,right,0.214
MON1991WRNO,2019-10-24-11-04-57,8,62,0.6102299814419778,left,both,biased-switch,103,30,right,right,0.106
MON1991WRNO,2019-10-24-11-04-57,8,63,0.5818504180223831,right,probe,biased-switch,-1,-20,right,right,0.15
MON1991WRNO,2019-10-24-11-04-57,8,64,0.5606947643835235,right,both,biased-switch,101,-20,right,right,0.165
MON1991WRNO,2019-10-24-11-04-57,8,65,0.5912055539067886,left,probe,biased-switch,-1,5,right,right,0.072
MON1991WRNO,2019-10-24-11-04-57,8,66,0.5432708653415688,left,both,biased-switch,98,5,right,left,0.205
MON1991WRNO,2019-10-24-11-04-57,8,67,0.6652487248642585,left,probe,biased-switch,-1,10,left,left,0.232
MON1991WRNO,2019-10-24-11-04-57,8,68,0.6002987427694781,left,both,biased-switch,93,10,left,right,0.241
MON1991WRNO,2019-10-24-11-04-57,8,69,0.6812744603879334,left,probe,biased-switch,-1,40,left,left,0.218
MON1991WRNO,2019-10-24-11-04-57,8,70,0.58727449701304,left,both,biased-switch,91,40,left,right,0.237
MON1991WRNO,2019-10-24-11-04-57,8,71,0.6199125188745715,right,probe,ambiguous-switch,-1,-30,right,right,0.124
MON1991WRNO,2019-10-24-11-04-57,8,72,0.6611907168979225,right,both,ambiguous-switch,105,-30,right,right,0.143
MON1991WRNO,2019-10-24-11-04-57,8,73,0.5502659945275695,left,probe,ambiguous-switch,-1,20,right,right,0.183
MON1991WRNO,2019-10-24-11-04-57,8,74,0.6367046525277802,left,both,ambiguous-switch,107,20,right,right,0.145
MON1991WRNO,2019-10-24-11-04-57,8,75,0.548939012836406,right,probe,biased-switch,-1,-30,right,right,0.228
MON1991WRNO,2019-10-24-11-04-57,8,76,0.504393996302596,right,both,biased-switch,93,-30,right,right,1.375
MON1991WRNO,2019-10-24-11-04-57,8,77,0.5469363470381643,right,probe,ambiguous-switch,-1,-10,right,right,0.327
MON1991WRNO,2019-10-24-11-04-57,8,78,0.5358901739292313,right,both,ambiguous-switch,93,-10,right,right,1.757
MON1991WRNO,2019-10-24-11-04-57,8,79,0.5231654034996452,left,probe,ambiguous-switch,-1,30,right,right,0.338
MON1991WRNO,2019-10-24-11-04-57,8,80,0.545584004767722,left,both,ambiguous-switch,100,30,right,left,0.13
MON1991WRNO,2019-10-24-11-04-57,9,1,0.5014512455905004,left,probe,biased-switch,-1,-10,right,right,0.383
MON1991WRNO,2019-10-24-11-04-57,9,2,0.6897347660885456,left,both,biased-switch,109,-10,right,right,0.093
MON1991WRNO,2019-10-24-11-04-57,9,3,0.5079634433199929,right,probe,biased-switch,-1,10,right,right,0.191
MON1991WRNO,2019-10-24-11-04-57,9,4,0.5849545561424415,right,both,biased-switch,97,10,right,right,0.199
MON1991WRNO,2019-10-24-11-04-57,9,5,0.5092260583640325,right,probe,biased-switch,-1,-5,right,right,0.334
MON1991WRNO,2019-10-24-11-04-57,9,6,0.6844370273187462,right,both,biased-switch,92,-5,right,right,0.273
MON1991WRNO,2019-10-24-11-04-57,9,7,0.681837794496651,left,probe,biased-switch,-1,5,right,right,0.228
MON1991WRNO,2019-10-24-11-04-57,9,8,0.5076239164440718,left,both,biased-switch,107,5,right,left,0.195
MON1991WRNO,2019-10-24-11-04-57,9,9,0.5950186919164477,right,probe,ambiguous-switch,-1,-30,right,right,0.199
MON1991WRNO,2019-10-24-11-04-57,9,10,0.5861723865517687,right,both,ambiguous-switch,97,-30,right,right,0.22
MON1991WRNO,2019-10-24-11-04-57,9,11,0.6453044498861753,left,probe,ambiguous-switch,-1,5,right,right,0.213
MON1991WRNO,2019-10-24-11-04-57,9,12,0.5510776044648736,left,both,ambiguous-switch,93,5,right,right,0.113
MON1991WRNO,2019-10-24-11-04-57,9,13,0.5701211931080393,left,probe,biased-switch,-1,-20,right,right,0.133
MON1991WRNO,2019-10-24-11-04-57,9,14,0.6342842972509259,left,both,biased-switch,90,-20,right,right,0.201
MON1991WRNO,2019-10-24-11-04-57,9,15,0.5814500080008191,right,probe,biased-switch,-1,-30,right,right,0.162
MON1991WRNO,2019-10-24-11-04-57,9,16,0.5104575075934201,right,both,biased-switch,97,-30,right,right,2.989
MON1991WRNO,2019-10-24-11-04-57,9,17,0.6450035090621233,right,probe,biased-switch,-1,40,right,right,0.255
MON1991WRNO,2019-10-24-11-04-57,9,18,0.5450771645813239,right,both,biased-switch,97,40,right,right,0.19
MON1991WRNO,2019-10-24-11-04-57,9,19,0.5901373978177932,left,probe,ambiguous-switch,-1,-5,right,right,0.306
MON1991WRNO,2019-10-24-11-04-57,9,20,0.5655157499646941,left,both,ambiguous-switch,91,-5,right,right,0.193
MON1991WRNO,2019-10-24-11-04-57,9,21,0.6048081679196567,left,probe,ambiguous-switch,-1,40,right,right,0.152
MON1991WRNO,2019-10-24-11-04-57,9,22,0.6589886656610391,left,both,ambiguous-switch,98,40,right,right,0.245
MON1991WRNO,2019-10-24-11-04-57,9,23,0.6570352154359052,right,probe,ambiguous-switch,-1,0,right,right,0.122
MON1991WRNO,2019-10-24-11-04-57,9,24,0.561965291624975,right,both,ambiguous-switch,100,0,right,right,2.733
MON1991WRNO,2019-10-24-11-04-57,9,25,0.6136686507340378,left,probe,biased-switch,-1,30,right,right,0.064
MON1991WRNO,2019-10-24-11-04-57,9,26,0.645477639763452,left,both,biased-switch,91,30,right,right,0.277
MON1991WRNO,2019-10-24-11-04-57,9,27,0.6615567050297908,right,probe,biased-switch,-1,0,right,right,0.352
MON1991WRNO,2019-10-24-11-04-57,9,28,0.5459958517504067,right,both,biased-switch,109,0,right,right,0.284
MON1991WRNO,2019-10-24-11-04-57,9,29,0.5760043712119061,right,probe,ambiguous-switch,-1,30,right,right,0.195
MON1991WRNO,2019-10-24-11-04-57,9,30,0.6813611141623584,right,both,ambiguous-switch,93,30,right,right,0.279
MON1991WRNO,2019-10-24-11-04-57,9,31,0.6717224003619968,left,probe,ambiguous-switch,-1,10,right,right,0.294
MON1991WRNO,2019-10-24-11-04-57,9,32,0.5140280467632834,left,both,ambiguous-switch,95,10,right,right,0.235
MON1991WRNO,2019-10-24-11-04-57,9,33,0.6286266564603825,left,probe,ambiguous-switch,-1,-10,right,right,0.36
MON1991WRNO,2019-10-24-11-04-57,9,34,0.6131640811696671,left,both,ambiguous-switch,103,-10,right,right,0.164
MON1991WRNO,2019-10-24-11-04-57,9,35,0.525196425632813,left,probe,ambiguous-switch,-1,-20,right,right,0.147
MON1991WRNO,2019-10-24-11-04-57,9,36,0.6333726560852653,left,both,ambiguous-switch,110,-20,right,right,0.157
MON1991WRNO,2019-10-24-11-04-57,9,37,0.6430310424715583,left,probe,ambiguous-switch,-1,20,right,right,0.252
MON1991WRNO,2019-10-24-11-04-57,9,38,0.5567748367531807,left,both,ambiguous-switch,100,20,right,right,0.02
MON1991WRNO,2019-10-24-11-04-57,9,39,0.6970686789649329,left,probe,biased-switch,-1,20,right,right,0.113
MON1991WRNO,2019-10-24-11-04-57,9,40,0.5212655048777586,left,both,biased-switch,104,20,right,left,0.166
MON1991WRNO,2019-10-24-11-04-57,9,41,0.6736309677298666,left,probe,biased-switch,-1,-10,right,right,0.159
MON1991WRNO,2019-10-24-11-04-57,9,42,0.6791552932635185,left,both,biased-switch,108,-10,right,right,0.242
MON1991WRNO,2019-10-24-11-04-57,9,43,0.6540937232634201,right,probe,biased-switch,-1,10,right,right,0.003
MON1991WRNO,2019-10-24-11-04-57,9,44,0.6582156911660431,right,both,biased-switch,101,10,right,right,0.139
MON1991WRNO,2019-10-24-11-04-57,9,45,0.5059526818615034,left,probe,biased-switch,-1,-5,right,right,0.199
MON1991WRNO,2019-10-24-11-04-57,9,46,0.5123289369638757,left,both,biased-switch,102,-5,right,left,1.648
MON1991WRNO,2019-10-24-11-04-57,9,47,0.5591790299863189,left,probe,biased-switch,-1,5,left,left,0.235
MON1991WRNO,2019-10-24-11-04-57,9,48,0.5475016525792137,left,both,biased-switch,94,5,left,left,0.227
MON1991WRNO,2019-10-24-11-04-57,9,49,0.6380542273602922,left,probe,ambiguous-switch,-1,-30,left,left,0.094
MON1991WRNO,2019-10-24-11-04-57,9,50,0.6177850856555356,left,both,ambiguous-switch,98,-30,left,left,2.099
MON1991WRNO,2019-10-24-11-04-57,9,51,0.6578985767494776,right,probe,ambiguous-switch,-1,5,right,right,0.165
MON1991WRNO,2019-10-24-11-04-57,9,52,0.6991893442376131,right,both,ambiguous-switch,93,5,right,right,0.028
MON1991WRNO,2019-10-24-11-04-57,9,53,0.5435881169573313,right,probe,biased-switch,-1,-20,right,right,0.229
MON1991WRNO,2019-10-24-11-04-57,9,54,0.6620927568447279,right,both,biased-switch,95,-20,right,right,1.358
MON1991WRNO,2019-10-24-11-04-57,9,55,0.6700057861042842,left,probe,biased-switch,-1,-30,right,right,0.202
MON1991WRNO,2019-10-24-11-04-57,9,56,0.5433256444303676,left,both,biased-switch,107,-30,right,right,0.069
MON1991WRNO,2019-10-24-11-04-57,9,57,0.526639951669074,right,probe,biased-switch,-1,40,right,right,0.111
MON1991WRNO,2019-10-24-11-04-57,9,58,0.5434167626934366,right,both,biased-switch,91,40,right,right,0.164
MON1991WRNO,2019-10-24-11-04-57,9,59,0.5814514506113728,right,probe,ambiguous-switch,-1,-5,right,right,0.236
MON1991WRNO,2019-10-24-11-04-57,9,60,0.6653945824805736,right,both,ambiguous-switch,95,-5,right,right,0.333
MON1991WRNO,2019-10-24-11-04-57,9,61,0.630390440168207,left,probe,ambiguous-switch,-1,40,right,right,0.308
MON1991WRNO,2019-10-24-11-04-57,9,62,0.5278816184421806,left,both,ambiguous-switch,101,40,right,right,0.216
MON1991WRNO,2019-10-24-11-04-57,9,63,0.6076274135364449,left,probe,ambiguous-switch,-1,0,right,right,0.427
MON1991WRNO,2019-10-24-11-04-57,9,64,0.6250550039424356,left,both,ambiguous-switch,108,0,right,right,0.233
MON1991WRNO,2019-10-24-11-04-57,9,65,0.5929531156670823,right,probe,biased-switch,-1,30,right,right,0.323
MON1991WRNO,2019-10-24-11-04-57,9,66,0.5819623049743945,right,both,biased-switch,96,30,right,right,2.095
MON1991WRNO,2019-10-24-11-04-57,9,67,0.5153945121261836,right,probe,biased-switch,-1,0,right,right,0.275
MON1991WRNO,2019-10-24-11-04-57,9,68,0.5320914154881019,right,both,biased-switch,97,0,right,right,0.08
MON1991WRNO,2019-10-24-11-04-57,9,69,0.6841449137212439,left,probe,ambiguous-switch,-1,30,right,right,0.197
MON1991WRNO,2019-10-24-11-04-57,9,70,0.6286190411785417,left,both,ambiguous-switch,97,30,right,right,0.039
MON1991WRNO,2019-10-24-11-04-57,9,71,0.5763689853403171,right,probe,ambiguous-switch,-1,10,right,right,0.119
MON1991WRNO,2019-10-24-11-04-57,9,72,0.5184660898777637,right,both,ambiguous-switch,90,10,right,right,0.054
MON1991WRNO,2019-10-24-11-04-57,9,73,0.6560927785453028,left,probe,ambiguous-switch,-1,-10,right,right,0.126
MON1991WRNO,2019-10-24-11-04-57,9,74,0.6516879798101417,left,both,ambiguous-switch,91,-10,right,right,2.63
MON1991WRNO,2019-10-24-11-04-57,9,75,0.63461666730191,right,probe,ambiguous-switch,-1,-20,right,right,0.09
MON1991WRNO,2019-10-24-11-04-57,9,76,0.5746095892341441,right,both,ambiguous-switch,106,-20,right,right,1.341
MON1991WRNO,2019-10-24-11-04-57,9,77,0.6368267894236941,right,probe,ambiguous-switch,-1,20,right,right,0.191
MON1991WRNO,2019-10-24-11-04-57,9,78,0.510206056517772,right,both,ambiguous-switch,99,20,right,right,0.093
MON1991WRNO,2019-10-24-11-04-57,9,79,0.6408659424268219,right,probe,biased-switch,-1,20,right,right,1.783
MON1991WRNO,2019-10-24-11-04-57,9,80,0.535134216798781,right,both,biased-switch,97,20,right,right,0.029
MON1991WRNO,2019-10-24-11-04-57,10,1,0.6127898542765476,left,probe,ambiguous-switch,-1,0,right,right,0.225
MON1991WRNO,2019-10-24-11-04-57,10,2,0.5289429000297415,left,both,ambiguous-switch,93,0,right,right,1.326
MON1991WRNO,2019-10-24-11-04-57,10,3,0.6510254382334547,left,probe,ambiguous-switch,-1,-10,right,right,0.209
MON1991WRNO,2019-10-24-11-04-57,10,4,0.6307426052579806,left,both,ambiguous-switch,102,-10,right,right,0.048
MON1991WRNO,2019-10-24-11-04-57,10,5,0.5497375268200709,right,probe,biased-switch,-1,40,right,right,0.077
MON1991WRNO,2019-10-24-11-04-57,10,6,0.6465460986433327,right,both,biased-switch,104,40,right,right,0.924
MON1991WRNO,2019-10-24-11-04-57,10,7,0.6243143262916302,right,probe,ambiguous-switch,-1,-20,right,right,0.439
MON1991WRNO,2019-10-24-11-04-57,10,8,0.6606819729015573,right,both,ambiguous-switch,106,-20,right,right,0.24
MON1991WRNO,2019-10-24-11-04-57,10,9,0.6839372800670738,left,probe,biased-switch,-1,30,right,right,0.236
MON1991WRNO,2019-10-24-11-04-57,10,10,0.6828385452202275,left,both,biased-switch,103,30,right,right,0.246
MON1991WRNO,2019-10-24-11-04-57,10,11,0.6969950500752932,left,probe,biased-switch,-1,-30,right,right,0.084
MON1991WRNO,2019-10-24-11-04-57,10,12,0.6564398177067222,left,both,biased-switch,93,-30,right,right,1.96
MON1991WRNO,2019-10-24-11-04-57,10,13,0.5576519953681556,left,probe,biased-switch,-1,-5,right,right,0.189
MON1991WRNO,2019-10-24-11-04-57,10,14,0.5897452157181184,left,both,biased-switch,92,-5,right,left,0.176
MON1991WRNO,2019-10-24-11-04-57,10,15,0.6816882035738568,right,probe,ambiguous-switch,-1,5,right,right,0.116
MON1991WRNO,2019-10-24-11-04-57,10,16,0.5230295367438886,right,both,ambiguous-switch,99,5,right,right,0.041
MON1991WRNO,2019-10-24-11-04-57,10,17,0.5968514993845127,left,probe,biased-switch,-1,0,right,right,0.038
MON1991WRNO,2019-10-24-11-04-57,10,18,0.6724508884480271,left,both,biased-switch,108,0,right,left,1.809
MON1991WRNO,2019-10-24-11-04-57,10,19,0.675722768843211,left,probe,ambiguous-switch,-1,10,left,left,0.12
MON1991WRNO,2019-10-24-11-04-57,10,20,0.6656889455152696,left,both,ambiguous-switch,103,10,left,left,0.243
MON1991WRNO,2019-10-24-11-04-57,10,21,0.5874332947101402,right,probe,biased-switch,-1,5,right,right,0.231
MON1991WRNO,2019-10-24-11-04-57,10,22,0.6527804257959409,right,both,biased-switch,106,5,right,right,0.307
MON1991WRNO,2019-10-24-11-04-57,10,23,0.5254470688643144,right,probe,ambiguous-switch,-1,40,right,right,0.222
MON1991WRNO,2019-10-24-11-04-57,10,24,0.5875013467672056,right,both,ambiguous-switch,99,40,right,right,0.176
MON1991WRNO,2019-10-24-11-04-57,10,25,0.6750271970422165,left,probe,biased-switch,-1,10,right,right,0.296
MON1991WRNO,2019-10-24-11-04-57,10,26,0.6632567936943718,left,both,biased-switch,99,10,right,left,0.494
MON1991WRNO,2019-10-24-11-04-57,10,27,0.5889423379271854,left,probe,ambiguous-switch,-1,-5,right,right,0.285
MON1991WRNO,2019-10-24-11-04-57,10,28,0.5851554340934948,left,both,ambiguous-switch,96,-5,right,right,0.222
MON1991WRNO,2019-10-24-11-04-57,10,29,0.5134402160416864,left,probe,biased-switch,-1,-10,right,right,0.284
MON1991WRNO,2019-10-24-11-04-57,10,30,0.5456712263492345,left,both,biased-switch,91,-10,right,right,1.63
MON1991WRNO,2019-10-24-11-04-57,10,31,0.5809099973612092,right,probe,ambiguous-switch,-1,20,right,right,0.185
MON1991WRNO,2019-10-24-11-04-57,10,32,0.6195846593185866,right,both,ambiguous-switch,93,20,right,right,0.079
MON1991WRNO,2019-10-24-11-04-57,10,33,0.507696910329929,right,probe,biased-switch,-1,20,right,right,0.288
MON1991WRNO,2019-10-24-11-04-57,10,34,0.5982007842858071,right,both,biased-switch,110,20,right,left,0.289
MON1991WRNO,2019-10-24-11-04-57,10,35,0.6235084373231395,left,probe,biased-switch,-1,-20,left,left,0.291
MON1991WRNO,2019-10-24-11-04-57,10,36,0.5092283457649768,left,both,biased-switch,99,-20,left,left,0.292
MON1991WRNO,2019-10-24-11-04-57,10,37,0.5104749901494654,right,probe,ambiguous-switch,-1,-30,right,right,0.223
MON1991WRNO,2019-10-24-11-04-57,10,38,0.5551105388079324,right,both,ambiguous-switch,90,-30,right,right,0.267
MON1991WRNO,2019-10-24-11-04-57,10,39,0.5305306326111425,left,probe,ambiguous-switch,-1,30,right,right,0.124
MON1991WRNO,2019-10-24-11-04-57,10,40,0.669640525428667,left,both,ambiguous-switch,93,30,right,right,0.051
MON1991WRNO,2019-10-24-11-04-57,10,41,0.6131848659472351,right,probe,ambiguous-switch,-1,0,right,right,0.124
MON1991WRNO,2019-10-24-11-04-57,10,42,0.5725970137224541,right,both,ambiguous-switch,95,0,right,right,0.157
MON1991WRNO,2019-10-24-11-04-57,10,43,0.6413428398598724,right,probe,ambiguous-switch,-1,-10,right,right,0.114
MON1991WRNO,2019-10-24-11-04-57,10,44,0.5556279539604562,right,both,ambiguous-switch,102,-10,right,right,2.046
MON1991WRNO,2019-10-24-11-04-57,10,45,0.5975792812678306,left,probe,biased-switch,-1,40,right,right,0.141
MON1991WRNO,2019-10-24-11-04-57,10,46,0.5226082868740998,left,both,biased-switch,103,40,right,right,0.137
MON1991WRNO,2019-10-24-11-04-57,10,47,0.5972759209071583,left,probe,ambiguous-switch,-1,-20,right,right,0.276
MON1991WRNO,2019-10-24-11-04-57,10,48,0.6526588509480835,left,both,ambiguous-switch,105,-20,right,right,0.161
MON1991WRNO,2019-10-24-11-04-57,10,49,0.5715286666015107,right,probe,biased-switch,-1,30,right,right,0.245
MON1991WRNO,2019-10-24-11-04-57,10,50,0.5001551040416566,right,both,biased-switch,100,30,right,right,0.188
MON1991WRNO,2019-10-24-11-04-57,10,51,0.6662734251722946,left,probe,biased-switch,-1,-30,right,right,0.202
MON1991WRNO,2019-10-24-11-04-57,10,52,0.6366634806800093,left,both,biased-switch,95,-30,right,right,0.096
MON1991WRNO,2019-10-24-11-04-57,10,53,0.6614004781043702,left,probe,biased-switch,-1,-5,right,right,0.105
MON1991WRNO,2019-10-24-11-04-57,10,54,0.6040018997204573,left,both,biased-switch,91,-5,right,left,0.242
MON1991WRNO,2019-10-24-11-04-57,10,55,0.5286993566732332,left,probe,ambiguous-switch,-1,5,right,right,0.361
MON1991WRNO,2019-10-24-11-04-57,10,56,0.5602284958285857,left,both,ambiguous-switch,99,5,right,left,0.034
MON1991WRNO,2019-10-24-11-04-57,10,57,0.5092876297842679,left,probe,biased-switch,-1,0,left,left,0.15
MON1991WRNO,2019-10-24-11-04-57,10,58,0.5116312737626985,left,both,biased-switch,109,0,left,right,1.08
MON1991WRNO,2019-10-24-11-04-57,10,59,0.6662771583194645,right,probe,ambiguous-switch,-1,10,right,right,0.284
MON1991WRNO,2019-10-24-11-04-57,10,60,0.660777112123714,right,both,ambiguous-switch,105,10,right,right,1.75
MON1991WRNO,2019-10-24-11-04-57,10,61,0.6335768982013854,right,probe,biased-switch,-1,5,right,right,0.235
MON1991WRNO,2019-10-24-11-04-57,10,62,0.5204909583066694,right,both,biased-switch,106,5,right,left,0.169
MON1991WRNO,2019-10-24-11-04-57,10,63,0.5072038132348748,right,probe,ambiguous-switch,-1,40,right,right,0.176
MON1991WRNO,2019-10-24-11-04-57,10,64,0.5474836792614997,right,both,ambiguous-switch,110,40,right,right,0.291
MON1991WRNO,2019-10-24-11-04-57,10,65,0.6760922408306311,left,probe,biased-switch,-1,10,right,right,0.233
MON1991WRNO,2019-10-24-11-04-57,10,66,0.5951665980951403,left,both,biased-switch,92,10,right,left,0.07
MON1991WRNO,2019-10-24-11-04-57,10,67,0.614475810044479,left,probe,ambiguous-switch,-1,-5,left,left,0.256
MON1991WRNO,2019-10-24-11-04-57,10,68,0.5629341349868489,left,both,ambiguous-switch,91,-5,left,left,0.17
MON1991WRNO,2019-10-24-11-04-57,10,69,0.5443350774146434,left,probe,biased-switch,-1,-10,right,right,0.202
MON1991WRNO,2019-10-24-11-04-57,10,70,0.5119684236756258,left,both,biased-switch,96,-10,right,left,0.093
MON1991WRNO,2019-10-24-11-04-57,10,71,0.5037293733735355,left,probe,ambiguous-switch,-1,20,left,left,0.134
MON1991WRNO,2019-10-24-11-04-57,10,72,0.6106339800336376,left,both,ambiguous-switch,92,20,left,left,0.189
MON1991WRNO,2019-10-24-11-04-57,10,73,0.6099967390945995,right,probe,biased-switch,-1,20,left,left,0.123
MON1991WRNO,2019-10-24-11-04-57,10,74,0.6783274432004565,right,both,biased-switch,109,20,left,right,0.211
MON1991WRNO,2019-10-24-11-04-57,10,75,0.5716620302366067,left,probe,biased-switch,-1,-20,right,right,0.27
MON1991WRNO,2019-10-24-11-04-57,10,76,0.649072406809628,left,both,biased-switch,90,-20,right,right,0.155
MON1991WRNO,2019-10-24-11-04-57,10,77,0.6217623563651125,right,probe,ambiguous-switch,-1,-30,right,right,0.073
MON1991WRNO,2019-10-24-11-04-57,10,78,0.644952204454351,right,both,ambiguous-switch,91,-30,right,right,0.033
MON1991WRNO,2019-10-24-11-04-57,10,79,0.600795562662115,right,probe,ambiguous-switch,-1,30,right,right,0.145
MON1991WRNO,2019-10-24-11-04-57,10,80,0.5078459370614968,right,both,ambiguous-switch,100,30,right,right,0.239
