Participant,Session,Block,Trial,OnsetDelay,ProbeLocation,WhatIsReported,Condition,TriggerTime,ProbeSOA,PrimeDirection,Response,RT
MHN1998MRNO,2019-10-07-10-59-56,1,1,0.6963433571308137,right,probe,biased-switch,-1,-30,left,left,0.331
MHN1998MRNO,2019-10-07-10-59-56,1,2,0.6351261394051265,right,both,biased-switch,104,-30,left,left,0.248
MHN1998MRNO,2019-10-07-10-59-56,1,3,0.6089084053157868,right,probe,biased-switch,-1,-5,left,left,0.212
MHN1998MRNO,2019-10-07-10-59-56,1,4,0.6039144343824637,right,both,biased-switch,107,-5,left,left,0.15
MHN1998MRNO,2019-10-07-10-59-56,1,5,0.6316848937933542,right,probe,ambiguous-switch,-1,10,left,left,0.199
MHN1998MRNO,2019-10-07-10-59-56,1,6,0.5860029658005383,right,both,ambiguous-switch,105,10,left,left,0.168
MHN1998MRNO,2019-10-07-10-59-56,1,7,0.6493393416937057,right,probe,ambiguous-switch,-1,-20,left,left,0.216
MHN1998MRNO,2019-10-07-10-59-56,1,8,0.6575674851346952,right,both,ambiguous-switch,96,-20,left,left,0.109
MHN1998MRNO,2019-10-07-10-59-56,1,9,0.6179795135886983,left,probe,ambiguous-switch,-1,-10,left,left,0.095
MHN1998MRNO,2019-10-07-10-59-56,1,10,0.5024749353067997,left,both,ambiguous-switch,105,-10,left,left,0.236
MHN1998MRNO,2019-10-07-10-59-56,1,11,0.6706067635477957,right,probe,ambiguous-switch,-1,5,left,left,0.541
MHN1998MRNO,2019-10-07-10-59-56,1,12,0.6386887400570166,right,both,ambiguous-switch,109,5,left,left,0.153
MHN1998MRNO,2019-10-07-10-59-56,1,13,0.6041854914983925,left,probe,biased-switch,-1,-20,left,left,0.204
MHN1998MRNO,2019-10-07-10-59-56,1,14,0.518075630534548,left,both,biased-switch,104,-20,left,left,0.162
MHN1998MRNO,2019-10-07-10-59-56,1,15,0.5413039028507637,left,probe,ambiguous-switch,-1,20,left,left,0.185
MHN1998MRNO,2019-10-07-10-59-56,1,16,0.5922955269729463,left,both,ambiguous-switch,109,20,left,left,0.138
MHN1998MRNO,2019-10-07-10-59-56,1,17,0.6761640935820825,left,probe,biased-switch,-1,0,left,left,0.212
MHN1998MRNO,2019-10-07-10-59-56,1,18,0.5313075519722689,left,both,biased-switch,101,0,left,left,0.181
MHN1998MRNO,2019-10-07-10-59-56,1,19,0.651701584809554,left,probe,ambiguous-switch,-1,0,left,left,0.13
MHN1998MRNO,2019-10-07-10-59-56,1,20,0.5701465537697942,left,both,ambiguous-switch,107,0,left,left,0.289
MHN1998MRNO,2019-10-07-10-59-56,1,21,0.6643171477414668,right,probe,ambiguous-switch,-1,-5,left,left,0.102
MHN1998MRNO,2019-10-07-10-59-56,1,22,0.5979687467561489,right,both,ambiguous-switch,108,-5,left,left,0.034
MHN1998MRNO,2019-10-07-10-59-56,1,23,0.6169989611302091,left,probe,biased-switch,-1,5,left,left,0.054
MHN1998MRNO,2019-10-07-10-59-56,1,24,0.6731369731157313,left,both,biased-switch,91,5,left,left,0.106
MHN1998MRNO,2019-10-07-10-59-56,1,25,0.5899184957012542,right,probe,ambiguous-switch,-1,30,left,left,0.154
MHN1998MRNO,2019-10-07-10-59-56,1,26,0.5092921289704077,right,both,ambiguous-switch,95,30,left,left,0.139
MHN1998MRNO,2019-10-07-10-59-56,1,27,0.6556207092892581,left,probe,biased-switch,-1,30,left,left,0.128
MHN1998MRNO,2019-10-07-10-59-56,1,28,0.6692346377672006,left,both,biased-switch,96,30,left,left,0.152
MHN1998MRNO,2019-10-07-10-59-56,1,29,0.6519511426681124,left,probe,ambiguous-switch,-1,40,left,left,0.21
MHN1998MRNO,2019-10-07-10-59-56,1,30,0.6841593143643381,left,both,ambiguous-switch,108,40,left,left,0.187
MHN1998MRNO,2019-10-07-10-59-56,1,31,0.6863900945502649,left,probe,biased-switch,-1,10,left,left,0.678
MHN1998MRNO,2019-10-07-10-59-56,1,32,0.6122624814794392,left,both,biased-switch,105,10,left,left,0.182
MHN1998MRNO,2019-10-07-10-59-56,1,33,0.693356103989611,right,probe,biased-switch,-1,20,left,left,0.13
MHN1998MRNO,2019-10-07-10-59-56,1,34,0.6967641342097888,right,both,biased-switch,99,20,left,left,0.018
MHN1998MRNO,2019-10-07-10-59-56,1,35,0.5053385713618314,right,probe,ambiguous-switch,-1,-30,left,left,0.163
MHN1998MRNO,2019-10-07-10-59-56,1,36,0.6336219856252499,right,both,ambiguous-switch,92,-30,left,left,0.147
MHN1998MRNO,2019-10-07-10-59-56,1,37,0.5572810376659356,left,probe,biased-switch,-1,40,left,left,0.022
MHN1998MRNO,2019-10-07-10-59-56,1,38,0.5124684852824155,left,both,biased-switch,97,40,left,left,0.154
MHN1998MRNO,2019-10-07-10-59-56,1,39,0.660573707055301,right,probe,biased-switch,-1,-10,left,left,0.147
MHN1998MRNO,2019-10-07-10-59-56,1,40,0.5917922093498968,right,both,biased-switch,99,-10,left,left,0.14
MHN1998MRNO,2019-10-07-10-59-56,1,41,0.5609571100099617,right,probe,biased-switch,-1,-30,left,left,0.141
MHN1998MRNO,2019-10-07-10-59-56,1,42,0.5350391250546755,right,both,biased-switch,98,-30,left,left,0.189
MHN1998MRNO,2019-10-07-10-59-56,1,43,0.5721831095463024,left,probe,biased-switch,-1,-5,left,left,0.16
MHN1998MRNO,2019-10-07-10-59-56,1,44,0.5236477289646325,left,both,biased-switch,110,-5,left,left,0.19
MHN1998MRNO,2019-10-07-10-59-56,1,45,0.5849356108480003,left,probe,ambiguous-switch,-1,10,left,left,0.101
MHN1998MRNO,2019-10-07-10-59-56,1,46,0.6673315255635133,left,both,ambiguous-switch,105,10,left,left,0.175
MHN1998MRNO,2019-10-07-10-59-56,1,47,0.5923015185603019,left,probe,ambiguous-switch,-1,-20,left,left,0.002
MHN1998MRNO,2019-10-07-10-59-56,1,48,0.5972913137461109,left,both,ambiguous-switch,109,-20,left,left,0.113
MHN1998MRNO,2019-10-07-10-59-56,1,49,0.5526345477303788,left,probe,ambiguous-switch,-1,-10,left,left,0.167
MHN1998MRNO,2019-10-07-10-59-56,1,50,0.5688766132793128,left,both,ambiguous-switch,90,-10,left,right,0.245
MHN1998MRNO,2019-10-07-10-59-56,1,51,0.5849192277164956,left,probe,ambiguous-switch,-1,5,right,right,0.253
MHN1998MRNO,2019-10-07-10-59-56,1,52,0.6002411893396516,left,both,ambiguous-switch,103,5,right,left,0.191
MHN1998MRNO,2019-10-07-10-59-56,1,53,0.6416152166187233,right,probe,biased-switch,-1,-20,left,left,0.086
MHN1998MRNO,2019-10-07-10-59-56,1,54,0.5024868951084147,right,both,biased-switch,103,-20,left,left,0.092
MHN1998MRNO,2019-10-07-10-59-56,1,55,0.6150745390928689,left,probe,ambiguous-switch,-1,20,left,left,0.044
MHN1998MRNO,2019-10-07-10-59-56,1,56,0.5711160193228727,left,both,ambiguous-switch,98,20,left,right,0.278
MHN1998MRNO,2019-10-07-10-59-56,1,57,0.5899015689104575,left,probe,biased-switch,-1,0,right,right,0.132
MHN1998MRNO,2019-10-07-10-59-56,1,58,0.5383488205419094,left,both,biased-switch,104,0,right,left,0.2
MHN1998MRNO,2019-10-07-10-59-56,1,59,0.5804767677258231,right,probe,ambiguous-switch,-1,0,left,left,1.053
MHN1998MRNO,2019-10-07-10-59-56,1,60,0.5266501952700123,right,both,ambiguous-switch,91,0,left,left,0.078
MHN1998MRNO,2019-10-07-10-59-56,1,61,0.583228563961191,left,probe,ambiguous-switch,-1,-5,left,left,0.094
MHN1998MRNO,2019-10-07-10-59-56,1,62,0.6197966115420055,left,both,ambiguous-switch,100,-5,left,left,0.181
MHN1998MRNO,2019-10-07-10-59-56,1,63,0.6784115742715264,left,probe,biased-switch,-1,5,left,left,0.145
MHN1998MRNO,2019-10-07-10-59-56,1,64,0.5848527122487921,left,both,biased-switch,97,5,left,right,0.365
MHN1998MRNO,2019-10-07-10-59-56,1,65,0.5553587659800511,left,probe,ambiguous-switch,-1,30,right,right,0.357
MHN1998MRNO,2019-10-07-10-59-56,1,66,0.6368848576741002,left,both,ambiguous-switch,105,30,right,right,0.458
MHN1998MRNO,2019-10-07-10-59-56,1,67,0.5324155153639586,right,probe,biased-switch,-1,30,right,right,0.251
MHN1998MRNO,2019-10-07-10-59-56,1,68,0.5868340933535207,right,both,biased-switch,108,30,right,left,0.15
MHN1998MRNO,2019-10-07-10-59-56,1,69,0.6243257465324948,right,probe,ambiguous-switch,-1,40,left,left,0.078
MHN1998MRNO,2019-10-07-10-59-56,1,70,0.6236682851956676,right,both,ambiguous-switch,102,40,left,left,0.126
MHN1998MRNO,2019-10-07-10-59-56,1,71,0.5601757822479049,left,probe,biased-switch,-1,10,right,right,0.132
MHN1998MRNO,2019-10-07-10-59-56,1,72,0.5441873958882704,left,both,biased-switch,101,10,right,left,0.153
MHN1998MRNO,2019-10-07-10-59-56,1,73,0.6325445039798056,right,probe,biased-switch,-1,20,left,left,0.169
MHN1998MRNO,2019-10-07-10-59-56,1,74,0.5782472397060553,right,both,biased-switch,92,20,left,left,0.357
MHN1998MRNO,2019-10-07-10-59-56,1,75,0.523200426332401,left,probe,ambiguous-switch,-1,-30,right,right,0.089
MHN1998MRNO,2019-10-07-10-59-56,1,76,0.6034107150112747,left,both,ambiguous-switch,99,-30,right,right,0.172
MHN1998MRNO,2019-10-07-10-59-56,1,77,0.6605548180690491,left,probe,biased-switch,-1,40,right,right,1.315
MHN1998MRNO,2019-10-07-10-59-56,1,78,0.5586499986478599,left,both,biased-switch,99,40,right,right,0.257
MHN1998MRNO,2019-10-07-10-59-56,1,79,0.6542386284620614,left,probe,biased-switch,-1,-10,right,right,0.112
MHN1998MRNO,2019-10-07-10-59-56,1,80,0.5943211556177295,left,both,biased-switch,105,-10,right,right,0.017
MHN1998MRNO,2019-10-07-10-59-56,2,1,0.5058300943611043,left,probe,biased-switch,-1,0,right,right,0.207
MHN1998MRNO,2019-10-07-10-59-56,2,2,0.5172299454433323,left,both,biased-switch,101,0,right,right,0.185
MHN1998MRNO,2019-10-07-10-59-56,2,3,0.5316513159300841,right,probe,ambiguous-switch,-1,20,left,left,0.126
MHN1998MRNO,2019-10-07-10-59-56,2,4,0.644062452325292,right,both,ambiguous-switch,94,20,left,left,0.118
MHN1998MRNO,2019-10-07-10-59-56,2,5,0.6836897475355372,right,probe,ambiguous-switch,-1,40,left,left,0.133
MHN1998MRNO,2019-10-07-10-59-56,2,6,0.6673627927180875,right,both,ambiguous-switch,97,40,left,left,0.137
MHN1998MRNO,2019-10-07-10-59-56,2,7,0.6081029128905989,left,probe,ambiguous-switch,-1,-30,left,left,0.076
MHN1998MRNO,2019-10-07-10-59-56,2,8,0.6792783123951183,left,both,ambiguous-switch,109,-30,left,right,0.124
MHN1998MRNO,2019-10-07-10-59-56,2,9,0.6510705343799321,left,probe,biased-switch,-1,5,right,right,0.193
MHN1998MRNO,2019-10-07-10-59-56,2,10,0.6509499485451842,left,both,biased-switch,103,5,right,right,0.148
MHN1998MRNO,2019-10-07-10-59-56,2,11,0.5518959886633287,left,probe,biased-switch,-1,-30,right,right,0.258
MHN1998MRNO,2019-10-07-10-59-56,2,12,0.6306431711275227,left,both,biased-switch,109,-30,right,right,0.06
MHN1998MRNO,2019-10-07-10-59-56,2,13,0.5355422601880939,right,probe,biased-switch,-1,40,right,right,0.284
MHN1998MRNO,2019-10-07-10-59-56,2,14,0.6368315867277088,right,both,biased-switch,92,40,right,right,0.631
MHN1998MRNO,2019-10-07-10-59-56,2,15,0.6394072465726022,left,probe,ambiguous-switch,-1,-10,right,right,0.691
MHN1998MRNO,2019-10-07-10-59-56,2,16,0.5364456796120157,left,both,ambiguous-switch,102,-10,right,right,0.234
MHN1998MRNO,2019-10-07-10-59-56,2,17,0.655732714360646,right,probe,biased-switch,-1,20,right,right,0.351
MHN1998MRNO,2019-10-07-10-59-56,2,18,0.5676656572968815,right,both,biased-switch,108,20,right,right,0.249
MHN1998MRNO,2019-10-07-10-59-56,2,19,0.6089012496992924,left,probe,biased-switch,-1,30,right,right,0.208
MHN1998MRNO,2019-10-07-10-59-56,2,20,0.5812994014586289,left,both,biased-switch,94,30,right,right,0.046
MHN1998MRNO,2019-10-07-10-59-56,2,21,0.686301868732622,right,probe,ambiguous-switch,-1,5,right,right,0.144
MHN1998MRNO,2019-10-07-10-59-56,2,22,0.6256757346475592,right,both,ambiguous-switch,110,5,right,left,0.182
MHN1998MRNO,2019-10-07-10-59-56,2,23,0.6623971544058544,right,probe,ambiguous-switch,-1,-20,left,left,0.06
MHN1998MRNO,2019-10-07-10-59-56,2,24,0.5448272362556785,right,both,ambiguous-switch,100,-20,left,left,0.149
MHN1998MRNO,2019-10-07-10-59-56,2,25,0.6415155538470928,left,probe,ambiguous-switch,-1,-5,right,right,0.184
MHN1998MRNO,2019-10-07-10-59-56,2,26,0.5367795928458575,left,both,ambiguous-switch,95,-5,right,right,0.237
MHN1998MRNO,2019-10-07-10-59-56,2,27,0.635514047343813,left,probe,biased-switch,-1,-5,right,right,0.298
MHN1998MRNO,2019-10-07-10-59-56,2,28,0.501550327551514,left,both,biased-switch,90,-5,right,right,0.283
MHN1998MRNO,2019-10-07-10-59-56,2,29,0.5095387459305805,left,probe,ambiguous-switch,-1,10,right,right,0.239
MHN1998MRNO,2019-10-07-10-59-56,2,30,0.6615748710962248,left,both,ambiguous-switch,94,10,right,right,0.216
MHN1998MRNO,2019-10-07-10-59-56,2,31,0.6953464334187751,right,probe,biased-switch,-1,10,right,right,0.134
MHN1998MRNO,2019-10-07-10-59-56,2,32,0.5893968752082731,right,both,biased-switch,107,10,right,left,0.225
MHN1998MRNO,2019-10-07-10-59-56,2,33,0.609268821793088,right,probe,ambiguous-switch,-1,0,right,right,0.147
MHN1998MRNO,2019-10-07-10-59-56,2,34,0.6851762354476572,right,both,ambiguous-switch,94,0,right,right,0.095
MHN1998MRNO,2019-10-07-10-59-56,2,35,0.5237383474547367,right,probe,biased-switch,-1,-10,right,right,0.104
MHN1998MRNO,2019-10-07-10-59-56,2,36,0.5987350867753979,right,both,biased-switch,102,-10,right,right,0.18
MHN1998MRNO,2019-10-07-10-59-56,2,37,0.6475405110001042,right,probe,ambiguous-switch,-1,30,right,right,1.975
MHN1998MRNO,2019-10-07-10-59-56,2,38,0.6921546216631137,right,both,ambiguous-switch,97,30,right,right,0.16
MHN1998MRNO,2019-10-07-10-59-56,2,39,0.5342449897846182,right,probe,biased-switch,-1,-20,right,right,0.088
MHN1998MRNO,2019-10-07-10-59-56,2,40,0.5179893705908937,right,both,biased-switch,95,-20,right,right,0.154
MHN1998MRNO,2019-10-07-10-59-56,2,41,0.5344954841960614,right,probe,biased-switch,-1,0,right,right,0.154
MHN1998MRNO,2019-10-07-10-59-56,2,42,0.6774992064449139,right,both,biased-switch,104,0,right,right,0.223
MHN1998MRNO,2019-10-07-10-59-56,2,43,0.6702070430495124,right,probe,ambiguous-switch,-1,20,right,right,0.283
MHN1998MRNO,2019-10-07-10-59-56,2,44,0.5008514430353916,right,both,ambiguous-switch,107,20,right,right,0.218
MHN1998MRNO,2019-10-07-10-59-56,2,45,0.6987569368907274,left,probe,ambiguous-switch,-1,40,right,right,0.152
MHN1998MRNO,2019-10-07-10-59-56,2,46,0.6429335294656064,left,both,ambiguous-switch,104,40,right,right,0.24
MHN1998MRNO,2019-10-07-10-59-56,2,47,0.635871810648093,right,probe,ambiguous-switch,-1,-30,right,right,0.168
MHN1998MRNO,2019-10-07-10-59-56,2,48,0.6964277980176325,right,both,ambiguous-switch,104,-30,right,right,0.124
MHN1998MRNO,2019-10-07-10-59-56,2,49,0.6660671653035396,left,probe,biased-switch,-1,5,right,right,0.176
MHN1998MRNO,2019-10-07-10-59-56,2,50,0.5829968717434244,left,both,biased-switch,98,5,right,left,0.214
MHN1998MRNO,2019-10-07-10-59-56,2,51,0.6670866384335857,right,probe,biased-switch,-1,-30,right,right,0.328
MHN1998MRNO,2019-10-07-10-59-56,2,52,0.5407798319737218,right,both,biased-switch,109,-30,right,right,0.176
MHN1998MRNO,2019-10-07-10-59-56,2,53,0.5244347201401833,right,probe,biased-switch,-1,40,right,right,0.213
MHN1998MRNO,2019-10-07-10-59-56,2,54,0.6202746899160312,right,both,biased-switch,106,40,right,right,0.355
MHN1998MRNO,2019-10-07-10-59-56,2,55,0.6777464319867588,right,probe,ambiguous-switch,-1,-10,right,right,0.256
MHN1998MRNO,2019-10-07-10-59-56,2,56,0.674240326683756,right,both,ambiguous-switch,94,-10,right,right,0.158
MHN1998MRNO,2019-10-07-10-59-56,2,57,0.6623802880089251,left,probe,biased-switch,-1,20,right,right,0.17
MHN1998MRNO,2019-10-07-10-59-56,2,58,0.5549086797798092,left,both,biased-switch,98,20,right,right,0.14
MHN1998MRNO,2019-10-07-10-59-56,2,59,0.5248086467937565,left,probe,biased-switch,-1,30,right,right,0.136
MHN1998MRNO,2019-10-07-10-59-56,2,60,0.6445493395088054,left,both,biased-switch,109,30,right,right,0.169
MHN1998MRNO,2019-10-07-10-59-56,2,61,0.687102129477818,right,probe,ambiguous-switch,-1,5,right,right,0.168
MHN1998MRNO,2019-10-07-10-59-56,2,62,0.6420791766827769,right,both,ambiguous-switch,106,5,right,left,0.225
MHN1998MRNO,2019-10-07-10-59-56,2,63,0.5050676464653849,right,probe,ambiguous-switch,-1,-20,right,right,0.212
MHN1998MRNO,2019-10-07-10-59-56,2,64,0.6272997098724272,right,both,ambiguous-switch,100,-20,right,right,0.217
MHN1998MRNO,2019-10-07-10-59-56,2,65,0.5827108159519425,right,probe,ambiguous-switch,-1,-5,right,right,0.145
MHN1998MRNO,2019-10-07-10-59-56,2,66,0.5735041416260097,right,both,ambiguous-switch,97,-5,right,right,0.156
MHN1998MRNO,2019-10-07-10-59-56,2,67,0.5548158181181857,left,probe,biased-switch,-1,-5,right,right,0.131
MHN1998MRNO,2019-10-07-10-59-56,2,68,0.6958736023457386,left,both,biased-switch,99,-5,right,right,0.071
MHN1998MRNO,2019-10-07-10-59-56,2,69,0.5665623507381796,left,probe,ambiguous-switch,-1,10,right,right,0.048
MHN1998MRNO,2019-10-07-10-59-56,2,70,0.6735197790492773,left,both,ambiguous-switch,107,10,right,right,0.194
MHN1998MRNO,2019-10-07-10-59-56,2,71,0.6744048971835098,right,probe,biased-switch,-1,10,right,right,0.193
MHN1998MRNO,2019-10-07-10-59-56,2,72,0.6123542090336327,right,both,biased-switch,104,10,right,right,0.25
MHN1998MRNO,2019-10-07-10-59-56,2,73,0.5088963323862634,left,probe,ambiguous-switch,-1,0,right,right,0.29
MHN1998MRNO,2019-10-07-10-59-56,2,74,0.5036890044714668,left,both,ambiguous-switch,95,0,right,right,0.182
MHN1998MRNO,2019-10-07-10-59-56,2,75,0.6512404966847535,left,probe,biased-switch,-1,-10,right,right,0.206
MHN1998MRNO,2019-10-07-10-59-56,2,76,0.6939025805722816,left,both,biased-switch,97,-10,right,right,0.208
MHN1998MRNO,2019-10-07-10-59-56,2,77,0.5621102521804299,right,probe,ambiguous-switch,-1,30,right,right,0.183
MHN1998MRNO,2019-10-07-10-59-56,2,78,0.5213005744335486,right,both,ambiguous-switch,107,30,right,right,0.244
MHN1998MRNO,2019-10-07-10-59-56,2,79,0.6078536789396933,left,probe,biased-switch,-1,-20,right,right,0.141
MHN1998MRNO,2019-10-07-10-59-56,2,80,0.5463779801909121,left,both,biased-switch,108,-20,right,right,0.195
MHN1998MRNO,2019-10-07-10-59-56,3,1,0.6133269616589249,left,probe,biased-switch,-1,-30,right,right,0.221
MHN1998MRNO,2019-10-07-10-59-56,3,2,0.5630015316174426,left,both,biased-switch,102,-30,right,right,0.204
MHN1998MRNO,2019-10-07-10-59-56,3,3,0.5756182841713642,left,probe,biased-switch,-1,5,right,right,0.084
MHN1998MRNO,2019-10-07-10-59-56,3,4,0.559701040170469,left,both,biased-switch,97,5,right,right,0.12
MHN1998MRNO,2019-10-07-10-59-56,3,5,0.5483414254592164,right,probe,ambiguous-switch,-1,-20,right,right,0.128
MHN1998MRNO,2019-10-07-10-59-56,3,6,0.5113530236616068,right,both,ambiguous-switch,104,-20,right,right,0.129
MHN1998MRNO,2019-10-07-10-59-56,3,7,0.5250950616516151,right,probe,ambiguous-switch,-1,0,right,right,0.144
MHN1998MRNO,2019-10-07-10-59-56,3,8,0.5981897996227268,right,both,ambiguous-switch,92,0,right,right,0.157
MHN1998MRNO,2019-10-07-10-59-56,3,9,0.5184534403350617,right,probe,ambiguous-switch,-1,5,right,right,0.259
MHN1998MRNO,2019-10-07-10-59-56,3,10,0.5704297603182461,right,both,ambiguous-switch,109,5,right,right,0.22
MHN1998MRNO,2019-10-07-10-59-56,3,11,0.6672989175323198,left,probe,biased-switch,-1,0,right,right,0.233
MHN1998MRNO,2019-10-07-10-59-56,3,12,0.5007978105549812,left,both,biased-switch,104,0,right,right,0.168
MHN1998MRNO,2019-10-07-10-59-56,3,13,0.6624563592223406,right,probe,ambiguous-switch,-1,-5,right,right,0.19
MHN1998MRNO,2019-10-07-10-59-56,3,14,0.5861739574427498,right,both,ambiguous-switch,92,-5,right,right,0.181
MHN1998MRNO,2019-10-07-10-59-56,3,15,0.6707215460815854,right,probe,ambiguous-switch,-1,10,right,right,0.148
MHN1998MRNO,2019-10-07-10-59-56,3,16,0.5542718255589879,right,both,ambiguous-switch,95,10,right,right,0.095
MHN1998MRNO,2019-10-07-10-59-56,3,17,0.546043616930724,left,probe,biased-switch,-1,-5,right,right,0.189
MHN1998MRNO,2019-10-07-10-59-56,3,18,0.5688766612819144,left,both,biased-switch,93,-5,right,right,0.174
MHN1998MRNO,2019-10-07-10-59-56,3,19,0.5227765114267989,right,probe,ambiguous-switch,-1,20,right,right,0.112
MHN1998MRNO,2019-10-07-10-59-56,3,20,0.6021332360362452,right,both,ambiguous-switch,108,20,right,right,0.149
MHN1998MRNO,2019-10-07-10-59-56,3,21,0.6899586240186653,left,probe,biased-switch,-1,30,right,right,0.106
MHN1998MRNO,2019-10-07-10-59-56,3,22,0.6561395960566843,left,both,biased-switch,91,30,right,right,0.222
MHN1998MRNO,2019-10-07-10-59-56,3,23,0.6704159652612074,right,probe,biased-switch,-1,10,right,right,0.282
MHN1998MRNO,2019-10-07-10-59-56,3,24,0.5371477434254482,right,both,biased-switch,92,10,right,right,0.423
MHN1998MRNO,2019-10-07-10-59-56,3,25,0.5898514888717833,right,probe,biased-switch,-1,-10,right,right,0.246
MHN1998MRNO,2019-10-07-10-59-56,3,26,0.6419740084813499,right,both,biased-switch,109,-10,right,right,0.233
MHN1998MRNO,2019-10-07-10-59-56,3,27,0.5104408712350437,left,probe,biased-switch,-1,-20,right,right,0.255
MHN1998MRNO,2019-10-07-10-59-56,3,28,0.6973749734031868,left,both,biased-switch,96,-20,right,right,0.725
MHN1998MRNO,2019-10-07-10-59-56,3,29,0.6031754345672643,left,probe,ambiguous-switch,-1,30,right,right,0.273
MHN1998MRNO,2019-10-07-10-59-56,3,30,0.5900591747989158,left,both,ambiguous-switch,98,30,right,right,0.306
MHN1998MRNO,2019-10-07-10-59-56,3,31,0.5011532089149282,right,probe,biased-switch,-1,20,right,right,0.509
MHN1998MRNO,2019-10-07-10-59-56,3,32,0.6074552074068014,right,both,biased-switch,101,20,right,right,0.295
MHN1998MRNO,2019-10-07-10-59-56,3,33,0.6686464863244957,right,probe,ambiguous-switch,-1,40,right,right,0.231
MHN1998MRNO,2019-10-07-10-59-56,3,34,0.5690670910264274,right,both,ambiguous-switch,102,40,right,right,0.205
MHN1998MRNO,2019-10-07-10-59-56,3,35,0.6437182542270177,left,probe,ambiguous-switch,-1,-10,right,right,0.233
MHN1998MRNO,2019-10-07-10-59-56,3,36,0.698845889702423,left,both,ambiguous-switch,102,-10,right,right,0.23
MHN1998MRNO,2019-10-07-10-59-56,3,37,0.6242376287941953,right,probe,biased-switch,-1,40,right,right,0.222
MHN1998MRNO,2019-10-07-10-59-56,3,38,0.635496271581131,right,both,biased-switch,108,40,right,right,0.237
MHN1998MRNO,2019-10-07-10-59-56,3,39,0.6294723713887929,right,probe,ambiguous-switch,-1,-30,right,right,0.218
MHN1998MRNO,2019-10-07-10-59-56,3,40,0.6553069368757067,right,both,ambiguous-switch,108,-30,right,right,0.194
MHN1998MRNO,2019-10-07-10-59-56,3,41,0.553307975499014,right,probe,biased-switch,-1,-30,right,right,0.114
MHN1998MRNO,2019-10-07-10-59-56,3,42,0.672795840302882,right,both,biased-switch,93,-30,right,right,0.207
MHN1998MRNO,2019-10-07-10-59-56,3,43,0.634990941543521,right,probe,biased-switch,-1,5,right,right,0.147
MHN1998MRNO,2019-10-07-10-59-56,3,44,0.6115477211746654,right,both,biased-switch,103,5,right,right,0.148
MHN1998MRNO,2019-10-07-10-59-56,3,45,0.6484659687446126,left,probe,ambiguous-switch,-1,-20,right,right,0.182
MHN1998MRNO,2019-10-07-10-59-56,3,46,0.5840084146303215,left,both,ambiguous-switch,101,-20,right,right,0.202
MHN1998MRNO,2019-10-07-10-59-56,3,47,0.6366418171702019,left,probe,ambiguous-switch,-1,0,right,right,0.162
MHN1998MRNO,2019-10-07-10-59-56,3,48,0.5519587987709332,left,both,ambiguous-switch,104,0,right,right,0.179
MHN1998MRNO,2019-10-07-10-59-56,3,49,0.545627258052636,left,probe,ambiguous-switch,-1,5,right,right,0.146
MHN1998MRNO,2019-10-07-10-59-56,3,50,0.5081973032652627,left,both,ambiguous-switch,95,5,right,right,0.162
MHN1998MRNO,2019-10-07-10-59-56,3,51,0.5838228580538842,right,probe,biased-switch,-1,0,right,right,0.227
MHN1998MRNO,2019-10-07-10-59-56,3,52,0.672532429258153,right,both,biased-switch,93,0,right,right,0.179
MHN1998MRNO,2019-10-07-10-59-56,3,53,0.6289903885200487,right,probe,ambiguous-switch,-1,-5,right,right,0.119
MHN1998MRNO,2019-10-07-10-59-56,3,54,0.5551134656169914,right,both,ambiguous-switch,107,-5,right,right,0.201
MHN1998MRNO,2019-10-07-10-59-56,3,55,0.5711505253705206,right,probe,ambiguous-switch,-1,10,right,right,0.168
MHN1998MRNO,2019-10-07-10-59-56,3,56,0.6575797815091494,right,both,ambiguous-switch,108,10,right,right,0.163
MHN1998MRNO,2019-10-07-10-59-56,3,57,0.6651099685907383,left,probe,biased-switch,-1,-5,right,right,0.405
MHN1998MRNO,2019-10-07-10-59-56,3,58,0.6116002008892907,left,both,biased-switch,99,-5,right,right,0.142
MHN1998MRNO,2019-10-07-10-59-56,3,59,0.6666741841917869,right,probe,ambiguous-switch,-1,20,right,right,0.186
MHN1998MRNO,2019-10-07-10-59-56,3,60,0.5366474887907331,right,both,ambiguous-switch,91,20,right,right,0.108
MHN1998MRNO,2019-10-07-10-59-56,3,61,0.6203965154209055,right,probe,biased-switch,-1,30,right,right,0.088
MHN1998MRNO,2019-10-07-10-59-56,3,62,0.6706229439191549,right,both,biased-switch,103,30,right,right,0.205
MHN1998MRNO,2019-10-07-10-59-56,3,63,0.5286047578289936,left,probe,biased-switch,-1,10,right,right,0.282
MHN1998MRNO,2019-10-07-10-59-56,3,64,0.5806795805303494,left,both,biased-switch,96,10,right,right,0.215
MHN1998MRNO,2019-10-07-10-59-56,3,65,0.6520038167585179,right,probe,biased-switch,-1,-10,right,right,0.189
MHN1998MRNO,2019-10-07-10-59-56,3,66,0.6802804768340533,right,both,biased-switch,109,-10,right,right,0.143
MHN1998MRNO,2019-10-07-10-59-56,3,67,0.6800277239379886,right,probe,biased-switch,-1,-20,right,right,0.3
MHN1998MRNO,2019-10-07-10-59-56,3,68,0.5568437703881403,right,both,biased-switch,109,-20,right,right,0.063
MHN1998MRNO,2019-10-07-10-59-56,3,69,0.5486085614584899,right,probe,ambiguous-switch,-1,30,right,right,0.203
MHN1998MRNO,2019-10-07-10-59-56,3,70,0.6507642611593524,right,both,ambiguous-switch,103,30,right,right,0.183
MHN1998MRNO,2019-10-07-10-59-56,3,71,0.5089816464841902,right,probe,biased-switch,-1,20,right,right,0.176
MHN1998MRNO,2019-10-07-10-59-56,3,72,0.6710966824976872,right,both,biased-switch,110,20,right,right,0.174
MHN1998MRNO,2019-10-07-10-59-56,3,73,0.6171157560779117,left,probe,ambiguous-switch,-1,40,right,right,0.228
MHN1998MRNO,2019-10-07-10-59-56,3,74,0.5796517729638764,left,both,ambiguous-switch,92,40,right,right,0.218
MHN1998MRNO,2019-10-07-10-59-56,3,75,0.5650646335475906,right,probe,ambiguous-switch,-1,-10,right,right,0.146
MHN1998MRNO,2019-10-07-10-59-56,3,76,0.668224987056844,right,both,ambiguous-switch,99,-10,right,right,0.253
MHN1998MRNO,2019-10-07-10-59-56,3,77,0.5783014057209679,left,probe,biased-switch,-1,40,right,right,0.221
MHN1998MRNO,2019-10-07-10-59-56,3,78,0.5031154705092828,left,both,biased-switch,97,40,right,right,0.253
MHN1998MRNO,2019-10-07-10-59-56,3,79,0.604290291711737,left,probe,ambiguous-switch,-1,-30,right,right,0.104
MHN1998MRNO,2019-10-07-10-59-56,3,80,0.5597391621422854,left,both,ambiguous-switch,91,-30,right,right,0.219
MHN1998MRNO,2019-10-07-10-59-56,4,1,0.5820314046508454,right,probe,ambiguous-switch,-1,-10,right,right,0.236
MHN1998MRNO,2019-10-07-10-59-56,4,2,0.5669360312207233,right,both,ambiguous-switch,105,-10,right,right,0.204
MHN1998MRNO,2019-10-07-10-59-56,4,3,0.6844993351142612,left,probe,biased-switch,-1,20,right,right,0.178
MHN1998MRNO,2019-10-07-10-59-56,4,4,0.5670696454580548,left,both,biased-switch,97,20,right,right,0.142
MHN1998MRNO,2019-10-07-10-59-56,4,5,0.5310004171309414,left,probe,biased-switch,-1,5,right,right,0.132
MHN1998MRNO,2019-10-07-10-59-56,4,6,0.5257571039876701,left,both,biased-switch,104,5,right,left,0.263
MHN1998MRNO,2019-10-07-10-59-56,4,7,0.5190393351444998,left,probe,ambiguous-switch,-1,-20,right,right,0.123
MHN1998MRNO,2019-10-07-10-59-56,4,8,0.5349580468665425,left,both,ambiguous-switch,108,-20,right,right,0.196
MHN1998MRNO,2019-10-07-10-59-56,4,9,0.531187596703142,right,probe,biased-switch,-1,-30,right,right,0.198
MHN1998MRNO,2019-10-07-10-59-56,4,10,0.5375145139342336,right,both,biased-switch,94,-30,right,right,0.177
MHN1998MRNO,2019-10-07-10-59-56,4,11,0.6933045703326334,right,probe,ambiguous-switch,-1,10,right,right,0.179
MHN1998MRNO,2019-10-07-10-59-56,4,12,0.6703961994384271,right,both,ambiguous-switch,103,10,right,left,0.185
MHN1998MRNO,2019-10-07-10-59-56,4,13,0.6529294015499171,right,probe,biased-switch,-1,-5,right,right,0.163
MHN1998MRNO,2019-10-07-10-59-56,4,14,0.6858795886058012,right,both,biased-switch,98,-5,right,left,0.185
MHN1998MRNO,2019-10-07-10-59-56,4,15,0.542884280159951,right,probe,biased-switch,-1,-10,right,right,0.09
MHN1998MRNO,2019-10-07-10-59-56,4,16,0.6069254912972641,right,both,biased-switch,105,-10,right,right,0.122
MHN1998MRNO,2019-10-07-10-59-56,4,17,0.6122136637446669,right,probe,ambiguous-switch,-1,5,right,right,0.09
MHN1998MRNO,2019-10-07-10-59-56,4,18,0.5931506865593463,right,both,ambiguous-switch,105,5,right,left,0.203
MHN1998MRNO,2019-10-07-10-59-56,4,19,0.5796132093308365,right,probe,ambiguous-switch,-1,30,right,right,0.108
MHN1998MRNO,2019-10-07-10-59-56,4,20,0.5918560246521988,right,both,ambiguous-switch,95,30,right,right,0.26
MHN1998MRNO,2019-10-07-10-59-56,4,21,0.6658150259600587,left,probe,ambiguous-switch,-1,-30,right,right,0.164
MHN1998MRNO,2019-10-07-10-59-56,4,22,0.5564113662152526,left,both,ambiguous-switch,96,-30,right,right,0.201
MHN1998MRNO,2019-10-07-10-59-56,4,23,0.6172229918468193,left,probe,ambiguous-switch,-1,20,right,right,0.129
MHN1998MRNO,2019-10-07-10-59-56,4,24,0.6446208235112136,left,both,ambiguous-switch,93,20,right,right,0.072
MHN1998MRNO,2019-10-07-10-59-56,4,25,0.5279735856486459,left,probe,biased-switch,-1,30,right,right,0.161
MHN1998MRNO,2019-10-07-10-59-56,4,26,0.6270423884480433,left,both,biased-switch,101,30,right,right,0.164
MHN1998MRNO,2019-10-07-10-59-56,4,27,0.6949636259704881,left,probe,ambiguous-switch,-1,0,right,right,0.088
MHN1998MRNO,2019-10-07-10-59-56,4,28,0.6802916742550854,left,both,ambiguous-switch,92,0,right,left,0.242
MHN1998MRNO,2019-10-07-10-59-56,4,29,0.501825255960474,left,probe,ambiguous-switch,-1,-5,right,right,0.221
MHN1998MRNO,2019-10-07-10-59-56,4,30,0.542692036540493,left,both,ambiguous-switch,91,-5,right,right,0.166
MHN1998MRNO,2019-10-07-10-59-56,4,31,0.644534492449082,right,probe,biased-switch,-1,40,right,right,0.185
MHN1998MRNO,2019-10-07-10-59-56,4,32,0.6910104013989596,right,both,biased-switch,101,40,right,right,0.179
MHN1998MRNO,2019-10-07-10-59-56,4,33,0.6618326091217046,left,probe,ambiguous-switch,-1,40,right,right,0.272
MHN1998MRNO,2019-10-07-10-59-56,4,34,0.6886787940833989,left,both,ambiguous-switch,107,40,right,right,0.251
MHN1998MRNO,2019-10-07-10-59-56,4,35,0.5580501648062404,left,probe,biased-switch,-1,10,right,right,0.459
MHN1998MRNO,2019-10-07-10-59-56,4,36,0.6572775937722545,left,both,biased-switch,95,10,right,left,0.257
MHN1998MRNO,2019-10-07-10-59-56,4,37,0.6758752248856859,right,probe,biased-switch,-1,-20,right,right,0.215
MHN1998MRNO,2019-10-07-10-59-56,4,38,0.5699668781401073,right,both,biased-switch,108,-20,right,right,0.111
MHN1998MRNO,2019-10-07-10-59-56,4,39,0.5944173791522901,left,probe,biased-switch,-1,0,right,right,0.191
MHN1998MRNO,2019-10-07-10-59-56,4,40,0.5020007806557343,left,both,biased-switch,93,0,right,right,0.083
MHN1998MRNO,2019-10-07-10-59-56,4,41,0.6786854877003443,right,probe,ambiguous-switch,-1,-10,right,right,0.233
MHN1998MRNO,2019-10-07-10-59-56,4,42,0.5840579590619955,right,both,ambiguous-switch,103,-10,right,right,0.247
MHN1998MRNO,2019-10-07-10-59-56,4,43,0.531315306067224,right,probe,biased-switch,-1,20,right,right,0.196
MHN1998MRNO,2019-10-07-10-59-56,4,44,0.5856567531634232,right,both,biased-switch,99,20,right,left,0.256
MHN1998MRNO,2019-10-07-10-59-56,4,45,0.689994702766866,right,probe,biased-switch,-1,5,right,right,0.18
MHN1998MRNO,2019-10-07-10-59-56,4,46,0.647887970408484,right,both,biased-switch,101,5,right,left,0.222
MHN1998MRNO,2019-10-07-10-59-56,4,47,0.6658736772170385,left,probe,ambiguous-switch,-1,-20,right,right,0.145
MHN1998MRNO,2019-10-07-10-59-56,4,48,0.5911766288066466,left,both,ambiguous-switch,97,-20,right,right,0.189
MHN1998MRNO,2019-10-07-10-59-56,4,49,0.560745652749266,right,probe,biased-switch,-1,-30,right,right,0.096
MHN1998MRNO,2019-10-07-10-59-56,4,50,0.5172195379924632,right,both,biased-switch,105,-30,right,right,0.276
MHN1998MRNO,2019-10-07-10-59-56,4,51,0.5381606037055608,left,probe,ambiguous-switch,-1,10,right,right,0.17
MHN1998MRNO,2019-10-07-10-59-56,4,52,0.5012907795742366,left,both,ambiguous-switch,93,10,right,left,0.237
MHN1998MRNO,2019-10-07-10-59-56,4,53,0.5123114054733374,right,probe,biased-switch,-1,-5,right,right,0.13
MHN1998MRNO,2019-10-07-10-59-56,4,54,0.6341476857691991,right,both,biased-switch,104,-5,right,left,0.28
MHN1998MRNO,2019-10-07-10-59-56,4,55,0.5906059459317073,right,probe,biased-switch,-1,-10,left,left,0.176
MHN1998MRNO,2019-10-07-10-59-56,4,56,0.5822567903750954,right,both,biased-switch,90,-10,left,left,0.185
MHN1998MRNO,2019-10-07-10-59-56,4,57,0.5046422881213388,left,probe,ambiguous-switch,-1,5,left,left,0.134
MHN1998MRNO,2019-10-07-10-59-56,4,58,0.524821502332164,left,both,ambiguous-switch,102,5,left,right,0.178
MHN1998MRNO,2019-10-07-10-59-56,4,59,0.5853698353899298,right,probe,ambiguous-switch,-1,30,left,left,0.17
MHN1998MRNO,2019-10-07-10-59-56,4,60,0.5995940227906478,right,both,ambiguous-switch,107,30,left,left,0.188
MHN1998MRNO,2019-10-07-10-59-56,4,61,0.5069806878482723,left,probe,ambiguous-switch,-1,-30,left,left,0.172
MHN1998MRNO,2019-10-07-10-59-56,4,62,0.5329956799277806,left,both,ambiguous-switch,91,-30,left,left,0.214
MHN1998MRNO,2019-10-07-10-59-56,4,63,0.5957892608040476,left,probe,ambiguous-switch,-1,20,left,left,0.108
MHN1998MRNO,2019-10-07-10-59-56,4,64,0.6243633315844701,left,both,ambiguous-switch,95,20,left,right,0.188
MHN1998MRNO,2019-10-07-10-59-56,4,65,0.5467073219732559,right,probe,biased-switch,-1,30,left,left,0.202
MHN1998MRNO,2019-10-07-10-59-56,4,66,0.6281869410050508,right,both,biased-switch,104,30,left,left,0.214
MHN1998MRNO,2019-10-07-10-59-56,4,67,0.5920005492986677,left,probe,ambiguous-switch,-1,0,left,left,0.233
MHN1998MRNO,2019-10-07-10-59-56,4,68,0.581772664599246,left,both,ambiguous-switch,106,0,left,right,0.237
MHN1998MRNO,2019-10-07-10-59-56,4,69,0.6542612315456322,left,probe,ambiguous-switch,-1,-5,right,right,0.205
MHN1998MRNO,2019-10-07-10-59-56,4,70,0.6563164015879347,left,both,ambiguous-switch,96,-5,right,right,0.199
MHN1998MRNO,2019-10-07-10-59-56,4,71,0.5200059538483098,left,probe,biased-switch,-1,40,right,right,0.129
MHN1998MRNO,2019-10-07-10-59-56,4,72,0.5478506490089243,left,both,biased-switch,97,40,right,right,0.259
MHN1998MRNO,2019-10-07-10-59-56,4,73,0.5735738946365238,right,probe,ambiguous-switch,-1,40,left,left,0.193
MHN1998MRNO,2019-10-07-10-59-56,4,74,0.5965327670471143,right,both,ambiguous-switch,109,40,left,right,0.178
MHN1998MRNO,2019-10-07-10-59-56,4,75,0.5117659703032692,right,probe,biased-switch,-1,10,left,left,0.136
MHN1998MRNO,2019-10-07-10-59-56,4,76,0.6891453491068367,right,both,biased-switch,92,10,left,left,0.201
MHN1998MRNO,2019-10-07-10-59-56,4,77,0.697301777370444,left,probe,biased-switch,-1,-20,left,left,0.16
MHN1998MRNO,2019-10-07-10-59-56,4,78,0.5101527064418933,left,both,biased-switch,107,-20,left,left,0.291
MHN1998MRNO,2019-10-07-10-59-56,4,79,0.6047123632280593,right,probe,biased-switch,-1,0,left,left,0.236
MHN1998MRNO,2019-10-07-10-59-56,4,80,0.5400943045725417,right,both,biased-switch,109,0,left,left,0.195
MHN1998MRNO,2019-10-07-10-59-56,5,1,0.6228324714758756,left,probe,biased-switch,-1,-30,left,left,0.2
MHN1998MRNO,2019-10-07-10-59-56,5,2,0.685003374010817,left,both,biased-switch,99,-30,left,left,0.25
MHN1998MRNO,2019-10-07-10-59-56,5,3,0.5844432492742173,left,probe,ambiguous-switch,-1,-10,left,left,0.209
MHN1998MRNO,2019-10-07-10-59-56,5,4,0.5454773847541636,left,both,ambiguous-switch,101,-10,left,left,2.79
MHN1998MRNO,2019-10-07-10-59-56,5,5,0.5903968591205099,left,probe,biased-switch,-1,0,left,left,0.171
MHN1998MRNO,2019-10-07-10-59-56,5,6,0.5598138362012055,left,both,biased-switch,91,0,left,left,0.158
MHN1998MRNO,2019-10-07-10-59-56,5,7,0.6263660266849019,left,probe,ambiguous-switch,-1,30,left,left,0.196
MHN1998MRNO,2019-10-07-10-59-56,5,8,0.540757852599302,left,both,ambiguous-switch,108,30,left,left,0.189
MHN1998MRNO,2019-10-07-10-59-56,5,9,0.6704454751544237,left,probe,ambiguous-switch,-1,-5,left,left,0.178
MHN1998MRNO,2019-10-07-10-59-56,5,10,0.6001108149060376,left,both,ambiguous-switch,98,-5,left,left,0.148
MHN1998MRNO,2019-10-07-10-59-56,5,11,0.6921407931332075,left,probe,biased-switch,-1,10,left,left,0.191
MHN1998MRNO,2019-10-07-10-59-56,5,12,0.5918409699745634,left,both,biased-switch,92,10,left,left,0.157
MHN1998MRNO,2019-10-07-10-59-56,5,13,0.6015979416358649,right,probe,ambiguous-switch,-1,10,left,left,0.204
MHN1998MRNO,2019-10-07-10-59-56,5,14,0.6571181441210725,right,both,ambiguous-switch,93,10,left,left,0.167
MHN1998MRNO,2019-10-07-10-59-56,5,15,0.5090872754210212,left,probe,ambiguous-switch,-1,-20,left,left,0.246
MHN1998MRNO,2019-10-07-10-59-56,5,16,0.5707527057058466,left,both,ambiguous-switch,99,-20,left,left,0.106
MHN1998MRNO,2019-10-07-10-59-56,5,17,0.6383473096849974,left,probe,biased-switch,-1,-10,left,left,0.147
MHN1998MRNO,2019-10-07-10-59-56,5,18,0.6657296363772977,left,both,biased-switch,105,-10,left,left,0.207
MHN1998MRNO,2019-10-07-10-59-56,5,19,0.6001815905189977,right,probe,ambiguous-switch,-1,0,left,left,0.101
MHN1998MRNO,2019-10-07-10-59-56,5,20,0.5213304951115671,right,both,ambiguous-switch,106,0,left,left,0.149
MHN1998MRNO,2019-10-07-10-59-56,5,21,0.640477665576435,left,probe,ambiguous-switch,-1,40,left,left,0.222
MHN1998MRNO,2019-10-07-10-59-56,5,22,0.5981185273563355,left,both,ambiguous-switch,109,40,left,left,0.348
MHN1998MRNO,2019-10-07-10-59-56,5,23,0.6431690064720286,left,probe,biased-switch,-1,40,left,left,0.196
MHN1998MRNO,2019-10-07-10-59-56,5,24,0.5711543989608596,left,both,biased-switch,110,40,left,left,0.211
MHN1998MRNO,2019-10-07-10-59-56,5,25,0.5179800514966999,left,probe,ambiguous-switch,-1,20,left,left,0.138
MHN1998MRNO,2019-10-07-10-59-56,5,26,0.6424364878938434,left,both,ambiguous-switch,94,20,left,left,0.402
MHN1998MRNO,2019-10-07-10-59-56,5,27,0.5847370668542443,left,probe,biased-switch,-1,5,left,left,0.212
MHN1998MRNO,2019-10-07-10-59-56,5,28,0.6777198724457909,left,both,biased-switch,105,5,left,left,0.157
MHN1998MRNO,2019-10-07-10-59-56,5,29,0.5243554810345824,right,probe,biased-switch,-1,-5,left,left,0.23
MHN1998MRNO,2019-10-07-10-59-56,5,30,0.5946664978136132,right,both,biased-switch,104,-5,left,left,0.115
MHN1998MRNO,2019-10-07-10-59-56,5,31,0.5353625302650906,right,probe,ambiguous-switch,-1,-30,left,left,0.262
MHN1998MRNO,2019-10-07-10-59-56,5,32,0.6271877426704171,right,both,ambiguous-switch,105,-30,left,left,0.402
MHN1998MRNO,2019-10-07-10-59-56,5,33,0.6537835910449703,left,probe,biased-switch,-1,-20,left,left,0.212
MHN1998MRNO,2019-10-07-10-59-56,5,34,0.5354747655991837,left,both,biased-switch,96,-20,left,left,0.192
MHN1998MRNO,2019-10-07-10-59-56,5,35,0.6955741461998892,right,probe,ambiguous-switch,-1,5,left,left,0.221
MHN1998MRNO,2019-10-07-10-59-56,5,36,0.5282667514961934,right,both,ambiguous-switch,106,5,left,left,0.118
MHN1998MRNO,2019-10-07-10-59-56,5,37,0.5153419545342685,left,probe,biased-switch,-1,30,left,left,0.049
MHN1998MRNO,2019-10-07-10-59-56,5,38,0.6411489692761001,left,both,biased-switch,90,30,left,left,0.112
MHN1998MRNO,2019-10-07-10-59-56,5,39,0.578639310644962,left,probe,biased-switch,-1,20,left,left,0.168
MHN1998MRNO,2019-10-07-10-59-56,5,40,0.6507704108229546,left,both,biased-switch,92,20,left,left,0.249
MHN1998MRNO,2019-10-07-10-59-56,5,41,0.501487375942405,right,probe,biased-switch,-1,-30,left,left,0.305
MHN1998MRNO,2019-10-07-10-59-56,5,42,0.6375754727885274,right,both,biased-switch,105,-30,left,left,0.177
MHN1998MRNO,2019-10-07-10-59-56,5,43,0.616196805537875,right,probe,ambiguous-switch,-1,-10,left,left,0.037
MHN1998MRNO,2019-10-07-10-59-56,5,44,0.6760257896144921,right,both,ambiguous-switch,91,-10,left,left,0.16
MHN1998MRNO,2019-10-07-10-59-56,5,45,0.6563368766429982,right,probe,biased-switch,-1,0,left,left,0.185
MHN1998MRNO,2019-10-07-10-59-56,5,46,0.6897456248869573,right,both,biased-switch,98,0,left,left,0.183
MHN1998MRNO,2019-10-07-10-59-56,5,47,0.5532670265169901,right,probe,ambiguous-switch,-1,30,left,left,0.173
MHN1998MRNO,2019-10-07-10-59-56,5,48,0.656305887192988,right,both,ambiguous-switch,107,30,left,left,0.177
MHN1998MRNO,2019-10-07-10-59-56,5,49,0.6994163405593162,left,probe,ambiguous-switch,-1,-5,left,left,0.086
MHN1998MRNO,2019-10-07-10-59-56,5,50,0.5886540167693838,left,both,ambiguous-switch,106,-5,left,left,0.138
MHN1998MRNO,2019-10-07-10-59-56,5,51,0.6321826585747536,right,probe,biased-switch,-1,10,left,left,0.146
MHN1998MRNO,2019-10-07-10-59-56,5,52,0.6342194536439761,right,both,biased-switch,106,10,left,left,0.211
MHN1998MRNO,2019-10-07-10-59-56,5,53,0.5471884755769135,left,probe,ambiguous-switch,-1,10,left,left,0.211
MHN1998MRNO,2019-10-07-10-59-56,5,54,0.650228045077105,left,both,ambiguous-switch,92,10,left,right,0.305
MHN1998MRNO,2019-10-07-10-59-56,5,55,0.543070996437032,right,probe,ambiguous-switch,-1,-20,left,left,0.29
MHN1998MRNO,2019-10-07-10-59-56,5,56,0.6467852977175916,right,both,ambiguous-switch,100,-20,left,left,0.214
MHN1998MRNO,2019-10-07-10-59-56,5,57,0.6277399065615813,right,probe,biased-switch,-1,-10,left,left,0.121
MHN1998MRNO,2019-10-07-10-59-56,5,58,0.5784673099293708,right,both,biased-switch,102,-10,left,left,0.141
MHN1998MRNO,2019-10-07-10-59-56,5,59,0.5246187769476469,right,probe,ambiguous-switch,-1,0,left,left,0.188
MHN1998MRNO,2019-10-07-10-59-56,5,60,0.6859900429689414,right,both,ambiguous-switch,98,0,left,right,0.268
MHN1998MRNO,2019-10-07-10-59-56,5,61,0.6777798204533644,right,probe,ambiguous-switch,-1,40,left,left,0.226
MHN1998MRNO,2019-10-07-10-59-56,5,62,0.576791432995174,right,both,ambiguous-switch,92,40,left,left,0.148
MHN1998MRNO,2019-10-07-10-59-56,5,63,0.6658424725032445,right,probe,biased-switch,-1,40,left,left,0.126
MHN1998MRNO,2019-10-07-10-59-56,5,64,0.6540567518153189,right,both,biased-switch,98,40,left,left,0.234
MHN1998MRNO,2019-10-07-10-59-56,5,65,0.6636003114684745,left,probe,ambiguous-switch,-1,20,left,left,0.168
MHN1998MRNO,2019-10-07-10-59-56,5,66,0.6698860993453006,left,both,ambiguous-switch,104,20,left,right,0.117
MHN1998MRNO,2019-10-07-10-59-56,5,67,0.671083894166866,right,probe,biased-switch,-1,5,left,left,0.082
MHN1998MRNO,2019-10-07-10-59-56,5,68,0.6235879815084933,right,both,biased-switch,91,5,left,right,0.167
MHN1998MRNO,2019-10-07-10-59-56,5,69,0.6898276827686873,right,probe,biased-switch,-1,-5,left,left,0.258
MHN1998MRNO,2019-10-07-10-59-56,5,70,0.572517764409941,right,both,biased-switch,101,-5,left,left,0.177
MHN1998MRNO,2019-10-07-10-59-56,5,71,0.6269592512304231,right,probe,ambiguous-switch,-1,-30,left,left,0.244
MHN1998MRNO,2019-10-07-10-59-56,5,72,0.5930640111746522,right,both,ambiguous-switch,91,-30,left,left,0.223
MHN1998MRNO,2019-10-07-10-59-56,5,73,0.6872037571333591,left,probe,biased-switch,-1,-20,right,right,0.315
MHN1998MRNO,2019-10-07-10-59-56,5,74,0.6984340959648945,left,both,biased-switch,109,-20,right,right,0.282
MHN1998MRNO,2019-10-07-10-59-56,5,75,0.6155795501752501,right,probe,ambiguous-switch,-1,5,left,left,0.281
MHN1998MRNO,2019-10-07-10-59-56,5,76,0.6177771908069495,right,both,ambiguous-switch,102,5,left,right,0.249
MHN1998MRNO,2019-10-07-10-59-56,5,77,0.5604289641388323,left,probe,biased-switch,-1,30,left,left,0.117
MHN1998MRNO,2019-10-07-10-59-56,5,78,0.5191559153644077,left,both,biased-switch,103,30,left,right,0.258
MHN1998MRNO,2019-10-07-10-59-56,5,79,0.5090791089812239,right,probe,biased-switch,-1,20,left,left,0.207
MHN1998MRNO,2019-10-07-10-59-56,5,80,0.6360599736116833,right,both,biased-switch,108,20,left,right,0.264
MHN1998MRNO,2019-10-07-10-59-56,6,1,0.6062026057954144,right,probe,biased-switch,-1,5,left,left,0.179
MHN1998MRNO,2019-10-07-10-59-56,6,2,0.6535540635605612,right,both,biased-switch,98,5,left,left,0.154
MHN1998MRNO,2019-10-07-10-59-56,6,3,0.6093111462292752,left,probe,ambiguous-switch,-1,30,left,left,0.08
MHN1998MRNO,2019-10-07-10-59-56,6,4,0.6326745898746751,left,both,ambiguous-switch,99,30,left,left,0.04
MHN1998MRNO,2019-10-07-10-59-56,6,5,0.6614894928271611,left,probe,biased-switch,-1,-20,left,left,0.066
MHN1998MRNO,2019-10-07-10-59-56,6,6,0.6344261241730583,left,both,biased-switch,93,-20,left,right,0.214
MHN1998MRNO,2019-10-07-10-59-56,6,7,0.5780052585107073,right,probe,ambiguous-switch,-1,5,left,left,0.201
MHN1998MRNO,2019-10-07-10-59-56,6,8,0.6661397446139109,right,both,ambiguous-switch,107,5,left,right,0.219
MHN1998MRNO,2019-10-07-10-59-56,6,9,0.6624747775475146,right,probe,biased-switch,-1,-5,left,left,0.226
MHN1998MRNO,2019-10-07-10-59-56,6,10,0.6999844840795788,right,both,biased-switch,99,-5,left,left,0.204
MHN1998MRNO,2019-10-07-10-59-56,6,11,0.6804172536066937,left,probe,biased-switch,-1,-30,left,left,0.21
MHN1998MRNO,2019-10-07-10-59-56,6,12,0.5159874889830431,left,both,biased-switch,107,-30,left,right,0.155
MHN1998MRNO,2019-10-07-10-59-56,6,13,0.5012264628601008,right,probe,biased-switch,-1,-10,left,left,0.162
MHN1998MRNO,2019-10-07-10-59-56,6,14,0.6332633978342304,right,both,biased-switch,103,-10,left,left,0.171
MHN1998MRNO,2019-10-07-10-59-56,6,15,0.5944521259651598,left,probe,biased-switch,-1,30,left,left,0.164
MHN1998MRNO,2019-10-07-10-59-56,6,16,0.6276510688157869,left,both,biased-switch,94,30,left,left,0.222
MHN1998MRNO,2019-10-07-10-59-56,6,17,0.6186974412087347,right,probe,ambiguous-switch,-1,-10,left,left,0.193
MHN1998MRNO,2019-10-07-10-59-56,6,18,0.6571665787035473,right,both,ambiguous-switch,98,-10,left,left,0.171
MHN1998MRNO,2019-10-07-10-59-56,6,19,0.6288015301933726,right,probe,ambiguous-switch,-1,-30,left,left,0.093
MHN1998MRNO,2019-10-07-10-59-56,6,20,0.556411857804065,right,both,ambiguous-switch,103,-30,left,left,0.143
MHN1998MRNO,2019-10-07-10-59-56,6,21,0.6385332761570608,right,probe,ambiguous-switch,-1,40,left,left,0.166
MHN1998MRNO,2019-10-07-10-59-56,6,22,0.6972645641071483,right,both,ambiguous-switch,107,40,left,left,0.259
MHN1998MRNO,2019-10-07-10-59-56,6,23,0.6253463298591433,left,probe,ambiguous-switch,-1,0,left,left,0.188
MHN1998MRNO,2019-10-07-10-59-56,6,24,0.6108211978536122,left,both,ambiguous-switch,93,0,left,right,0.332
MHN1998MRNO,2019-10-07-10-59-56,6,25,0.5878765180978581,right,probe,biased-switch,-1,20,left,left,0.005
MHN1998MRNO,2019-10-07-10-59-56,6,26,0.6288390403740923,right,both,biased-switch,105,20,left,left,0.184
MHN1998MRNO,2019-10-07-10-59-56,6,27,0.6171601645304351,left,probe,ambiguous-switch,-1,10,left,left,0.196
MHN1998MRNO,2019-10-07-10-59-56,6,28,0.6317478086769746,left,both,ambiguous-switch,109,10,left,right,0.145
MHN1998MRNO,2019-10-07-10-59-56,6,29,0.6787337971202028,right,probe,ambiguous-switch,-1,-20,left,left,0.159
MHN1998MRNO,2019-10-07-10-59-56,6,30,0.655503246791623,right,both,ambiguous-switch,91,-20,left,left,0.174
MHN1998MRNO,2019-10-07-10-59-56,6,31,0.5605151282650445,right,probe,biased-switch,-1,0,left,left,0.033
MHN1998MRNO,2019-10-07-10-59-56,6,32,0.5159931022290235,right,both,biased-switch,99,0,left,right,0.163
MHN1998MRNO,2019-10-07-10-59-56,6,33,0.6061228010432972,left,probe,ambiguous-switch,-1,20,right,right,0.058
MHN1998MRNO,2019-10-07-10-59-56,6,34,0.6965756948569659,left,both,ambiguous-switch,104,20,right,right,0.177
MHN1998MRNO,2019-10-07-10-59-56,6,35,0.6496747928440645,left,probe,biased-switch,-1,10,right,right,0.084
MHN1998MRNO,2019-10-07-10-59-56,6,36,0.511424142984711,left,both,biased-switch,98,10,right,right,0.167
MHN1998MRNO,2019-10-07-10-59-56,6,37,0.6894550290562487,right,probe,biased-switch,-1,40,right,right,0.159
MHN1998MRNO,2019-10-07-10-59-56,6,38,0.5314137341444805,right,both,biased-switch,96,40,right,right,0.263
MHN1998MRNO,2019-10-07-10-59-56,6,39,0.6220684049993428,right,probe,ambiguous-switch,-1,-5,right,right,0.136
MHN1998MRNO,2019-10-07-10-59-56,6,40,0.5217528757841753,right,both,ambiguous-switch,105,-5,right,right,0.207
MHN1998MRNO,2019-10-07-10-59-56,6,41,0.6840690426553759,left,probe,biased-switch,-1,5,right,right,0.186
MHN1998MRNO,2019-10-07-10-59-56,6,42,0.6289195252708224,left,both,biased-switch,109,5,right,right,0.263
MHN1998MRNO,2019-10-07-10-59-56,6,43,0.6629841533069905,left,probe,ambiguous-switch,-1,30,right,right,0.255
MHN1998MRNO,2019-10-07-10-59-56,6,44,0.6642894842344065,left,both,ambiguous-switch,95,30,right,right,0.193
MHN1998MRNO,2019-10-07-10-59-56,6,45,0.518226935197386,left,probe,biased-switch,-1,-20,right,right,0.283
MHN1998MRNO,2019-10-07-10-59-56,6,46,0.6539990531917381,left,both,biased-switch,91,-20,right,right,0.251
MHN1998MRNO,2019-10-07-10-59-56,6,47,0.6663784055680256,left,probe,ambiguous-switch,-1,5,right,right,0.076
MHN1998MRNO,2019-10-07-10-59-56,6,48,0.6257392076042805,left,both,ambiguous-switch,110,5,right,right,0.167
MHN1998MRNO,2019-10-07-10-59-56,6,49,0.697456803843246,right,probe,biased-switch,-1,-5,right,right,0.241
MHN1998MRNO,2019-10-07-10-59-56,6,50,0.5704901039572607,right,both,biased-switch,106,-5,right,right,0.199
MHN1998MRNO,2019-10-07-10-59-56,6,51,0.5299816727282711,right,probe,biased-switch,-1,-30,right,right,0.076
MHN1998MRNO,2019-10-07-10-59-56,6,52,0.576453810241311,right,both,biased-switch,102,-30,right,right,0.211
MHN1998MRNO,2019-10-07-10-59-56,6,53,0.6600146530096362,right,probe,biased-switch,-1,-10,right,right,0.194
MHN1998MRNO,2019-10-07-10-59-56,6,54,0.5925212825830845,right,both,biased-switch,106,-10,right,right,0.263
MHN1998MRNO,2019-10-07-10-59-56,6,55,0.5076095749649597,right,probe,biased-switch,-1,30,right,right,0.189
MHN1998MRNO,2019-10-07-10-59-56,6,56,0.5162167769565859,right,both,biased-switch,103,30,right,right,0.28
MHN1998MRNO,2019-10-07-10-59-56,6,57,0.5085934294023455,left,probe,ambiguous-switch,-1,-10,right,right,0.167
MHN1998MRNO,2019-10-07-10-59-56,6,58,0.6655878615814862,left,both,ambiguous-switch,98,-10,right,right,0.224
MHN1998MRNO,2019-10-07-10-59-56,6,59,0.531474665114205,right,probe,ambiguous-switch,-1,-30,right,right,0.204
MHN1998MRNO,2019-10-07-10-59-56,6,60,0.5236286649558269,right,both,ambiguous-switch,97,-30,right,right,0.231
MHN1998MRNO,2019-10-07-10-59-56,6,61,0.6283856255115584,right,probe,ambiguous-switch,-1,40,right,right,0.181
MHN1998MRNO,2019-10-07-10-59-56,6,62,0.5839362063125273,right,both,ambiguous-switch,97,40,right,right,0.196
MHN1998MRNO,2019-10-07-10-59-56,6,63,0.5578159584761727,right,probe,ambiguous-switch,-1,0,right,right,0.175
MHN1998MRNO,2019-10-07-10-59-56,6,64,0.6969128008161045,right,both,ambiguous-switch,104,0,right,right,0.005
MHN1998MRNO,2019-10-07-10-59-56,6,65,0.633610197125426,right,probe,biased-switch,-1,20,right,right,0.035
MHN1998MRNO,2019-10-07-10-59-56,6,66,0.5609724056709668,right,both,biased-switch,93,20,right,right,0.104
MHN1998MRNO,2019-10-07-10-59-56,6,67,0.5623222287619096,left,probe,ambiguous-switch,-1,10,right,right,0.239
MHN1998MRNO,2019-10-07-10-59-56,6,68,0.6643959166288471,left,both,ambiguous-switch,110,10,right,right,0.209
MHN1998MRNO,2019-10-07-10-59-56,6,69,0.6079688901208911,left,probe,ambiguous-switch,-1,-20,right,right,0.197
MHN1998MRNO,2019-10-07-10-59-56,6,70,0.6685974289877035,left,both,ambiguous-switch,95,-20,right,right,0.106
MHN1998MRNO,2019-10-07-10-59-56,6,71,0.5481750987627118,left,probe,biased-switch,-1,0,right,right,0.151
MHN1998MRNO,2019-10-07-10-59-56,6,72,0.5485049378599032,left,both,biased-switch,94,0,right,right,0.092
MHN1998MRNO,2019-10-07-10-59-56,6,73,0.6200323705384794,right,probe,ambiguous-switch,-1,20,right,right,0.169
MHN1998MRNO,2019-10-07-10-59-56,6,74,0.6952558501429424,right,both,ambiguous-switch,92,20,right,right,0.197
MHN1998MRNO,2019-10-07-10-59-56,6,75,0.5108418415852457,left,probe,biased-switch,-1,10,right,right,0.268
MHN1998MRNO,2019-10-07-10-59-56,6,76,0.5660174201711361,left,both,biased-switch,100,10,right,right,0.255
MHN1998MRNO,2019-10-07-10-59-56,6,77,0.6576955995377821,left,probe,biased-switch,-1,40,right,right,0.198
MHN1998MRNO,2019-10-07-10-59-56,6,78,0.6596900903476299,left,both,biased-switch,102,40,right,right,0.216
MHN1998MRNO,2019-10-07-10-59-56,6,79,0.5017532971012292,right,probe,ambiguous-switch,-1,-5,right,right,0.323
MHN1998MRNO,2019-10-07-10-59-56,6,80,0.5815947320995867,right,both,ambiguous-switch,93,-5,right,right,0.203
MHN1998MRNO,2019-10-07-10-59-56,7,1,0.5672168658518233,left,probe,ambiguous-switch,-1,10,right,right,0.238
MHN1998MRNO,2019-10-07-10-59-56,7,2,0.6938909938314612,left,both,ambiguous-switch,95,10,right,right,0.242
MHN1998MRNO,2019-10-07-10-59-56,7,3,0.5866604306816093,left,probe,ambiguous-switch,-1,5,right,right,0.345
MHN1998MRNO,2019-10-07-10-59-56,7,4,0.6234017070707084,left,both,ambiguous-switch,108,5,right,right,0.181
MHN1998MRNO,2019-10-07-10-59-56,7,5,0.5927384095831982,left,probe,ambiguous-switch,-1,-20,right,right,0.424
MHN1998MRNO,2019-10-07-10-59-56,7,6,0.6895774252484581,left,both,ambiguous-switch,98,-20,right,right,0.199
MHN1998MRNO,2019-10-07-10-59-56,7,7,0.6935394977641451,right,probe,ambiguous-switch,-1,40,right,right,0.146
MHN1998MRNO,2019-10-07-10-59-56,7,8,0.6906225295905454,right,both,ambiguous-switch,110,40,right,right,0.213
MHN1998MRNO,2019-10-07-10-59-56,7,9,0.64509786832376,right,probe,biased-switch,-1,-20,right,right,0.195
MHN1998MRNO,2019-10-07-10-59-56,7,10,0.5627196276374374,right,both,biased-switch,96,-20,right,right,0.212
MHN1998MRNO,2019-10-07-10-59-56,7,11,0.6711482137565375,left,probe,biased-switch,-1,-30,right,right,0.29
MHN1998MRNO,2019-10-07-10-59-56,7,12,0.5340049154901284,left,both,biased-switch,101,-30,right,right,0.109
MHN1998MRNO,2019-10-07-10-59-56,7,13,0.6557453649694196,left,probe,ambiguous-switch,-1,-10,right,right,0.19
MHN1998MRNO,2019-10-07-10-59-56,7,14,0.6425035172446703,left,both,ambiguous-switch,106,-10,right,right,0.062
MHN1998MRNO,2019-10-07-10-59-56,7,15,0.5625960150514925,right,probe,biased-switch,-1,-10,right,right,0.109
MHN1998MRNO,2019-10-07-10-59-56,7,16,0.6012065563060657,right,both,biased-switch,97,-10,right,right,0.191
MHN1998MRNO,2019-10-07-10-59-56,7,17,0.6963814773931398,right,probe,ambiguous-switch,-1,-5,right,right,0.353
MHN1998MRNO,2019-10-07-10-59-56,7,18,0.6549626285392728,right,both,ambiguous-switch,104,-5,right,right,0.313
MHN1998MRNO,2019-10-07-10-59-56,7,19,0.5767298760965149,right,probe,biased-switch,-1,5,right,right,0.563
MHN1998MRNO,2019-10-07-10-59-56,7,20,0.5326634503352663,right,both,biased-switch,95,5,right,right,0.067
MHN1998MRNO,2019-10-07-10-59-56,7,21,0.672193648484132,right,probe,biased-switch,-1,30,right,right,1.097
MHN1998MRNO,2019-10-07-10-59-56,7,22,0.5133643121025168,right,both,biased-switch,102,30,right,right,0.442
MHN1998MRNO,2019-10-07-10-59-56,7,23,0.6430039478411448,left,probe,ambiguous-switch,-1,-30,right,right,0.252
MHN1998MRNO,2019-10-07-10-59-56,7,24,0.6624464885974515,left,both,ambiguous-switch,106,-30,right,right,0.18
MHN1998MRNO,2019-10-07-10-59-56,7,25,0.5952970656227727,right,probe,biased-switch,-1,0,right,right,0.34
MHN1998MRNO,2019-10-07-10-59-56,7,26,0.5137593774270003,right,both,biased-switch,102,0,right,right,0.228
MHN1998MRNO,2019-10-07-10-59-56,7,27,0.6901785367277555,left,probe,ambiguous-switch,-1,20,right,right,0.256
MHN1998MRNO,2019-10-07-10-59-56,7,28,0.5970455120838148,left,both,ambiguous-switch,101,20,right,left,0.268
MHN1998MRNO,2019-10-07-10-59-56,7,29,0.5881245330643979,right,probe,biased-switch,-1,40,right,right,0.223
MHN1998MRNO,2019-10-07-10-59-56,7,30,0.5502198261355995,right,both,biased-switch,99,40,right,right,0.274
MHN1998MRNO,2019-10-07-10-59-56,7,31,0.5085034441240708,right,probe,biased-switch,-1,10,right,right,0.192
MHN1998MRNO,2019-10-07-10-59-56,7,32,0.6574423827659173,right,both,biased-switch,106,10,right,right,0.41
MHN1998MRNO,2019-10-07-10-59-56,7,33,0.6517789266937112,left,probe,ambiguous-switch,-1,30,right,right,0.177
MHN1998MRNO,2019-10-07-10-59-56,7,34,0.522311382661515,left,both,ambiguous-switch,96,30,right,right,0.248
MHN1998MRNO,2019-10-07-10-59-56,7,35,0.6862009251409409,right,probe,biased-switch,-1,20,right,right,0.211
MHN1998MRNO,2019-10-07-10-59-56,7,36,0.5782651386837704,right,both,biased-switch,94,20,right,right,0.223
MHN1998MRNO,2019-10-07-10-59-56,7,37,0.5043257293260858,left,probe,ambiguous-switch,-1,0,right,right,0.297
MHN1998MRNO,2019-10-07-10-59-56,7,38,0.6224807234577778,left,both,ambiguous-switch,105,0,right,right,0.089
MHN1998MRNO,2019-10-07-10-59-56,7,39,0.6639782201482066,left,probe,biased-switch,-1,-5,right,right,0.253
MHN1998MRNO,2019-10-07-10-59-56,7,40,0.6792238814644957,left,both,biased-switch,94,-5,right,right,0.132
MHN1998MRNO,2019-10-07-10-59-56,7,41,0.6292889196436714,right,probe,ambiguous-switch,-1,10,right,right,0.113
MHN1998MRNO,2019-10-07-10-59-56,7,42,0.6534847476992618,right,both,ambiguous-switch,96,10,right,right,0.031
MHN1998MRNO,2019-10-07-10-59-56,7,43,0.5415929321650592,right,probe,ambiguous-switch,-1,5,right,right,0.115
MHN1998MRNO,2019-10-07-10-59-56,7,44,0.6202466031171138,right,both,ambiguous-switch,107,5,right,left,0.199
MHN1998MRNO,2019-10-07-10-59-56,7,45,0.552592621574998,left,probe,ambiguous-switch,-1,-20,right,right,0.134
MHN1998MRNO,2019-10-07-10-59-56,7,46,0.6171348903187335,left,both,ambiguous-switch,93,-20,right,right,0.124
MHN1998MRNO,2019-10-07-10-59-56,7,47,0.6041132863407257,right,probe,ambiguous-switch,-1,40,right,right,0.05
MHN1998MRNO,2019-10-07-10-59-56,7,48,0.5422616082136104,right,both,ambiguous-switch,103,40,right,right,0.188
MHN1998MRNO,2019-10-07-10-59-56,7,49,0.6707108561459816,left,probe,biased-switch,-1,-20,right,right,0.153
MHN1998MRNO,2019-10-07-10-59-56,7,50,0.5536937024379798,left,both,biased-switch,91,-20,right,right,0.259
MHN1998MRNO,2019-10-07-10-59-56,7,51,0.5128456166719414,left,probe,biased-switch,-1,-30,right,right,0.043
MHN1998MRNO,2019-10-07-10-59-56,7,52,0.6784317429275785,left,both,biased-switch,98,-30,right,right,0.183
MHN1998MRNO,2019-10-07-10-59-56,7,53,0.5436004593610197,left,probe,ambiguous-switch,-1,-10,right,right,0.051
MHN1998MRNO,2019-10-07-10-59-56,7,54,0.5793987060523734,left,both,ambiguous-switch,100,-10,right,right,0.158
MHN1998MRNO,2019-10-07-10-59-56,7,55,0.5661915808526029,left,probe,biased-switch,-1,-10,right,right,0.081
MHN1998MRNO,2019-10-07-10-59-56,7,56,0.6609021340686215,left,both,biased-switch,104,-10,right,right,0.185
MHN1998MRNO,2019-10-07-10-59-56,7,57,0.5754331077733668,right,probe,ambiguous-switch,-1,-5,right,right,0.059
MHN1998MRNO,2019-10-07-10-59-56,7,58,0.5430595535347693,right,both,ambiguous-switch,95,-5,right,right,0.118
MHN1998MRNO,2019-10-07-10-59-56,7,59,0.696863325053555,right,probe,biased-switch,-1,5,right,right,0.256
MHN1998MRNO,2019-10-07-10-59-56,7,60,0.6182366557217257,right,both,biased-switch,106,5,right,left,0.215
MHN1998MRNO,2019-10-07-10-59-56,7,61,0.5254870228403165,left,probe,biased-switch,-1,30,right,right,0.286
MHN1998MRNO,2019-10-07-10-59-56,7,62,0.5637180765768268,left,both,biased-switch,97,30,right,right,0.167
MHN1998MRNO,2019-10-07-10-59-56,7,63,0.6984664912622032,right,probe,ambiguous-switch,-1,-30,right,right,0.163
MHN1998MRNO,2019-10-07-10-59-56,7,64,0.6956081860661675,right,both,ambiguous-switch,95,-30,right,right,1.174
MHN1998MRNO,2019-10-07-10-59-56,7,65,0.5401516744548962,left,probe,biased-switch,-1,0,right,right,0.053
MHN1998MRNO,2019-10-07-10-59-56,7,66,0.6607779713796784,left,both,biased-switch,108,0,right,right,0.14
MHN1998MRNO,2019-10-07-10-59-56,7,67,0.5657147815513915,right,probe,ambiguous-switch,-1,20,right,right,0.0
MHN1998MRNO,2019-10-07-10-59-56,7,68,0.6840593256048173,right,both,ambiguous-switch,97,20,right,right,0.184
MHN1998MRNO,2019-10-07-10-59-56,7,69,0.5720772753356554,left,probe,biased-switch,-1,40,right,right,0.129
MHN1998MRNO,2019-10-07-10-59-56,7,70,0.5466273330385574,left,both,biased-switch,94,40,right,right,0.136
MHN1998MRNO,2019-10-07-10-59-56,7,71,0.6663000716603658,right,probe,biased-switch,-1,10,right,right,0.183
MHN1998MRNO,2019-10-07-10-59-56,7,72,0.6221575109993053,right,both,biased-switch,95,10,right,left,0.122
MHN1998MRNO,2019-10-07-10-59-56,7,73,0.6092487428119061,right,probe,ambiguous-switch,-1,30,right,right,0.14
MHN1998MRNO,2019-10-07-10-59-56,7,74,0.6335724099378216,right,both,ambiguous-switch,106,30,right,left,0.154
MHN1998MRNO,2019-10-07-10-59-56,7,75,0.6086608121084467,left,probe,biased-switch,-1,20,right,right,0.264
MHN1998MRNO,2019-10-07-10-59-56,7,76,0.667371679655582,left,both,biased-switch,98,20,right,right,0.132
MHN1998MRNO,2019-10-07-10-59-56,7,77,0.5643888268105633,left,probe,ambiguous-switch,-1,0,right,right,0.266
MHN1998MRNO,2019-10-07-10-59-56,7,78,0.5578672361601036,left,both,ambiguous-switch,97,0,right,right,0.34
MHN1998MRNO,2019-10-07-10-59-56,7,79,0.6624857584048203,right,probe,biased-switch,-1,-5,right,right,0.472
MHN1998MRNO,2019-10-07-10-59-56,7,80,0.532473105019906,right,both,biased-switch,94,-5,right,right,0.263
MHN1998MRNO,2019-10-07-10-59-56,8,1,0.5602314847743519,right,probe,ambiguous-switch,-1,-10,left,left,2.961
MHN1998MRNO,2019-10-07-10-59-56,8,2,0.5966644716163741,right,both,ambiguous-switch,107,-10,left,left,1.533
MHN1998MRNO,2019-10-07-10-59-56,8,3,0.5270057280656658,left,probe,ambiguous-switch,-1,-30,right,right,0.241
MHN1998MRNO,2019-10-07-10-59-56,8,4,0.6299410931315707,left,both,ambiguous-switch,103,-30,right,right,0.219
MHN1998MRNO,2019-10-07-10-59-56,8,5,0.696101912800078,left,probe,ambiguous-switch,-1,-20,right,right,0.111
MHN1998MRNO,2019-10-07-10-59-56,8,6,0.5520586895763308,left,both,ambiguous-switch,95,-20,right,right,0.144
MHN1998MRNO,2019-10-07-10-59-56,8,7,0.5488500296203462,right,probe,ambiguous-switch,-1,-5,right,right,0.201
MHN1998MRNO,2019-10-07-10-59-56,8,8,0.6814669037770662,right,both,ambiguous-switch,106,-5,right,right,0.122
MHN1998MRNO,2019-10-07-10-59-56,8,9,0.6528255948782619,right,probe,biased-switch,-1,20,right,right,0.159
MHN1998MRNO,2019-10-07-10-59-56,8,10,0.6038369790728554,right,both,biased-switch,93,20,right,right,0.114
MHN1998MRNO,2019-10-07-10-59-56,8,11,0.5964971411609953,left,probe,biased-switch,-1,-10,right,right,0.039
MHN1998MRNO,2019-10-07-10-59-56,8,12,0.6938071715350844,left,both,biased-switch,93,-10,right,right,0.11
MHN1998MRNO,2019-10-07-10-59-56,8,13,0.5369273395908366,right,probe,biased-switch,-1,30,right,right,0.083
MHN1998MRNO,2019-10-07-10-59-56,8,14,0.6807658174928193,right,both,biased-switch,109,30,right,right,0.201
MHN1998MRNO,2019-10-07-10-59-56,8,15,0.5120389027459178,left,probe,ambiguous-switch,-1,40,right,right,0.153
MHN1998MRNO,2019-10-07-10-59-56,8,16,0.602990923728941,left,both,ambiguous-switch,99,40,right,right,0.227
MHN1998MRNO,2019-10-07-10-59-56,8,17,0.5752496351749197,right,probe,biased-switch,-1,-20,right,right,0.171
MHN1998MRNO,2019-10-07-10-59-56,8,18,0.5191484243176698,right,both,biased-switch,108,-20,right,right,0.213
MHN1998MRNO,2019-10-07-10-59-56,8,19,0.5150661112192749,left,probe,ambiguous-switch,-1,0,right,right,0.635
MHN1998MRNO,2019-10-07-10-59-56,8,20,0.5954068468070424,left,both,ambiguous-switch,92,0,right,right,0.202
MHN1998MRNO,2019-10-07-10-59-56,8,21,0.5346613766469199,left,probe,ambiguous-switch,-1,30,right,right,0.093
MHN1998MRNO,2019-10-07-10-59-56,8,22,0.6485313551155496,left,both,ambiguous-switch,100,30,right,right,0.095
MHN1998MRNO,2019-10-07-10-59-56,8,23,0.5526926480306171,left,probe,biased-switch,-1,10,right,right,0.155
MHN1998MRNO,2019-10-07-10-59-56,8,24,0.6553188533960603,left,both,biased-switch,105,10,right,right,0.262
MHN1998MRNO,2019-10-07-10-59-56,8,25,0.6448967393105987,right,probe,biased-switch,-1,0,right,right,0.153
MHN1998MRNO,2019-10-07-10-59-56,8,26,0.6446209297138952,right,both,biased-switch,97,0,right,right,0.196
MHN1998MRNO,2019-10-07-10-59-56,8,27,0.6835366476209216,left,probe,biased-switch,-1,-30,right,right,0.261
MHN1998MRNO,2019-10-07-10-59-56,8,28,0.5215976578227942,left,both,biased-switch,109,-30,right,right,0.244
MHN1998MRNO,2019-10-07-10-59-56,8,29,0.6600621641062792,left,probe,ambiguous-switch,-1,10,right,right,0.2
MHN1998MRNO,2019-10-07-10-59-56,8,30,0.5394612369042422,left,both,ambiguous-switch,100,10,right,right,0.215
MHN1998MRNO,2019-10-07-10-59-56,8,31,0.5175860709946665,right,probe,biased-switch,-1,-5,right,right,0.262
MHN1998MRNO,2019-10-07-10-59-56,8,32,0.5300388553279275,right,both,biased-switch,98,-5,right,right,0.198
MHN1998MRNO,2019-10-07-10-59-56,8,33,0.6350818750061938,right,probe,biased-switch,-1,40,right,right,0.231
MHN1998MRNO,2019-10-07-10-59-56,8,34,0.6055589399253447,right,both,biased-switch,99,40,right,right,0.234
MHN1998MRNO,2019-10-07-10-59-56,8,35,0.5237542407727687,right,probe,ambiguous-switch,-1,5,right,right,0.236
MHN1998MRNO,2019-10-07-10-59-56,8,36,0.6958370775756808,right,both,ambiguous-switch,98,5,right,left,0.211
MHN1998MRNO,2019-10-07-10-59-56,8,37,0.6601240499542567,right,probe,biased-switch,-1,5,right,right,0.291
MHN1998MRNO,2019-10-07-10-59-56,8,38,0.5736540181359926,right,both,biased-switch,100,5,right,left,2.052
MHN1998MRNO,2019-10-07-10-59-56,8,39,0.6472234074615068,left,probe,ambiguous-switch,-1,20,right,right,0.271
MHN1998MRNO,2019-10-07-10-59-56,8,40,0.5753081871855519,left,both,ambiguous-switch,106,20,right,right,0.25
MHN1998MRNO,2019-10-07-10-59-56,8,41,0.5819191039137925,right,probe,ambiguous-switch,-1,-10,right,right,0.316
MHN1998MRNO,2019-10-07-10-59-56,8,42,0.6432458622449149,right,both,ambiguous-switch,100,-10,right,right,0.197
MHN1998MRNO,2019-10-07-10-59-56,8,43,0.5109474718500808,right,probe,ambiguous-switch,-1,-30,right,right,0.268
MHN1998MRNO,2019-10-07-10-59-56,8,44,0.6969943061444309,right,both,ambiguous-switch,105,-30,right,left,0.267
MHN1998MRNO,2019-10-07-10-59-56,8,45,0.6569418592495747,right,probe,ambiguous-switch,-1,-20,right,right,0.293
MHN1998MRNO,2019-10-07-10-59-56,8,46,0.6075330121360285,right,both,ambiguous-switch,108,-20,right,right,0.094
MHN1998MRNO,2019-10-07-10-59-56,8,47,0.6617984619581814,right,probe,ambiguous-switch,-1,-5,right,right,0.273
MHN1998MRNO,2019-10-07-10-59-56,8,48,0.5592999339409341,right,both,ambiguous-switch,97,-5,right,right,0.181
MHN1998MRNO,2019-10-07-10-59-56,8,49,0.5129131623485375,left,probe,biased-switch,-1,20,right,right,0.31
MHN1998MRNO,2019-10-07-10-59-56,8,50,0.506188053783485,left,both,biased-switch,91,20,right,right,0.176
MHN1998MRNO,2019-10-07-10-59-56,8,51,0.6079732101628513,left,probe,biased-switch,-1,-10,right,right,0.154
MHN1998MRNO,2019-10-07-10-59-56,8,52,0.5431875128716658,left,both,biased-switch,97,-10,right,right,0.149
MHN1998MRNO,2019-10-07-10-59-56,8,53,0.6954919308935004,right,probe,biased-switch,-1,30,right,right,0.222
MHN1998MRNO,2019-10-07-10-59-56,8,54,0.504663026359901,right,both,biased-switch,91,30,right,right,0.276
MHN1998MRNO,2019-10-07-10-59-56,8,55,0.5040295753996115,right,probe,ambiguous-switch,-1,40,right,right,0.215
MHN1998MRNO,2019-10-07-10-59-56,8,56,0.6210839468437936,right,both,ambiguous-switch,100,40,right,right,0.236
MHN1998MRNO,2019-10-07-10-59-56,8,57,0.6012214933522451,left,probe,biased-switch,-1,-20,right,right,0.168
MHN1998MRNO,2019-10-07-10-59-56,8,58,0.6216804874428784,left,both,biased-switch,98,-20,right,right,0.232
MHN1998MRNO,2019-10-07-10-59-56,8,59,0.547985108050252,left,probe,ambiguous-switch,-1,0,right,right,0.081
MHN1998MRNO,2019-10-07-10-59-56,8,60,0.6732442918570487,left,both,ambiguous-switch,100,0,right,right,0.247
MHN1998MRNO,2019-10-07-10-59-56,8,61,0.6560305852959654,right,probe,ambiguous-switch,-1,30,right,right,0.183
MHN1998MRNO,2019-10-07-10-59-56,8,62,0.6461478095824923,right,both,ambiguous-switch,91,30,right,right,0.153
MHN1998MRNO,2019-10-07-10-59-56,8,63,0.5066404914614749,right,probe,biased-switch,-1,10,right,right,0.086
MHN1998MRNO,2019-10-07-10-59-56,8,64,0.6376625917846965,right,both,biased-switch,106,10,right,left,0.294
MHN1998MRNO,2019-10-07-10-59-56,8,65,0.6424549942259498,right,probe,biased-switch,-1,0,right,right,0.136
MHN1998MRNO,2019-10-07-10-59-56,8,66,0.5050717493000895,right,both,biased-switch,94,0,right,left,0.175
MHN1998MRNO,2019-10-07-10-59-56,8,67,0.5707893489131618,left,probe,biased-switch,-1,-30,right,right,0.275
MHN1998MRNO,2019-10-07-10-59-56,8,68,0.5109824523651321,left,both,biased-switch,102,-30,right,right,0.136
MHN1998MRNO,2019-10-07-10-59-56,8,69,0.5305194990061505,right,probe,ambiguous-switch,-1,10,left,left,0.183
MHN1998MRNO,2019-10-07-10-59-56,8,70,0.5013729700574121,right,both,ambiguous-switch,108,10,left,left,0.172
MHN1998MRNO,2019-10-07-10-59-56,8,71,0.5734364114016381,left,probe,biased-switch,-1,-5,right,right,0.133
MHN1998MRNO,2019-10-07-10-59-56,8,72,0.6858216224954565,left,both,biased-switch,91,-5,right,right,0.169
MHN1998MRNO,2019-10-07-10-59-56,8,73,0.5917741737103565,right,probe,biased-switch,-1,40,right,right,0.201
MHN1998MRNO,2019-10-07-10-59-56,8,74,0.5597103579805625,right,both,biased-switch,98,40,right,right,0.154
MHN1998MRNO,2019-10-07-10-59-56,8,75,0.5174802343601759,left,probe,ambiguous-switch,-1,5,right,right,0.167
MHN1998MRNO,2019-10-07-10-59-56,8,76,0.534081718305182,left,both,ambiguous-switch,100,5,right,left,0.28
MHN1998MRNO,2019-10-07-10-59-56,8,77,0.5170348905104948,left,probe,biased-switch,-1,5,right,right,0.176
MHN1998MRNO,2019-10-07-10-59-56,8,78,0.5554942340823379,left,both,biased-switch,90,5,right,left,0.241
MHN1998MRNO,2019-10-07-10-59-56,8,79,0.561758949455316,left,probe,ambiguous-switch,-1,20,right,right,0.194
MHN1998MRNO,2019-10-07-10-59-56,8,80,0.5499646587643239,left,both,ambiguous-switch,97,20,right,right,0.199
MHN1998MRNO,2019-10-07-10-59-56,9,1,0.6136150012198376,right,probe,biased-switch,-1,20,left,left,0.213
MHN1998MRNO,2019-10-07-10-59-56,9,2,0.5137290377276305,right,both,biased-switch,101,20,left,left,0.21
MHN1998MRNO,2019-10-07-10-59-56,9,3,0.5333320204269802,left,probe,biased-switch,-1,-5,right,right,0.097
MHN1998MRNO,2019-10-07-10-59-56,9,4,0.6350177198746152,left,both,biased-switch,105,-5,right,right,0.239
MHN1998MRNO,2019-10-07-10-59-56,9,5,0.6503222591227781,right,probe,ambiguous-switch,-1,0,left,left,0.157
MHN1998MRNO,2019-10-07-10-59-56,9,6,0.6571658400926152,right,both,ambiguous-switch,94,0,left,left,0.141
MHN1998MRNO,2019-10-07-10-59-56,9,7,0.6921297590077458,left,probe,biased-switch,-1,0,left,left,0.228
MHN1998MRNO,2019-10-07-10-59-56,9,8,0.581768614147474,left,both,biased-switch,91,0,left,right,0.351
MHN1998MRNO,2019-10-07-10-59-56,9,9,0.6762411917529537,left,probe,ambiguous-switch,-1,30,left,left,0.171
MHN1998MRNO,2019-10-07-10-59-56,9,10,0.5748860433974,left,both,ambiguous-switch,105,30,left,right,0.223
MHN1998MRNO,2019-10-07-10-59-56,9,11,0.6482965555072095,left,probe,biased-switch,-1,-30,right,right,0.187
MHN1998MRNO,2019-10-07-10-59-56,9,12,0.5320881566684801,left,both,biased-switch,99,-30,right,right,0.238
MHN1998MRNO,2019-10-07-10-59-56,9,13,0.6502734862486803,left,probe,biased-switch,-1,30,right,right,0.242
MHN1998MRNO,2019-10-07-10-59-56,9,14,0.531466560004283,left,both,biased-switch,103,30,right,right,0.143
MHN1998MRNO,2019-10-07-10-59-56,9,15,0.5672332648070828,right,probe,biased-switch,-1,10,right,right,0.129
MHN1998MRNO,2019-10-07-10-59-56,9,16,0.5376857224230533,right,both,biased-switch,100,10,right,left,0.221
MHN1998MRNO,2019-10-07-10-59-56,9,17,0.5596104551979533,right,probe,biased-switch,-1,-20,left,left,0.108
MHN1998MRNO,2019-10-07-10-59-56,9,18,0.6192543666369105,right,both,biased-switch,98,-20,left,left,0.195
MHN1998MRNO,2019-10-07-10-59-56,9,19,0.6931337107786522,right,probe,ambiguous-switch,-1,10,left,left,0.081
MHN1998MRNO,2019-10-07-10-59-56,9,20,0.6344015908502559,right,both,ambiguous-switch,95,10,left,left,0.046
MHN1998MRNO,2019-10-07-10-59-56,9,21,0.532989503874841,left,probe,ambiguous-switch,-1,-10,left,left,0.199
MHN1998MRNO,2019-10-07-10-59-56,9,22,0.66348207192085,left,both,ambiguous-switch,108,-10,left,left,0.04
MHN1998MRNO,2019-10-07-10-59-56,9,23,0.6343958492021522,left,probe,ambiguous-switch,-1,-20,left,left,0.209
MHN1998MRNO,2019-10-07-10-59-56,9,24,0.5806345299434009,left,both,ambiguous-switch,101,-20,left,left,0.101
MHN1998MRNO,2019-10-07-10-59-56,9,25,0.5207953868890156,left,probe,biased-switch,-1,5,left,left,0.049
MHN1998MRNO,2019-10-07-10-59-56,9,26,0.5826596683191189,left,both,biased-switch,100,5,left,right,0.185
MHN1998MRNO,2019-10-07-10-59-56,9,27,0.5733825345610462,left,probe,ambiguous-switch,-1,20,right,right,0.202
MHN1998MRNO,2019-10-07-10-59-56,9,28,0.5305956777226153,left,both,ambiguous-switch,97,20,right,right,0.076
MHN1998MRNO,2019-10-07-10-59-56,9,29,0.6689284094083239,right,probe,ambiguous-switch,-1,-5,left,left,0.177
MHN1998MRNO,2019-10-07-10-59-56,9,30,0.5424525701649929,right,both,ambiguous-switch,92,-5,left,left,0.148
MHN1998MRNO,2019-10-07-10-59-56,9,31,0.6176551785693841,left,probe,biased-switch,-1,-10,right,right,0.121
MHN1998MRNO,2019-10-07-10-59-56,9,32,0.5211658073839983,left,both,biased-switch,110,-10,right,right,0.355
MHN1998MRNO,2019-10-07-10-59-56,9,33,0.5936182022924991,right,probe,ambiguous-switch,-1,-30,left,left,0.106
MHN1998MRNO,2019-10-07-10-59-56,9,34,0.6414214631708884,right,both,ambiguous-switch,91,-30,left,left,0.176
MHN1998MRNO,2019-10-07-10-59-56,9,35,0.6283392053701815,left,probe,ambiguous-switch,-1,5,left,left,0.168
MHN1998MRNO,2019-10-07-10-59-56,9,36,0.572997896925544,left,both,ambiguous-switch,98,5,left,right,0.128
MHN1998MRNO,2019-10-07-10-59-56,9,37,0.655082781451026,left,probe,ambiguous-switch,-1,40,left,left,0.215
MHN1998MRNO,2019-10-07-10-59-56,9,38,0.5106679927856502,left,both,ambiguous-switch,106,40,left,right,0.218
MHN1998MRNO,2019-10-07-10-59-56,9,39,0.5722402577077531,left,probe,biased-switch,-1,40,right,right,0.194
MHN1998MRNO,2019-10-07-10-59-56,9,40,0.5804681433352055,left,both,biased-switch,101,40,right,right,0.305
MHN1998MRNO,2019-10-07-10-59-56,9,41,0.5660787992874615,right,probe,biased-switch,-1,20,left,left,0.147
MHN1998MRNO,2019-10-07-10-59-56,9,42,0.5538101037070573,right,both,biased-switch,101,20,left,left,0.21
MHN1998MRNO,2019-10-07-10-59-56,9,43,0.5248025720621674,left,probe,biased-switch,-1,-5,right,right,0.117
MHN1998MRNO,2019-10-07-10-59-56,9,44,0.6479529090822487,left,both,biased-switch,94,-5,right,right,0.09
MHN1998MRNO,2019-10-07-10-59-56,9,45,0.5310214722675127,left,probe,ambiguous-switch,-1,0,right,right,0.253
MHN1998MRNO,2019-10-07-10-59-56,9,46,0.561984289326365,left,both,ambiguous-switch,104,0,right,right,0.187
MHN1998MRNO,2019-10-07-10-59-56,9,47,0.5023092559842215,right,probe,biased-switch,-1,0,left,left,0.074
MHN1998MRNO,2019-10-07-10-59-56,9,48,0.6497183792050597,right,both,biased-switch,104,0,left,right,0.198
MHN1998MRNO,2019-10-07-10-59-56,9,49,0.5900467598108119,right,probe,ambiguous-switch,-1,30,left,left,0.165
MHN1998MRNO,2019-10-07-10-59-56,9,50,0.622490270334325,right,both,ambiguous-switch,108,30,left,right,0.105
MHN1998MRNO,2019-10-07-10-59-56,9,51,0.5083319838193563,right,probe,biased-switch,-1,-30,left,left,0.186
MHN1998MRNO,2019-10-07-10-59-56,9,52,0.5106452056524101,right,both,biased-switch,94,-30,left,left,12.667
MHN1998MRNO,2019-10-07-10-59-56,9,53,0.6969723864457675,left,probe,biased-switch,-1,30,left,left,0.264
MHN1998MRNO,2019-10-07-10-59-56,9,54,0.5001648414125814,left,both,biased-switch,107,30,left,left,0.151
MHN1998MRNO,2019-10-07-10-59-56,9,55,0.6496333451536126,left,probe,biased-switch,-1,10,left,left,0.11
MHN1998MRNO,2019-10-07-10-59-56,9,56,0.593112414230544,left,both,biased-switch,110,10,left,right,0.985
MHN1998MRNO,2019-10-07-10-59-56,9,57,0.6151798843814921,right,probe,biased-switch,-1,-20,left,left,0.232
MHN1998MRNO,2019-10-07-10-59-56,9,58,0.5118855671569149,right,both,biased-switch,105,-20,left,left,0.16
MHN1998MRNO,2019-10-07-10-59-56,9,59,0.5643240131704838,right,probe,ambiguous-switch,-1,10,left,left,0.075
MHN1998MRNO,2019-10-07-10-59-56,9,60,0.6493979515139705,right,both,ambiguous-switch,92,10,left,right,0.065
MHN1998MRNO,2019-10-07-10-59-56,9,61,0.5156581974078647,left,probe,ambiguous-switch,-1,-10,right,right,0.02
MHN1998MRNO,2019-10-07-10-59-56,9,62,0.6836055992490153,left,both,ambiguous-switch,109,-10,right,right,0.172
MHN1998MRNO,2019-10-07-10-59-56,9,63,0.511082042701758,left,probe,ambiguous-switch,-1,-20,right,right,0.132
MHN1998MRNO,2019-10-07-10-59-56,9,64,0.5827275728371859,left,both,ambiguous-switch,107,-20,right,right,0.135
MHN1998MRNO,2019-10-07-10-59-56,9,65,0.6162749399860935,left,probe,biased-switch,-1,5,right,right,0.147
MHN1998MRNO,2019-10-07-10-59-56,9,66,0.6458533290355752,left,both,biased-switch,106,5,right,left,0.195
MHN1998MRNO,2019-10-07-10-59-56,9,67,0.5446258865595648,left,probe,ambiguous-switch,-1,20,right,right,0.086
MHN1998MRNO,2019-10-07-10-59-56,9,68,0.5891920229681589,left,both,ambiguous-switch,108,20,right,right,0.088
MHN1998MRNO,2019-10-07-10-59-56,9,69,0.6446032502259158,right,probe,ambiguous-switch,-1,-5,right,right,0.107
MHN1998MRNO,2019-10-07-10-59-56,9,70,0.5237115383802524,right,both,ambiguous-switch,106,-5,right,right,0.171
MHN1998MRNO,2019-10-07-10-59-56,9,71,0.5827836009486487,right,probe,biased-switch,-1,-10,right,right,0.194
MHN1998MRNO,2019-10-07-10-59-56,9,72,0.6396251966166131,right,both,biased-switch,94,-10,right,left,0.29
MHN1998MRNO,2019-10-07-10-59-56,9,73,0.6341075937301874,right,probe,ambiguous-switch,-1,-30,right,right,0.161
MHN1998MRNO,2019-10-07-10-59-56,9,74,0.5478751794025907,right,both,ambiguous-switch,110,-30,right,left,0.242
MHN1998MRNO,2019-10-07-10-59-56,9,75,0.585611368040826,right,probe,ambiguous-switch,-1,5,right,right,0.729
MHN1998MRNO,2019-10-07-10-59-56,9,76,0.6755703341014866,right,both,ambiguous-switch,91,5,right,left,0.294
MHN1998MRNO,2019-10-07-10-59-56,9,77,0.5206248187526751,right,probe,ambiguous-switch,-1,40,left,left,0.163
MHN1998MRNO,2019-10-07-10-59-56,9,78,0.6464115525469609,right,both,ambiguous-switch,94,40,left,left,0.224
MHN1998MRNO,2019-10-07-10-59-56,9,79,0.6972807584604183,left,probe,biased-switch,-1,40,left,left,0.213
MHN1998MRNO,2019-10-07-10-59-56,9,80,0.5413884922446173,left,both,biased-switch,94,40,left,left,0.178
MHN1998MRNO,2019-10-07-10-59-56,10,1,0.5349162422905894,left,probe,biased-switch,-1,0,left,left,0.234
MHN1998MRNO,2019-10-07-10-59-56,10,2,0.6365235988915461,left,both,biased-switch,105,0,left,right,0.196
MHN1998MRNO,2019-10-07-10-59-56,10,3,0.6440505362596018,right,probe,ambiguous-switch,-1,-10,left,left,0.145
MHN1998MRNO,2019-10-07-10-59-56,10,4,0.6026412499805024,right,both,ambiguous-switch,108,-10,left,left,0.168
MHN1998MRNO,2019-10-07-10-59-56,10,5,0.6611654156974709,left,probe,biased-switch,-1,-20,left,left,0.057
MHN1998MRNO,2019-10-07-10-59-56,10,6,0.5479195067543523,left,both,biased-switch,92,-20,left,right,0.136
MHN1998MRNO,2019-10-07-10-59-56,10,7,0.6250926635905802,right,probe,biased-switch,-1,-10,left,left,0.017
MHN1998MRNO,2019-10-07-10-59-56,10,8,0.5933351525080814,right,both,biased-switch,105,-10,left,left,0.119
MHN1998MRNO,2019-10-07-10-59-56,10,9,0.6794714511407953,right,probe,biased-switch,-1,30,left,left,0.126
MHN1998MRNO,2019-10-07-10-59-56,10,10,0.6203770843672545,right,both,biased-switch,107,30,left,left,0.192
MHN1998MRNO,2019-10-07-10-59-56,10,11,0.6727580714835548,left,probe,ambiguous-switch,-1,20,left,left,0.069
MHN1998MRNO,2019-10-07-10-59-56,10,12,0.553976133192661,left,both,ambiguous-switch,101,20,left,right,0.119
MHN1998MRNO,2019-10-07-10-59-56,10,13,0.6908989707249387,left,probe,ambiguous-switch,-1,0,left,left,0.228
MHN1998MRNO,2019-10-07-10-59-56,10,14,0.6518227229757174,left,both,ambiguous-switch,104,0,left,right,0.169
MHN1998MRNO,2019-10-07-10-59-56,10,15,0.6382654282850662,right,probe,biased-switch,-1,10,left,left,0.17
MHN1998MRNO,2019-10-07-10-59-56,10,16,0.5590030639723974,right,both,biased-switch,93,10,left,right,0.241
MHN1998MRNO,2019-10-07-10-59-56,10,17,0.5853626754370342,left,probe,biased-switch,-1,20,right,right,0.101
MHN1998MRNO,2019-10-07-10-59-56,10,18,0.6846866552520984,left,both,biased-switch,103,20,right,right,0.058
MHN1998MRNO,2019-10-07-10-59-56,10,19,0.5104109047450095,left,probe,biased-switch,-1,40,right,right,0.114
MHN1998MRNO,2019-10-07-10-59-56,10,20,0.6914823020240484,left,both,biased-switch,107,40,right,right,0.149
MHN1998MRNO,2019-10-07-10-59-56,10,21,0.5835470325659512,right,probe,ambiguous-switch,-1,5,right,right,0.087
MHN1998MRNO,2019-10-07-10-59-56,10,22,0.687773301578715,right,both,ambiguous-switch,100,5,right,left,0.133
MHN1998MRNO,2019-10-07-10-59-56,10,23,0.656037677574648,right,probe,ambiguous-switch,-1,-30,left,left,0.123
MHN1998MRNO,2019-10-07-10-59-56,10,24,0.6027522281882379,right,both,ambiguous-switch,103,-30,left,left,0.172
MHN1998MRNO,2019-10-07-10-59-56,10,25,0.6945784013682407,right,probe,biased-switch,-1,5,left,left,0.163
MHN1998MRNO,2019-10-07-10-59-56,10,26,0.6432322708075795,right,both,biased-switch,105,5,left,right,0.127
MHN1998MRNO,2019-10-07-10-59-56,10,27,0.697146905079421,left,probe,ambiguous-switch,-1,40,right,right,0.118
MHN1998MRNO,2019-10-07-10-59-56,10,28,0.5971666219878683,left,both,ambiguous-switch,91,40,right,right,0.073
MHN1998MRNO,2019-10-07-10-59-56,10,29,0.6282591331791737,left,probe,ambiguous-switch,-1,-20,right,right,1.806
MHN1998MRNO,2019-10-07-10-59-56,10,30,0.6589210780603931,left,both,ambiguous-switch,103,-20,right,right,0.088
MHN1998MRNO,2019-10-07-10-59-56,10,31,0.5399016983650939,left,probe,ambiguous-switch,-1,-5,right,right,0.03
MHN1998MRNO,2019-10-07-10-59-56,10,32,0.593944743844607,left,both,ambiguous-switch,92,-5,right,right,0.144
MHN1998MRNO,2019-10-07-10-59-56,10,33,0.6959272032749881,left,probe,ambiguous-switch,-1,10,right,right,0.128
MHN1998MRNO,2019-10-07-10-59-56,10,34,0.6268010311568843,left,both,ambiguous-switch,96,10,right,right,0.124
MHN1998MRNO,2019-10-07-10-59-56,10,35,0.6609162452280117,left,probe,biased-switch,-1,-30,right,right,0.043
MHN1998MRNO,2019-10-07-10-59-56,10,36,0.6735036808097249,left,both,biased-switch,101,-30,right,right,0.16
MHN1998MRNO,2019-10-07-10-59-56,10,37,0.589321359370959,right,probe,biased-switch,-1,-5,right,right,0.102
MHN1998MRNO,2019-10-07-10-59-56,10,38,0.519026258179961,right,both,biased-switch,99,-5,right,right,0.151
MHN1998MRNO,2019-10-07-10-59-56,10,39,0.6562717800254159,right,probe,ambiguous-switch,-1,30,right,right,0.103
MHN1998MRNO,2019-10-07-10-59-56,10,40,0.5072744483178315,right,both,ambiguous-switch,96,30,right,right,0.195
MHN1998MRNO,2019-10-07-10-59-56,10,41,0.6303015222419068,left,probe,biased-switch,-1,0,right,right,0.058
MHN1998MRNO,2019-10-07-10-59-56,10,42,0.6905751844253294,left,both,biased-switch,91,0,right,right,0.094
MHN1998MRNO,2019-10-07-10-59-56,10,43,0.6728273219525609,right,probe,ambiguous-switch,-1,-10,right,right,0.129
MHN1998MRNO,2019-10-07-10-59-56,10,44,0.5887905710279563,right,both,ambiguous-switch,98,-10,right,right,0.076
MHN1998MRNO,2019-10-07-10-59-56,10,45,0.5650539857488089,left,probe,biased-switch,-1,-20,right,right,0.21
MHN1998MRNO,2019-10-07-10-59-56,10,46,0.661136535003053,left,both,biased-switch,101,-20,right,right,0.194
MHN1998MRNO,2019-10-07-10-59-56,10,47,0.6045622726668524,right,probe,biased-switch,-1,-10,right,right,0.163
MHN1998MRNO,2019-10-07-10-59-56,10,48,0.5524450106467074,right,both,biased-switch,98,-10,right,right,0.215
MHN1998MRNO,2019-10-07-10-59-56,10,49,0.5734084574159153,left,probe,biased-switch,-1,30,right,right,0.186
MHN1998MRNO,2019-10-07-10-59-56,10,50,0.6708826285858445,left,both,biased-switch,97,30,right,right,0.146
MHN1998MRNO,2019-10-07-10-59-56,10,51,0.6698977387548835,right,probe,ambiguous-switch,-1,20,right,right,0.165
MHN1998MRNO,2019-10-07-10-59-56,10,52,0.5329829897672032,right,both,ambiguous-switch,94,20,right,left,0.198
MHN1998MRNO,2019-10-07-10-59-56,10,53,0.5446123127846234,left,probe,ambiguous-switch,-1,0,right,right,0.168
MHN1998MRNO,2019-10-07-10-59-56,10,54,0.5303495080769924,left,both,ambiguous-switch,99,0,right,right,0.06
MHN1998MRNO,2019-10-07-10-59-56,10,55,0.6663529060867379,left,probe,biased-switch,-1,10,right,right,0.067
MHN1998MRNO,2019-10-07-10-59-56,10,56,0.6989632404248102,left,both,biased-switch,94,10,right,right,0.159
MHN1998MRNO,2019-10-07-10-59-56,10,57,0.6623191299030945,left,probe,biased-switch,-1,20,right,right,0.162
MHN1998MRNO,2019-10-07-10-59-56,10,58,0.5738828782129368,left,both,biased-switch,106,20,right,right,0.212
MHN1998MRNO,2019-10-07-10-59-56,10,59,0.6024181245286028,right,probe,biased-switch,-1,40,right,right,0.093
MHN1998MRNO,2019-10-07-10-59-56,10,60,0.6116231034238188,right,both,biased-switch,101,40,right,right,0.205
MHN1998MRNO,2019-10-07-10-59-56,10,61,0.6918634430954309,left,probe,ambiguous-switch,-1,5,right,right,0.157
MHN1998MRNO,2019-10-07-10-59-56,10,62,0.5132043944995605,left,both,ambiguous-switch,92,5,right,left,0.165
MHN1998MRNO,2019-10-07-10-59-56,10,63,0.5720543006171703,left,probe,ambiguous-switch,-1,-30,right,right,0.066
MHN1998MRNO,2019-10-07-10-59-56,10,64,0.5171644858158323,left,both,ambiguous-switch,93,-30,right,right,0.088
MHN1998MRNO,2019-10-07-10-59-56,10,65,0.6610978202139798,right,probe,biased-switch,-1,5,right,right,0.126
MHN1998MRNO,2019-10-07-10-59-56,10,66,0.6101680979217152,right,both,biased-switch,94,5,right,left,0.118
MHN1998MRNO,2019-10-07-10-59-56,10,67,0.6563911655617788,right,probe,ambiguous-switch,-1,40,right,right,0.08
MHN1998MRNO,2019-10-07-10-59-56,10,68,0.6179867078907455,right,both,ambiguous-switch,108,40,right,right,0.264
MHN1998MRNO,2019-10-07-10-59-56,10,69,0.6667791651265503,right,probe,ambiguous-switch,-1,-20,right,right,0.107
MHN1998MRNO,2019-10-07-10-59-56,10,70,0.54538083390576,right,both,ambiguous-switch,96,-20,right,left,0.098
MHN1998MRNO,2019-10-07-10-59-56,10,71,0.511005689197209,right,probe,ambiguous-switch,-1,-5,left,left,0.168
MHN1998MRNO,2019-10-07-10-59-56,10,72,0.5646672290563276,right,both,ambiguous-switch,102,-5,left,left,0.167
MHN1998MRNO,2019-10-07-10-59-56,10,73,0.5066751937080352,right,probe,ambiguous-switch,-1,10,left,left,0.074
MHN1998MRNO,2019-10-07-10-59-56,10,74,0.6658280790463222,right,both,ambiguous-switch,105,10,left,left,0.151
MHN1998MRNO,2019-10-07-10-59-56,10,75,0.5408631190069845,left,probe,biased-switch,-1,-30,left,left,0.022
MHN1998MRNO,2019-10-07-10-59-56,10,76,0.685185519797133,left,both,biased-switch,109,-30,left,left,0.155
MHN1998MRNO,2019-10-07-10-59-56,10,77,0.5278472413890892,left,probe,biased-switch,-1,-5,left,left,0.136
MHN1998MRNO,2019-10-07-10-59-56,10,78,0.5577669547458173,left,both,biased-switch,108,-5,left,left,0.192
MHN1998MRNO,2019-10-07-10-59-56,10,79,0.6211755407334517,right,probe,ambiguous-switch,-1,30,left,left,0.228
MHN1998MRNO,2019-10-07-10-59-56,10,80,0.5057071202266039,right,both,ambiguous-switch,107,30,left,left,0.284
