Participant,Session,Block,Trial,OnsetDelay,ProbeLocation,WhatIsReported,Condition,TriggerTime,ProbeSOA,PrimeDirection,Response,RT
CKB1999WRNO,2020-01-31-13-15-39,1,1,0.6796238405411402,right,probe,ambiguous-switch,-1,-12,right,right,0.764
CKB1999WRNO,2020-01-31-13-15-39,1,2,0.6309898640812729,right,both,ambiguous-switch,64,-12,right,right,0.393
CKB1999WRNO,2020-01-31-13-15-39,1,3,0.5249520609155882,left,probe,ambiguous-switch,-1,-18,left,left,0.565
CKB1999WRNO,2020-01-31-13-15-39,1,4,0.6900302924267975,left,both,ambiguous-switch,57,-18,left,left,0.375
CKB1999WRNO,2020-01-31-13-15-39,1,5,0.5001462572253039,left,probe,biased-switch,-1,12,left,left,0.51
CKB1999WRNO,2020-01-31-13-15-39,1,6,0.6620945603055982,left,both,biased-switch,60,12,left,left,0.493
CKB1999WRNO,2020-01-31-13-15-39,1,7,0.5105958266864242,right,probe,ambiguous-stable,-1,-12,right,right,0.679
CKB1999WRNO,2020-01-31-13-15-39,1,8,0.5873850049051248,right,both,ambiguous-stable,66,-12,left,right,0.484
CKB1999WRNO,2020-01-31-13-15-39,1,9,0.542715847468133,left,probe,biased-switch,-1,-18,left,left,0.567
CKB1999WRNO,2020-01-31-13-15-39,1,10,0.6657769950720505,left,both,biased-switch,61,-18,left,left,0.452
CKB1999WRNO,2020-01-31-13-15-39,1,11,0.5351320668903263,right,probe,ambiguous-stable,-1,-18,right,right,0.541
CKB1999WRNO,2020-01-31-13-15-39,1,12,0.6769461658514805,right,both,ambiguous-stable,55,-18,left,right,0.468
CKB1999WRNO,2020-01-31-13-15-39,1,13,0.5843297891742821,right,probe,ambiguous-switch,-1,12,right,right,0.673
CKB1999WRNO,2020-01-31-13-15-39,1,14,0.6121918519019405,right,both,ambiguous-switch,65,12,right,right,0.45
CKB1999WRNO,2020-01-31-13-15-39,1,15,0.5725062119685876,right,probe,ambiguous-switch,-1,18,right,right,0.561
CKB1999WRNO,2020-01-31-13-15-39,1,16,0.6830402467109487,right,both,ambiguous-switch,62,18,right,right,0.448
CKB1999WRNO,2020-01-31-13-15-39,1,17,0.65062794376397,right,probe,biased-switch,-1,-12,right,right,0.599
CKB1999WRNO,2020-01-31-13-15-39,1,18,0.552349405449739,right,both,biased-switch,59,-12,right,right,0.794
CKB1999WRNO,2020-01-31-13-15-39,1,19,0.6680573128374365,right,probe,biased-switch,-1,-3,right,right,0.505
CKB1999WRNO,2020-01-31-13-15-39,1,20,0.5966045315671008,right,both,biased-switch,62,-3,right,right,0.503
CKB1999WRNO,2020-01-31-13-15-39,1,21,0.5556992411764635,left,probe,ambiguous-switch,-1,24,left,left,0.56
CKB1999WRNO,2020-01-31-13-15-39,1,22,0.6003778207143778,left,both,ambiguous-switch,64,24,left,left,0.479
CKB1999WRNO,2020-01-31-13-15-39,1,23,0.5972028331782322,right,probe,ambiguous-stable,-1,0,right,right,0.703
CKB1999WRNO,2020-01-31-13-15-39,1,24,0.5253727828639235,right,both,ambiguous-stable,59,0,left,right,0.324
CKB1999WRNO,2020-01-31-13-15-39,1,25,0.6847002783113685,left,probe,ambiguous-stable,-1,18,left,left,0.707
CKB1999WRNO,2020-01-31-13-15-39,1,26,0.5258094640441022,left,both,ambiguous-stable,63,18,right,left,0.351
CKB1999WRNO,2020-01-31-13-15-39,1,27,0.5106239183808232,left,probe,biased-switch,-1,6,left,left,0.409
CKB1999WRNO,2020-01-31-13-15-39,1,28,0.5809844777253889,left,both,biased-switch,66,6,left,left,7.128
CKB1999WRNO,2020-01-31-13-15-39,1,29,0.6687585761337806,left,probe,ambiguous-stable,-1,24,left,left,0.542
CKB1999WRNO,2020-01-31-13-15-39,1,30,0.6504975809112005,left,both,ambiguous-stable,61,24,right,left,0.408
CKB1999WRNO,2020-01-31-13-15-39,1,31,0.6323457982070239,left,probe,ambiguous-switch,-1,3,left,left,0.555
CKB1999WRNO,2020-01-31-13-15-39,1,32,0.5203870593318409,left,both,ambiguous-switch,63,3,left,left,0.392
CKB1999WRNO,2020-01-31-13-15-39,1,33,0.5498822027955429,left,probe,ambiguous-switch,-1,-3,left,left,0.697
CKB1999WRNO,2020-01-31-13-15-39,1,34,0.5938552027118731,left,both,ambiguous-switch,54,-3,left,left,0.325
CKB1999WRNO,2020-01-31-13-15-39,1,35,0.6328094718337862,right,probe,ambiguous-stable,-1,12,right,right,1.057
CKB1999WRNO,2020-01-31-13-15-39,1,36,0.5134730552498824,right,both,ambiguous-stable,63,12,left,right,0.563
CKB1999WRNO,2020-01-31-13-15-39,1,37,0.5406607037596112,left,probe,biased-switch,-1,3,left,left,0.579
CKB1999WRNO,2020-01-31-13-15-39,1,38,0.6297517780580564,left,both,biased-switch,61,3,left,left,4.169
CKB1999WRNO,2020-01-31-13-15-39,1,39,0.6760154401722224,left,probe,ambiguous-stable,-1,6,left,left,0.567
CKB1999WRNO,2020-01-31-13-15-39,1,40,0.5552409008268178,left,both,ambiguous-stable,56,6,right,left,0.327
CKB1999WRNO,2020-01-31-13-15-39,1,41,0.6062428212888463,right,probe,biased-switch,-1,-6,right,right,0.512
CKB1999WRNO,2020-01-31-13-15-39,1,42,0.6765859263591902,right,both,biased-switch,58,-6,right,right,0.271
CKB1999WRNO,2020-01-31-13-15-39,1,43,0.5312348641792355,left,probe,ambiguous-stable,-1,3,left,left,0.527
CKB1999WRNO,2020-01-31-13-15-39,1,44,0.5034737222835415,left,both,ambiguous-stable,55,3,right,left,3.306
CKB1999WRNO,2020-01-31-13-15-39,1,45,0.6733158274143888,left,probe,biased-switch,-1,24,left,left,0.755
CKB1999WRNO,2020-01-31-13-15-39,1,46,0.6691205668395173,left,both,biased-switch,65,24,left,left,0.341
CKB1999WRNO,2020-01-31-13-15-39,1,47,0.5067184836372425,right,probe,ambiguous-switch,-1,-6,right,right,0.802
CKB1999WRNO,2020-01-31-13-15-39,1,48,0.6451016487726742,right,both,ambiguous-switch,61,-6,right,right,0.412
CKB1999WRNO,2020-01-31-13-15-39,1,49,0.5692645340462644,left,probe,ambiguous-stable,-1,-3,left,left,0.598
CKB1999WRNO,2020-01-31-13-15-39,1,50,0.5707387114335172,left,both,ambiguous-stable,59,-3,right,left,0.297
CKB1999WRNO,2020-01-31-13-15-39,1,51,0.6483740311721294,right,probe,ambiguous-switch,-1,6,right,right,0.658
CKB1999WRNO,2020-01-31-13-15-39,1,52,0.5808746079324615,right,both,ambiguous-switch,56,6,right,right,4.052
CKB1999WRNO,2020-01-31-13-15-39,1,53,0.551075384097403,right,probe,biased-switch,-1,18,right,right,0.591
CKB1999WRNO,2020-01-31-13-15-39,1,54,0.6757422319837096,right,both,biased-switch,64,18,right,right,3.031
CKB1999WRNO,2020-01-31-13-15-39,1,55,0.5182491277410171,left,probe,ambiguous-switch,-1,0,left,left,0.408
CKB1999WRNO,2020-01-31-13-15-39,1,56,0.5375077573075376,left,both,ambiguous-switch,66,0,left,left,0.359
CKB1999WRNO,2020-01-31-13-15-39,1,57,0.5581104618288045,right,probe,biased-switch,-1,0,right,right,0.731
CKB1999WRNO,2020-01-31-13-15-39,1,58,0.6160500302214494,right,both,biased-switch,61,0,right,right,0.304
CKB1999WRNO,2020-01-31-13-15-39,1,59,0.6815823694503409,right,probe,ambiguous-stable,-1,-6,right,right,1.322
CKB1999WRNO,2020-01-31-13-15-39,1,60,0.6461179613346065,right,both,ambiguous-stable,65,-6,left,right,0.101
CKB1999WRNO,2020-01-31-13-15-39,2,1,0.507077961402413,left,probe,ambiguous-stable,-1,-12,left,left,3.74
CKB1999WRNO,2020-01-31-13-15-39,2,2,0.6483274788224137,left,both,ambiguous-stable,58,-12,right,left,4.203
CKB1999WRNO,2020-01-31-13-15-39,2,3,0.5059571352874369,left,probe,biased-switch,-1,24,left,left,0.364
CKB1999WRNO,2020-01-31-13-15-39,2,4,0.6914705547180682,left,both,biased-switch,62,24,left,left,0.075
CKB1999WRNO,2020-01-31-13-15-39,2,5,0.6731046408701864,left,probe,biased-switch,-1,3,left,left,0.566
CKB1999WRNO,2020-01-31-13-15-39,2,6,0.626662735511417,left,both,biased-switch,65,3,left,left,0.451
CKB1999WRNO,2020-01-31-13-15-39,2,7,0.573924242729706,right,probe,biased-switch,-1,-18,right,right,0.492
CKB1999WRNO,2020-01-31-13-15-39,2,8,0.6602119993867731,right,both,biased-switch,62,-18,right,right,0.312
CKB1999WRNO,2020-01-31-13-15-39,2,9,0.5288850494696722,left,probe,ambiguous-switch,-1,0,left,left,0.533
CKB1999WRNO,2020-01-31-13-15-39,2,10,0.6349171286966967,left,both,ambiguous-switch,59,0,left,left,0.525
CKB1999WRNO,2020-01-31-13-15-39,2,11,0.6104331113064695,right,probe,ambiguous-switch,-1,-18,right,right,0.637
CKB1999WRNO,2020-01-31-13-15-39,2,12,0.561250817862437,right,both,ambiguous-switch,61,-18,right,right,0.588
CKB1999WRNO,2020-01-31-13-15-39,2,13,0.62913683702597,left,probe,ambiguous-stable,-1,-3,left,left,0.572
CKB1999WRNO,2020-01-31-13-15-39,2,14,0.6507150313398652,left,both,ambiguous-stable,65,-3,right,left,0.601
CKB1999WRNO,2020-01-31-13-15-39,2,15,0.6126678221615759,left,probe,biased-switch,-1,0,left,left,0.679
CKB1999WRNO,2020-01-31-13-15-39,2,16,0.616083721310947,left,both,biased-switch,56,0,left,left,0.807
CKB1999WRNO,2020-01-31-13-15-39,2,17,0.5371940348201081,right,probe,ambiguous-stable,-1,-18,right,right,0.587
CKB1999WRNO,2020-01-31-13-15-39,2,18,0.6408992511798973,right,both,ambiguous-stable,61,-18,left,right,0.551
CKB1999WRNO,2020-01-31-13-15-39,2,19,0.67606938782904,left,probe,ambiguous-switch,-1,-6,left,left,0.44
CKB1999WRNO,2020-01-31-13-15-39,2,20,0.6896686289472882,left,both,ambiguous-switch,61,-6,left,left,0.362
CKB1999WRNO,2020-01-31-13-15-39,2,21,0.5747158674683425,left,probe,biased-switch,-1,-12,left,left,0.499
CKB1999WRNO,2020-01-31-13-15-39,2,22,0.6912839924089659,left,both,biased-switch,61,-12,left,left,0.553
CKB1999WRNO,2020-01-31-13-15-39,2,23,0.560950320250641,right,probe,ambiguous-switch,-1,18,right,right,1.144
CKB1999WRNO,2020-01-31-13-15-39,2,24,0.6277888742228346,right,both,ambiguous-switch,56,18,right,right,0.44
CKB1999WRNO,2020-01-31-13-15-39,2,25,0.5549177231375203,right,probe,biased-switch,-1,6,right,right,0.513
CKB1999WRNO,2020-01-31-13-15-39,2,26,0.6676862967338613,right,both,biased-switch,63,6,right,right,0.639
CKB1999WRNO,2020-01-31-13-15-39,2,27,0.6649736791768228,right,probe,ambiguous-stable,-1,3,right,right,0.59
CKB1999WRNO,2020-01-31-13-15-39,2,28,0.5514319151165588,right,both,ambiguous-stable,60,3,left,right,0.347
CKB1999WRNO,2020-01-31-13-15-39,2,29,0.5307134388235784,right,probe,ambiguous-switch,-1,3,right,right,0.539
CKB1999WRNO,2020-01-31-13-15-39,2,30,0.6931767818484309,right,both,ambiguous-switch,65,3,right,right,0.551
CKB1999WRNO,2020-01-31-13-15-39,2,31,0.5814401513456512,right,probe,ambiguous-stable,-1,0,right,right,0.598
CKB1999WRNO,2020-01-31-13-15-39,2,32,0.5404259066255609,right,both,ambiguous-stable,57,0,left,right,0.835
CKB1999WRNO,2020-01-31-13-15-39,2,33,0.6222272729586195,left,probe,biased-switch,-1,-6,left,left,0.655
CKB1999WRNO,2020-01-31-13-15-39,2,34,0.5907493287806524,left,both,biased-switch,63,-6,left,left,0.456
CKB1999WRNO,2020-01-31-13-15-39,2,35,0.6939001265122287,left,probe,ambiguous-stable,-1,6,left,left,0.488
CKB1999WRNO,2020-01-31-13-15-39,2,36,0.6347190476544261,left,both,ambiguous-stable,56,6,right,left,0.448
CKB1999WRNO,2020-01-31-13-15-39,2,37,0.6842596990747049,left,probe,ambiguous-switch,-1,24,left,left,0.525
CKB1999WRNO,2020-01-31-13-15-39,2,38,0.5353444805086733,left,both,ambiguous-switch,63,24,left,left,0.565
CKB1999WRNO,2020-01-31-13-15-39,2,39,0.6567488400680702,right,probe,ambiguous-stable,-1,-6,right,right,0.673
CKB1999WRNO,2020-01-31-13-15-39,2,40,0.6399761494321576,right,both,ambiguous-stable,61,-6,left,right,0.558
CKB1999WRNO,2020-01-31-13-15-39,2,41,0.6854268754386199,right,probe,ambiguous-switch,-1,12,right,right,0.656
CKB1999WRNO,2020-01-31-13-15-39,2,42,0.6904533606856278,right,both,ambiguous-switch,58,12,right,right,0.578
CKB1999WRNO,2020-01-31-13-15-39,2,43,0.5302176563072302,left,probe,ambiguous-switch,-1,-3,left,left,0.794
CKB1999WRNO,2020-01-31-13-15-39,2,44,0.6582298786765841,left,both,ambiguous-switch,56,-3,left,left,0.474
CKB1999WRNO,2020-01-31-13-15-39,2,45,0.5158968777113113,right,probe,ambiguous-switch,-1,-12,right,right,0.809
CKB1999WRNO,2020-01-31-13-15-39,2,46,0.5131430773165837,right,both,ambiguous-switch,55,-12,right,right,0.541
CKB1999WRNO,2020-01-31-13-15-39,2,47,0.6516635561281658,left,probe,ambiguous-switch,-1,6,right,right,2.09
CKB1999WRNO,2020-01-31-13-15-39,2,48,0.5733248532671551,left,both,ambiguous-switch,57,6,right,left,0.672
CKB1999WRNO,2020-01-31-13-15-39,2,49,0.5595402175897182,right,probe,biased-switch,-1,12,right,right,0.688
CKB1999WRNO,2020-01-31-13-15-39,2,50,0.622535931809112,right,both,biased-switch,59,12,right,right,0.566
CKB1999WRNO,2020-01-31-13-15-39,2,51,0.6033242932200276,left,probe,ambiguous-stable,-1,12,left,left,0.579
CKB1999WRNO,2020-01-31-13-15-39,2,52,0.5411809288600636,left,both,ambiguous-stable,55,12,right,left,0.443
CKB1999WRNO,2020-01-31-13-15-39,2,53,0.5426654056460789,right,probe,biased-switch,-1,-3,right,right,0.716
CKB1999WRNO,2020-01-31-13-15-39,2,54,0.6799187042754085,right,both,biased-switch,62,-3,right,right,0.567
CKB1999WRNO,2020-01-31-13-15-39,2,55,0.64026522671998,left,probe,ambiguous-stable,-1,18,left,left,0.788
CKB1999WRNO,2020-01-31-13-15-39,2,56,0.6245027895620748,left,both,ambiguous-stable,60,18,right,left,0.663
CKB1999WRNO,2020-01-31-13-15-39,2,57,0.5670550050491882,left,probe,ambiguous-stable,-1,24,left,left,0.755
CKB1999WRNO,2020-01-31-13-15-39,2,58,0.5383768051424189,left,both,ambiguous-stable,59,24,right,left,0.564
CKB1999WRNO,2020-01-31-13-15-39,2,59,0.6411603169751096,left,probe,biased-switch,-1,18,left,left,0.891
CKB1999WRNO,2020-01-31-13-15-39,2,60,0.5436935732261776,left,both,biased-switch,64,18,left,left,0.635
CKB1999WRNO,2020-01-31-13-15-39,3,1,0.6273679315435471,left,probe,biased-switch,-1,0,left,left,0.627
CKB1999WRNO,2020-01-31-13-15-39,3,2,0.564091510771025,left,both,biased-switch,65,0,left,left,0.554
CKB1999WRNO,2020-01-31-13-15-39,3,3,0.691840655283154,right,probe,ambiguous-stable,-1,-6,right,right,0.786
CKB1999WRNO,2020-01-31-13-15-39,3,4,0.6443315637223272,right,both,ambiguous-stable,57,-6,left,right,0.976
CKB1999WRNO,2020-01-31-13-15-39,3,5,0.5939315874039948,left,probe,ambiguous-switch,-1,6,left,left,0.881
CKB1999WRNO,2020-01-31-13-15-39,3,6,0.5588253300990731,left,both,ambiguous-switch,60,6,left,left,0.514
CKB1999WRNO,2020-01-31-13-15-39,3,7,0.5143538679319619,left,probe,biased-switch,-1,-18,left,left,0.809
CKB1999WRNO,2020-01-31-13-15-39,3,8,0.6529510614642994,left,both,biased-switch,59,-18,left,left,0.633
CKB1999WRNO,2020-01-31-13-15-39,3,9,0.6647611042383765,right,probe,ambiguous-switch,-1,3,right,right,0.715
CKB1999WRNO,2020-01-31-13-15-39,3,10,0.5535049040622734,right,both,ambiguous-switch,59,3,right,right,0.661
CKB1999WRNO,2020-01-31-13-15-39,3,11,0.6197923210796261,left,probe,biased-switch,-1,24,left,left,0.799
CKB1999WRNO,2020-01-31-13-15-39,3,12,0.6132591503857634,left,both,biased-switch,55,24,left,left,0.864
CKB1999WRNO,2020-01-31-13-15-39,3,13,0.6129557661169297,right,probe,biased-switch,-1,12,right,right,0.613
CKB1999WRNO,2020-01-31-13-15-39,3,14,0.6137264307925038,right,both,biased-switch,59,12,right,right,1.095
CKB1999WRNO,2020-01-31-13-15-39,3,15,0.6319429214769118,right,probe,biased-switch,-1,-12,right,right,0.943
CKB1999WRNO,2020-01-31-13-15-39,3,16,0.5786087657678655,right,both,biased-switch,63,-12,right,right,0.669
CKB1999WRNO,2020-01-31-13-15-39,3,17,0.5239399051063237,right,probe,ambiguous-switch,-1,24,right,right,1.092
CKB1999WRNO,2020-01-31-13-15-39,3,18,0.5029886094917294,right,both,ambiguous-switch,62,24,right,right,0.699
CKB1999WRNO,2020-01-31-13-15-39,3,19,0.6644607508828987,right,probe,ambiguous-stable,-1,18,right,right,1.252
CKB1999WRNO,2020-01-31-13-15-39,3,20,0.5539991356580733,right,both,ambiguous-stable,62,18,left,right,0.694
CKB1999WRNO,2020-01-31-13-15-39,3,21,0.6894318232717109,right,probe,biased-switch,-1,-6,right,right,1.015
CKB1999WRNO,2020-01-31-13-15-39,3,22,0.6339241221503238,right,both,biased-switch,63,-6,right,right,0.5
CKB1999WRNO,2020-01-31-13-15-39,3,23,0.6498442484571416,right,probe,biased-switch,-1,-3,right,right,0.698
CKB1999WRNO,2020-01-31-13-15-39,3,24,0.6867178879617918,right,both,biased-switch,59,-3,right,right,0.505
CKB1999WRNO,2020-01-31-13-15-39,3,25,0.6628103690288399,left,probe,ambiguous-switch,-1,18,left,left,0.725
CKB1999WRNO,2020-01-31-13-15-39,3,26,0.5949404040437856,left,both,ambiguous-switch,55,18,left,left,0.478
CKB1999WRNO,2020-01-31-13-15-39,3,27,0.6255359462949881,right,probe,ambiguous-stable,-1,6,right,right,0.716
CKB1999WRNO,2020-01-31-13-15-39,3,28,0.6689581329149586,right,both,ambiguous-stable,62,6,left,right,0.557
CKB1999WRNO,2020-01-31-13-15-39,3,29,0.660069613995537,left,probe,ambiguous-switch,-1,-6,left,left,1.327
CKB1999WRNO,2020-01-31-13-15-39,3,30,0.5243798197324293,left,both,ambiguous-switch,63,-6,left,left,0.667
CKB1999WRNO,2020-01-31-13-15-39,3,31,0.6519132479020672,right,probe,ambiguous-switch,-1,12,right,right,0.86
CKB1999WRNO,2020-01-31-13-15-39,3,32,0.580173688971692,right,both,ambiguous-switch,58,12,right,right,0.531
CKB1999WRNO,2020-01-31-13-15-39,3,33,0.6569277421588893,right,probe,ambiguous-stable,-1,0,right,right,0.541
CKB1999WRNO,2020-01-31-13-15-39,3,34,0.6477222298585619,right,both,ambiguous-stable,58,0,left,right,0.585
CKB1999WRNO,2020-01-31-13-15-39,3,35,0.6742621815534839,right,probe,biased-switch,-1,6,right,right,0.798
CKB1999WRNO,2020-01-31-13-15-39,3,36,0.6502922951689807,right,both,biased-switch,59,6,right,right,0.37
CKB1999WRNO,2020-01-31-13-15-39,3,37,0.5153221977218724,right,probe,ambiguous-switch,-1,-18,right,right,0.653
CKB1999WRNO,2020-01-31-13-15-39,3,38,0.6050702560047747,right,both,ambiguous-switch,58,-18,right,right,0.609
CKB1999WRNO,2020-01-31-13-15-39,3,39,0.5260775531474571,right,probe,ambiguous-stable,-1,-3,right,right,0.701
CKB1999WRNO,2020-01-31-13-15-39,3,40,0.5949456643836619,right,both,ambiguous-stable,55,-3,left,right,0.599
CKB1999WRNO,2020-01-31-13-15-39,3,41,0.5490866712229081,left,probe,ambiguous-stable,-1,-18,left,left,0.645
CKB1999WRNO,2020-01-31-13-15-39,3,42,0.5087551354430911,left,both,ambiguous-stable,56,-18,right,left,0.55
CKB1999WRNO,2020-01-31-13-15-39,3,43,0.6622691010432716,left,probe,ambiguous-stable,-1,3,left,left,0.653
CKB1999WRNO,2020-01-31-13-15-39,3,44,0.6558629904979139,left,both,ambiguous-stable,59,3,right,left,0.548
CKB1999WRNO,2020-01-31-13-15-39,3,45,0.5196956893746355,right,probe,biased-switch,-1,18,right,right,0.782
CKB1999WRNO,2020-01-31-13-15-39,3,46,0.6568097211806134,right,both,biased-switch,63,18,right,right,0.464
CKB1999WRNO,2020-01-31-13-15-39,3,47,0.557466687483216,right,probe,biased-switch,-1,3,right,right,0.865
CKB1999WRNO,2020-01-31-13-15-39,3,48,0.5205922460836858,right,both,biased-switch,55,3,right,right,0.535
CKB1999WRNO,2020-01-31-13-15-39,3,49,0.5925310541825867,left,probe,ambiguous-switch,-1,-3,left,left,0.615
CKB1999WRNO,2020-01-31-13-15-39,3,50,0.6597974527789869,left,both,ambiguous-switch,57,-3,left,left,0.559
CKB1999WRNO,2020-01-31-13-15-39,3,51,0.6517450741342512,left,probe,ambiguous-stable,-1,-12,left,left,0.696
CKB1999WRNO,2020-01-31-13-15-39,3,52,0.6098742391861087,left,both,ambiguous-stable,62,-12,right,left,0.723
CKB1999WRNO,2020-01-31-13-15-39,3,53,0.6271814750341886,left,probe,ambiguous-switch,-1,0,left,left,0.843
CKB1999WRNO,2020-01-31-13-15-39,3,54,0.5404113251794644,left,both,ambiguous-switch,64,0,left,left,0.468
CKB1999WRNO,2020-01-31-13-15-39,3,55,0.6066641712145471,right,probe,ambiguous-stable,-1,24,right,right,0.662
CKB1999WRNO,2020-01-31-13-15-39,3,56,0.5523398307459275,right,both,ambiguous-stable,59,24,left,right,0.932
CKB1999WRNO,2020-01-31-13-15-39,3,57,0.6599605258069074,right,probe,ambiguous-stable,-1,12,right,right,0.82
CKB1999WRNO,2020-01-31-13-15-39,3,58,0.5388138980949477,right,both,ambiguous-stable,58,12,left,right,0.529
CKB1999WRNO,2020-01-31-13-15-39,3,59,0.6207046379143758,left,probe,ambiguous-switch,-1,-12,left,left,0.708
CKB1999WRNO,2020-01-31-13-15-39,3,60,0.628406174838178,left,both,ambiguous-switch,61,-12,left,left,0.55
CKB1999WRNO,2020-01-31-13-15-39,4,1,0.6524596313025703,right,probe,ambiguous-switch,-1,6,right,right,0.499
CKB1999WRNO,2020-01-31-13-15-39,4,2,0.6824726262284522,right,both,ambiguous-switch,64,6,right,right,0.612
CKB1999WRNO,2020-01-31-13-15-39,4,3,0.6716870854664028,left,probe,ambiguous-stable,-1,12,left,left,1.169
CKB1999WRNO,2020-01-31-13-15-39,4,4,0.5668009286718669,left,both,ambiguous-stable,59,12,right,left,0.756
CKB1999WRNO,2020-01-31-13-15-39,4,5,0.6338175543895853,right,probe,biased-switch,-1,0,right,right,0.765
CKB1999WRNO,2020-01-31-13-15-39,4,6,0.6455612380583823,right,both,biased-switch,55,0,right,right,0.504
CKB1999WRNO,2020-01-31-13-15-39,4,7,0.5979407602762112,right,probe,ambiguous-stable,-1,3,right,right,0.648
CKB1999WRNO,2020-01-31-13-15-39,4,8,0.5589780486691762,right,both,ambiguous-stable,58,3,left,right,0.578
CKB1999WRNO,2020-01-31-13-15-39,4,9,0.6360591889753628,left,probe,ambiguous-stable,-1,0,left,left,0.454
CKB1999WRNO,2020-01-31-13-15-39,4,10,0.6145529560283451,left,both,ambiguous-stable,59,0,right,left,0.495
CKB1999WRNO,2020-01-31-13-15-39,4,11,0.5298370694129464,left,probe,biased-switch,-1,3,left,left,1.334
CKB1999WRNO,2020-01-31-13-15-39,4,12,0.5804564980382423,left,both,biased-switch,61,3,left,left,0.305
CKB1999WRNO,2020-01-31-13-15-39,4,13,0.5700389912616596,left,probe,ambiguous-stable,-1,-18,left,left,0.559
CKB1999WRNO,2020-01-31-13-15-39,4,14,0.5699852531034095,left,both,ambiguous-stable,56,-18,right,left,0.482
CKB1999WRNO,2020-01-31-13-15-39,4,15,0.5425843777362391,left,probe,biased-switch,-1,6,left,left,0.626
CKB1999WRNO,2020-01-31-13-15-39,4,16,0.6646022680212541,left,both,biased-switch,61,6,left,left,0.409
CKB1999WRNO,2020-01-31-13-15-39,4,17,0.69425913273965,right,probe,ambiguous-stable,-1,-6,right,right,0.605
CKB1999WRNO,2020-01-31-13-15-39,4,18,0.5374941931830411,right,both,ambiguous-stable,60,-6,left,right,0.482
CKB1999WRNO,2020-01-31-13-15-39,4,19,0.6307692411598987,left,probe,ambiguous-stable,-1,24,left,left,0.59
CKB1999WRNO,2020-01-31-13-15-39,4,20,0.5334269858493501,left,both,ambiguous-stable,64,24,right,left,0.67
CKB1999WRNO,2020-01-31-13-15-39,4,21,0.5123042211904553,left,probe,ambiguous-switch,-1,12,left,left,0.711
CKB1999WRNO,2020-01-31-13-15-39,4,22,0.6078854604266529,left,both,ambiguous-switch,59,12,left,left,0.435
CKB1999WRNO,2020-01-31-13-15-39,4,23,0.691820092749474,right,probe,biased-switch,-1,-18,right,right,0.636
CKB1999WRNO,2020-01-31-13-15-39,4,24,0.5672816495537439,right,both,biased-switch,54,-18,right,right,0.779
CKB1999WRNO,2020-01-31-13-15-39,4,25,0.5039169610081644,left,probe,ambiguous-switch,-1,-18,left,left,0.657
CKB1999WRNO,2020-01-31-13-15-39,4,26,0.6115930449440727,left,both,ambiguous-switch,58,-18,left,left,0.475
CKB1999WRNO,2020-01-31-13-15-39,4,27,0.6510541127903207,right,probe,ambiguous-switch,-1,-6,right,right,0.629
CKB1999WRNO,2020-01-31-13-15-39,4,28,0.6273174950869395,right,both,ambiguous-switch,66,-6,right,right,0.489
CKB1999WRNO,2020-01-31-13-15-39,4,29,0.6704447869577564,right,probe,ambiguous-switch,-1,18,right,right,0.616
CKB1999WRNO,2020-01-31-13-15-39,4,30,0.6820369118094286,right,both,ambiguous-switch,57,18,right,right,0.575
CKB1999WRNO,2020-01-31-13-15-39,4,31,0.5875209046987804,right,probe,ambiguous-switch,-1,0,right,right,0.551
CKB1999WRNO,2020-01-31-13-15-39,4,32,0.6769216375008116,right,both,ambiguous-switch,59,0,right,right,0.553
CKB1999WRNO,2020-01-31-13-15-39,4,33,0.5214270901082642,right,probe,ambiguous-stable,-1,18,right,right,0.558
CKB1999WRNO,2020-01-31-13-15-39,4,34,0.5841067394028787,right,both,ambiguous-stable,60,18,left,right,0.585
CKB1999WRNO,2020-01-31-13-15-39,4,35,0.6700807511967819,left,probe,ambiguous-switch,-1,-3,left,left,0.551
CKB1999WRNO,2020-01-31-13-15-39,4,36,0.5223514757399497,left,both,ambiguous-switch,55,-3,left,left,0.631
CKB1999WRNO,2020-01-31-13-15-39,4,37,0.5309349247998029,left,probe,biased-switch,-1,24,left,left,0.74
CKB1999WRNO,2020-01-31-13-15-39,4,38,0.5581356632337554,left,both,biased-switch,60,24,left,left,0.727
CKB1999WRNO,2020-01-31-13-15-39,4,39,0.5231142925490552,left,probe,biased-switch,-1,18,left,left,0.529
CKB1999WRNO,2020-01-31-13-15-39,4,40,0.6139406037448959,left,both,biased-switch,59,18,left,left,0.117
CKB1999WRNO,2020-01-31-13-15-39,4,41,0.5380824599789784,right,probe,ambiguous-switch,-1,3,right,right,0.436
CKB1999WRNO,2020-01-31-13-15-39,4,42,0.5785636071778645,right,both,ambiguous-switch,55,3,right,right,0.631
CKB1999WRNO,2020-01-31-13-15-39,4,43,0.6395487462149803,right,probe,ambiguous-stable,-1,-12,right,right,0.459
CKB1999WRNO,2020-01-31-13-15-39,4,44,0.5632313459131122,right,both,ambiguous-stable,59,-12,left,right,0.384
CKB1999WRNO,2020-01-31-13-15-39,4,45,0.6812528287124022,left,probe,ambiguous-switch,-1,-12,left,left,0.352
CKB1999WRNO,2020-01-31-13-15-39,4,46,0.6512586994045766,left,both,ambiguous-switch,65,-12,left,left,0.451
CKB1999WRNO,2020-01-31-13-15-39,4,47,0.611760514913783,right,probe,biased-switch,-1,-3,right,right,1.228
CKB1999WRNO,2020-01-31-13-15-39,4,48,0.658311069904524,right,both,biased-switch,59,-3,right,right,0.341
CKB1999WRNO,2020-01-31-13-15-39,4,49,0.5576362279197209,right,probe,biased-switch,-1,-6,right,right,0.48
CKB1999WRNO,2020-01-31-13-15-39,4,50,0.6200893669138559,right,both,biased-switch,59,-6,right,right,0.144
CKB1999WRNO,2020-01-31-13-15-39,4,51,0.5236757973839995,left,probe,biased-switch,-1,12,left,left,0.625
CKB1999WRNO,2020-01-31-13-15-39,4,52,0.5506962461376936,left,both,biased-switch,65,12,left,left,0.426
CKB1999WRNO,2020-01-31-13-15-39,4,53,0.5335886968257766,right,probe,biased-switch,-1,-12,right,right,0.608
CKB1999WRNO,2020-01-31-13-15-39,4,54,0.5236250559917383,right,both,biased-switch,56,-12,right,right,0.466
CKB1999WRNO,2020-01-31-13-15-39,4,55,0.5993007880008494,right,probe,ambiguous-switch,-1,24,right,right,0.721
CKB1999WRNO,2020-01-31-13-15-39,4,56,0.661756981004463,right,both,ambiguous-switch,59,24,right,right,0.439
CKB1999WRNO,2020-01-31-13-15-39,4,57,0.5115116781618204,right,probe,ambiguous-stable,-1,-3,right,right,0.549
CKB1999WRNO,2020-01-31-13-15-39,4,58,0.6363360338017172,right,both,ambiguous-stable,63,-3,left,right,0.567
CKB1999WRNO,2020-01-31-13-15-39,4,59,0.6096928565804639,right,probe,ambiguous-stable,-1,6,right,right,0.55
CKB1999WRNO,2020-01-31-13-15-39,4,60,0.6548286315107157,right,both,ambiguous-stable,56,6,left,right,0.339
CKB1999WRNO,2020-01-31-13-15-39,5,1,0.6546649139632332,right,probe,biased-switch,-1,12,right,right,0.521
CKB1999WRNO,2020-01-31-13-15-39,5,2,0.5923019220644755,right,both,biased-switch,60,12,right,right,0.384
CKB1999WRNO,2020-01-31-13-15-39,5,3,0.6921144954709865,right,probe,biased-switch,-1,6,right,right,0.449
CKB1999WRNO,2020-01-31-13-15-39,5,4,0.5022264003271677,right,both,biased-switch,59,6,right,right,0.294
CKB1999WRNO,2020-01-31-13-15-39,5,5,0.6563420140479587,left,probe,ambiguous-stable,-1,6,left,left,0.589
CKB1999WRNO,2020-01-31-13-15-39,5,6,0.6161018457957989,left,both,ambiguous-stable,56,6,right,left,0.358
CKB1999WRNO,2020-01-31-13-15-39,5,7,0.6773418368486723,left,probe,biased-switch,-1,-12,left,left,0.385
CKB1999WRNO,2020-01-31-13-15-39,5,8,0.5080187669251931,left,both,biased-switch,64,-12,left,left,0.48
CKB1999WRNO,2020-01-31-13-15-39,5,9,0.6558960184434908,left,probe,ambiguous-stable,-1,3,left,left,0.454
CKB1999WRNO,2020-01-31-13-15-39,5,10,0.6018491753673544,left,both,ambiguous-stable,61,3,right,left,0.437
CKB1999WRNO,2020-01-31-13-15-39,5,11,0.6701486300298469,right,probe,ambiguous-switch,-1,-12,right,right,0.584
CKB1999WRNO,2020-01-31-13-15-39,5,12,0.6982446809298,right,both,ambiguous-switch,55,-12,right,right,0.708
CKB1999WRNO,2020-01-31-13-15-39,5,13,0.5637753982642738,right,probe,ambiguous-switch,-1,0,right,right,0.612
CKB1999WRNO,2020-01-31-13-15-39,5,14,0.5977619186946905,right,both,ambiguous-switch,62,0,right,right,0.358
CKB1999WRNO,2020-01-31-13-15-39,5,15,0.5004385468381077,left,probe,ambiguous-switch,-1,-3,left,left,0.554
CKB1999WRNO,2020-01-31-13-15-39,5,16,0.6582164081610751,left,both,ambiguous-switch,64,-3,left,left,0.35
CKB1999WRNO,2020-01-31-13-15-39,5,17,0.6603249089115939,left,probe,ambiguous-switch,-1,-6,left,left,0.613
CKB1999WRNO,2020-01-31-13-15-39,5,18,0.6745161849133128,left,both,ambiguous-switch,63,-6,left,left,0.393
CKB1999WRNO,2020-01-31-13-15-39,5,19,0.6453384768822994,right,probe,ambiguous-stable,-1,-18,right,right,0.669
CKB1999WRNO,2020-01-31-13-15-39,5,20,0.6472119997440107,right,both,ambiguous-stable,55,-18,left,right,0.545
CKB1999WRNO,2020-01-31-13-15-39,5,21,0.6469775921982055,left,probe,ambiguous-stable,-1,12,left,left,0.606
CKB1999WRNO,2020-01-31-13-15-39,5,22,0.5326432949836425,left,both,ambiguous-stable,56,12,right,left,0.301
CKB1999WRNO,2020-01-31-13-15-39,5,23,0.6511316903762845,right,probe,biased-switch,-1,-3,right,right,0.515
CKB1999WRNO,2020-01-31-13-15-39,5,24,0.6250498323034815,right,both,biased-switch,55,-3,right,right,1.905
CKB1999WRNO,2020-01-31-13-15-39,5,25,0.5780835647134254,right,probe,ambiguous-stable,-1,-6,right,right,1.05
CKB1999WRNO,2020-01-31-13-15-39,5,26,0.6355728116781625,right,both,ambiguous-stable,60,-6,left,right,0.602
CKB1999WRNO,2020-01-31-13-15-39,5,27,0.672773438725209,left,probe,ambiguous-switch,-1,18,left,left,0.558
CKB1999WRNO,2020-01-31-13-15-39,5,28,0.67595043190804,left,both,ambiguous-switch,54,18,left,left,0.437
CKB1999WRNO,2020-01-31-13-15-39,5,29,0.5160002215343192,left,probe,ambiguous-switch,-1,3,left,left,0.588
CKB1999WRNO,2020-01-31-13-15-39,5,30,0.5101327289773068,left,both,ambiguous-switch,66,3,left,left,0.382
CKB1999WRNO,2020-01-31-13-15-39,5,31,0.5191621947871348,right,probe,ambiguous-switch,-1,24,right,right,0.534
CKB1999WRNO,2020-01-31-13-15-39,5,32,0.5072540447059022,right,both,ambiguous-switch,60,24,right,right,0.336
CKB1999WRNO,2020-01-31-13-15-39,5,33,0.5707007620453153,right,probe,ambiguous-stable,-1,18,right,right,0.448
CKB1999WRNO,2020-01-31-13-15-39,5,34,0.5753609338246325,right,both,ambiguous-stable,55,18,left,right,0.4
CKB1999WRNO,2020-01-31-13-15-39,5,35,0.6868111933953156,left,probe,ambiguous-stable,-1,0,left,left,0.48
CKB1999WRNO,2020-01-31-13-15-39,5,36,0.5871159029245465,left,both,ambiguous-stable,57,0,right,left,0.397
CKB1999WRNO,2020-01-31-13-15-39,5,37,0.5110543001226681,left,probe,biased-switch,-1,0,left,left,0.472
CKB1999WRNO,2020-01-31-13-15-39,5,38,0.55446216890474,left,both,biased-switch,63,0,left,left,0.303
CKB1999WRNO,2020-01-31-13-15-39,5,39,0.6102860596425057,left,probe,ambiguous-switch,-1,12,left,left,0.41
CKB1999WRNO,2020-01-31-13-15-39,5,40,0.6134356043987524,left,both,ambiguous-switch,60,12,left,left,0.441
CKB1999WRNO,2020-01-31-13-15-39,5,41,0.563106104603694,right,probe,biased-switch,-1,18,right,right,0.953
CKB1999WRNO,2020-01-31-13-15-39,5,42,0.5567723589132618,right,both,biased-switch,57,18,right,right,0.538
CKB1999WRNO,2020-01-31-13-15-39,5,43,0.636063359397923,left,probe,ambiguous-stable,-1,-3,left,left,0.585
CKB1999WRNO,2020-01-31-13-15-39,5,44,0.5027555838847589,left,both,ambiguous-stable,57,-3,right,left,0.793
CKB1999WRNO,2020-01-31-13-15-39,5,45,0.5094511664096208,right,probe,ambiguous-stable,-1,-12,right,right,0.747
CKB1999WRNO,2020-01-31-13-15-39,5,46,0.6016691347117947,right,both,ambiguous-stable,60,-12,left,right,0.536
CKB1999WRNO,2020-01-31-13-15-39,5,47,0.5206301425578523,right,probe,ambiguous-switch,-1,6,right,right,0.471
CKB1999WRNO,2020-01-31-13-15-39,5,48,0.567811253098026,right,both,ambiguous-switch,65,6,right,right,0.505
CKB1999WRNO,2020-01-31-13-15-39,5,49,0.5230025420738083,right,probe,biased-switch,-1,3,right,right,0.613
CKB1999WRNO,2020-01-31-13-15-39,5,50,0.5329395102313518,right,both,biased-switch,65,3,right,right,0.505
CKB1999WRNO,2020-01-31-13-15-39,5,51,0.6542710741093019,right,probe,biased-switch,-1,-18,right,right,0.824
CKB1999WRNO,2020-01-31-13-15-39,5,52,0.6118653408647887,right,both,biased-switch,65,-18,right,right,0.605
CKB1999WRNO,2020-01-31-13-15-39,5,53,0.5891447300581166,right,probe,ambiguous-stable,-1,24,right,right,0.669
CKB1999WRNO,2020-01-31-13-15-39,5,54,0.5785754491916684,right,both,ambiguous-stable,60,24,left,right,0.464
CKB1999WRNO,2020-01-31-13-15-39,5,55,0.5160941324263018,left,probe,biased-switch,-1,24,left,left,0.459
CKB1999WRNO,2020-01-31-13-15-39,5,56,0.6143577551465347,left,both,biased-switch,59,24,left,left,0.553
CKB1999WRNO,2020-01-31-13-15-39,5,57,0.6199920466430774,left,probe,ambiguous-switch,-1,-18,left,left,0.723
CKB1999WRNO,2020-01-31-13-15-39,5,58,0.6689941521139184,left,both,ambiguous-switch,55,-18,left,left,0.71
CKB1999WRNO,2020-01-31-13-15-39,5,59,0.6180921757159843,right,probe,biased-switch,-1,-6,right,right,0.699
CKB1999WRNO,2020-01-31-13-15-39,5,60,0.629830964640194,right,both,biased-switch,65,-6,right,right,0.712
CKB1999WRNO,2020-01-31-13-15-39,6,1,0.5753845110870479,left,probe,ambiguous-switch,-1,-6,left,left,0.249
CKB1999WRNO,2020-01-31-13-15-39,6,2,0.6622086589948841,left,both,ambiguous-switch,56,-6,left,left,0.328
CKB1999WRNO,2020-01-31-13-15-39,6,3,0.579983913973055,right,probe,biased-switch,-1,6,right,right,0.479
CKB1999WRNO,2020-01-31-13-15-39,6,4,0.6629711636290757,right,both,biased-switch,63,6,right,right,0.452
CKB1999WRNO,2020-01-31-13-15-39,6,5,0.5073667008677398,left,probe,ambiguous-stable,-1,-18,left,left,0.406
CKB1999WRNO,2020-01-31-13-15-39,6,6,0.5587963815379084,left,both,ambiguous-stable,61,-18,right,left,0.385
CKB1999WRNO,2020-01-31-13-15-39,6,7,0.5834361817482179,right,probe,ambiguous-stable,-1,-12,right,right,1.216
CKB1999WRNO,2020-01-31-13-15-39,6,8,0.5101007787095413,right,both,ambiguous-stable,56,-12,left,right,0.506
CKB1999WRNO,2020-01-31-13-15-39,6,9,0.5230784376650648,right,probe,ambiguous-switch,-1,3,right,right,0.612
CKB1999WRNO,2020-01-31-13-15-39,6,10,0.6204599688956818,right,both,ambiguous-switch,61,3,right,right,0.514
CKB1999WRNO,2020-01-31-13-15-39,6,11,0.6626891084357411,left,probe,biased-switch,-1,18,left,left,0.702
CKB1999WRNO,2020-01-31-13-15-39,6,12,0.5673914017713519,left,both,biased-switch,55,18,left,left,0.404
CKB1999WRNO,2020-01-31-13-15-39,6,13,0.5930450095709637,left,probe,ambiguous-stable,-1,18,left,left,0.394
CKB1999WRNO,2020-01-31-13-15-39,6,14,0.5235067216883601,left,both,ambiguous-stable,63,18,right,left,0.312
CKB1999WRNO,2020-01-31-13-15-39,6,15,0.6127193633759412,left,probe,ambiguous-stable,-1,12,left,left,0.476
CKB1999WRNO,2020-01-31-13-15-39,6,16,0.6638384676607827,left,both,ambiguous-stable,54,12,right,left,0.53
CKB1999WRNO,2020-01-31-13-15-39,6,17,0.6312847809332146,left,probe,biased-switch,-1,0,left,left,0.542
CKB1999WRNO,2020-01-31-13-15-39,6,18,0.6892395590231093,left,both,biased-switch,58,0,left,left,0.473
CKB1999WRNO,2020-01-31-13-15-39,6,19,0.6839380477636329,left,probe,ambiguous-switch,-1,-18,left,left,0.536
CKB1999WRNO,2020-01-31-13-15-39,6,20,0.5906659229619264,left,both,ambiguous-switch,57,-18,left,left,0.489
CKB1999WRNO,2020-01-31-13-15-39,6,21,0.5473661318240186,left,probe,biased-switch,-1,24,left,left,0.47
CKB1999WRNO,2020-01-31-13-15-39,6,22,0.6664901963638347,left,both,biased-switch,65,24,left,left,0.664
CKB1999WRNO,2020-01-31-13-15-39,6,23,0.6269561789311318,right,probe,ambiguous-stable,-1,24,right,right,0.626
CKB1999WRNO,2020-01-31-13-15-39,6,24,0.5743832640578201,right,both,ambiguous-stable,56,24,left,right,0.464
CKB1999WRNO,2020-01-31-13-15-39,6,25,0.590012812603452,left,probe,ambiguous-switch,-1,-12,left,left,0.474
CKB1999WRNO,2020-01-31-13-15-39,6,26,0.6590917155063253,left,both,ambiguous-switch,55,-12,left,left,0.357
CKB1999WRNO,2020-01-31-13-15-39,6,27,0.6349052633202179,left,probe,biased-switch,-1,-18,left,left,0.475
CKB1999WRNO,2020-01-31-13-15-39,6,28,0.5101442849803579,left,both,biased-switch,60,-18,left,left,0.436
CKB1999WRNO,2020-01-31-13-15-39,6,29,0.6293193738088152,right,probe,biased-switch,-1,-3,right,right,0.47
CKB1999WRNO,2020-01-31-13-15-39,6,30,0.6686937737143444,right,both,biased-switch,56,-3,right,right,0.478
CKB1999WRNO,2020-01-31-13-15-39,6,31,0.601657818873665,left,probe,biased-switch,-1,-6,left,left,0.42
CKB1999WRNO,2020-01-31-13-15-39,6,32,0.5741437967567724,left,both,biased-switch,63,-6,left,left,0.438
CKB1999WRNO,2020-01-31-13-15-39,6,33,0.6851611608550806,right,probe,biased-switch,-1,12,right,right,0.54
CKB1999WRNO,2020-01-31-13-15-39,6,34,0.5839549692607293,right,both,biased-switch,55,12,right,right,0.432
CKB1999WRNO,2020-01-31-13-15-39,6,35,0.5577120497119153,right,probe,ambiguous-switch,-1,-3,right,right,0.58
CKB1999WRNO,2020-01-31-13-15-39,6,36,0.6417968118072847,right,both,ambiguous-switch,55,-3,right,right,0.291
CKB1999WRNO,2020-01-31-13-15-39,6,37,0.5258325324802677,right,probe,ambiguous-stable,-1,-3,right,right,0.471
CKB1999WRNO,2020-01-31-13-15-39,6,38,0.5432718303293059,right,both,ambiguous-stable,60,-3,left,right,0.441
CKB1999WRNO,2020-01-31-13-15-39,6,39,0.6510184858523825,right,probe,ambiguous-switch,-1,12,right,right,0.455
CKB1999WRNO,2020-01-31-13-15-39,6,40,0.6384778225775756,right,both,ambiguous-switch,62,12,right,right,0.552
CKB1999WRNO,2020-01-31-13-15-39,6,41,0.6756533115423503,right,probe,ambiguous-switch,-1,18,right,right,0.653
CKB1999WRNO,2020-01-31-13-15-39,6,42,0.6372270772434427,right,both,ambiguous-switch,54,18,right,right,0.527
CKB1999WRNO,2020-01-31-13-15-39,6,43,0.6434701848059484,left,probe,ambiguous-switch,-1,24,left,left,0.532
CKB1999WRNO,2020-01-31-13-15-39,6,44,0.6709886451995766,left,both,ambiguous-switch,57,24,left,left,0.522
CKB1999WRNO,2020-01-31-13-15-39,6,45,0.686247192149699,right,probe,biased-switch,-1,3,right,right,0.534
CKB1999WRNO,2020-01-31-13-15-39,6,46,0.5755923142654131,right,both,biased-switch,56,3,right,right,0.504
CKB1999WRNO,2020-01-31-13-15-39,6,47,0.6658412121549382,right,probe,ambiguous-stable,-1,-6,right,right,0.597
CKB1999WRNO,2020-01-31-13-15-39,6,48,0.6753008891884295,right,both,ambiguous-stable,61,-6,left,right,0.648
CKB1999WRNO,2020-01-31-13-15-39,6,49,0.5048978672596316,right,probe,ambiguous-stable,-1,0,right,right,0.396
CKB1999WRNO,2020-01-31-13-15-39,6,50,0.540898698793339,right,both,ambiguous-stable,64,0,left,right,2.452
CKB1999WRNO,2020-01-31-13-15-39,6,51,0.5751752648774228,left,probe,ambiguous-stable,-1,6,left,left,0.412
CKB1999WRNO,2020-01-31-13-15-39,6,52,0.5871912992089314,left,both,ambiguous-stable,62,6,right,left,0.352
CKB1999WRNO,2020-01-31-13-15-39,6,53,0.6168205929967101,right,probe,biased-switch,-1,-12,right,right,0.574
CKB1999WRNO,2020-01-31-13-15-39,6,54,0.6974963138814448,right,both,biased-switch,55,-12,right,right,0.543
CKB1999WRNO,2020-01-31-13-15-39,6,55,0.5167556473522953,left,probe,ambiguous-switch,-1,6,left,left,0.486
CKB1999WRNO,2020-01-31-13-15-39,6,56,0.5689119169224145,left,both,ambiguous-switch,57,6,left,left,0.277
CKB1999WRNO,2020-01-31-13-15-39,6,57,0.6838564210765772,right,probe,ambiguous-switch,-1,0,right,right,0.348
CKB1999WRNO,2020-01-31-13-15-39,6,58,0.6371807589943427,right,both,ambiguous-switch,64,0,right,right,0.407
CKB1999WRNO,2020-01-31-13-15-39,6,59,0.6455884022813533,right,probe,ambiguous-stable,-1,3,right,right,0.377
CKB1999WRNO,2020-01-31-13-15-39,6,60,0.5590328378633733,right,both,ambiguous-stable,54,3,left,right,0.255
CKB1999WRNO,2020-01-31-13-15-39,7,1,0.6265598098670839,left,probe,biased-switch,-1,12,left,left,0.55
CKB1999WRNO,2020-01-31-13-15-39,7,2,0.5016554619935804,left,both,biased-switch,57,12,left,left,0.266
CKB1999WRNO,2020-01-31-13-15-39,7,3,0.6777548658624346,left,probe,biased-switch,-1,18,left,left,0.319
CKB1999WRNO,2020-01-31-13-15-39,7,4,0.5541519330045398,left,both,biased-switch,60,18,left,left,0.356
CKB1999WRNO,2020-01-31-13-15-39,7,5,0.5225068325698904,right,probe,biased-switch,-1,24,right,right,0.483
CKB1999WRNO,2020-01-31-13-15-39,7,6,0.5723001710605291,right,both,biased-switch,62,24,right,right,0.365
CKB1999WRNO,2020-01-31-13-15-39,7,7,0.5480856006439913,right,probe,ambiguous-switch,-1,0,right,right,0.485
CKB1999WRNO,2020-01-31-13-15-39,7,8,0.6916313126615273,right,both,ambiguous-switch,58,0,right,right,0.4
CKB1999WRNO,2020-01-31-13-15-39,7,9,0.5958632063803997,right,probe,ambiguous-switch,-1,12,right,right,0.382
CKB1999WRNO,2020-01-31-13-15-39,7,10,0.6763284022035438,right,both,ambiguous-switch,59,12,right,right,0.346
CKB1999WRNO,2020-01-31-13-15-39,7,11,0.6211177104950985,left,probe,biased-switch,-1,-12,left,left,0.434
CKB1999WRNO,2020-01-31-13-15-39,7,12,0.6431343055909244,left,both,biased-switch,56,-12,left,left,0.281
CKB1999WRNO,2020-01-31-13-15-39,7,13,0.6697539667113281,left,probe,ambiguous-switch,-1,-18,left,left,0.521
CKB1999WRNO,2020-01-31-13-15-39,7,14,0.512889585352125,left,both,ambiguous-switch,56,-18,left,left,0.503
CKB1999WRNO,2020-01-31-13-15-39,7,15,0.653234391444655,left,probe,ambiguous-stable,-1,24,left,left,0.531
CKB1999WRNO,2020-01-31-13-15-39,7,16,0.654344567142101,left,both,ambiguous-stable,60,24,right,left,0.535
CKB1999WRNO,2020-01-31-13-15-39,7,17,0.677867904405914,right,probe,biased-switch,-1,0,right,right,0.825
CKB1999WRNO,2020-01-31-13-15-39,7,18,0.5432830702857909,right,both,biased-switch,57,0,right,right,0.39
CKB1999WRNO,2020-01-31-13-15-39,7,19,0.6557986643274392,left,probe,ambiguous-switch,-1,24,left,left,0.476
CKB1999WRNO,2020-01-31-13-15-39,7,20,0.5982383542663321,left,both,ambiguous-switch,55,24,left,left,0.413
CKB1999WRNO,2020-01-31-13-15-39,7,21,0.5575864716216203,right,probe,ambiguous-stable,-1,-12,right,right,0.585
CKB1999WRNO,2020-01-31-13-15-39,7,22,0.6059142801049308,right,both,ambiguous-stable,55,-12,left,right,0.664
CKB1999WRNO,2020-01-31-13-15-39,7,23,0.6496058630612824,left,probe,ambiguous-switch,-1,-6,left,left,0.444
CKB1999WRNO,2020-01-31-13-15-39,7,24,0.66223451620979,left,both,ambiguous-switch,56,-6,left,left,0.408
CKB1999WRNO,2020-01-31-13-15-39,7,25,0.6900136242090205,right,probe,ambiguous-stable,-1,-18,right,right,0.608
CKB1999WRNO,2020-01-31-13-15-39,7,26,0.5395753118017755,right,both,ambiguous-stable,65,-18,left,right,0.471
CKB1999WRNO,2020-01-31-13-15-39,7,27,0.5752452607272436,right,probe,ambiguous-stable,-1,-3,right,right,2.189
CKB1999WRNO,2020-01-31-13-15-39,7,28,0.6439004638824094,right,both,ambiguous-stable,55,-3,left,right,0.341
CKB1999WRNO,2020-01-31-13-15-39,7,29,0.6253975628442805,left,probe,ambiguous-switch,-1,6,left,left,0.438
CKB1999WRNO,2020-01-31-13-15-39,7,30,0.5075508336547849,left,both,ambiguous-switch,56,6,left,left,0.379
CKB1999WRNO,2020-01-31-13-15-39,7,31,0.5904186634901141,right,probe,biased-switch,-1,-6,right,right,0.483
CKB1999WRNO,2020-01-31-13-15-39,7,32,0.6941083917617709,right,both,biased-switch,60,-6,right,right,0.487
CKB1999WRNO,2020-01-31-13-15-39,7,33,0.5644798785233124,right,probe,ambiguous-switch,-1,-12,right,right,0.646
CKB1999WRNO,2020-01-31-13-15-39,7,34,0.6375976796422553,right,both,ambiguous-switch,57,-12,right,right,0.363
CKB1999WRNO,2020-01-31-13-15-39,7,35,0.5250781561633435,left,probe,biased-switch,-1,-3,left,left,0.482
CKB1999WRNO,2020-01-31-13-15-39,7,36,0.6262844847745223,left,both,biased-switch,65,-3,left,left,0.348
CKB1999WRNO,2020-01-31-13-15-39,7,37,0.6569913642842351,right,probe,ambiguous-stable,-1,6,right,right,0.558
CKB1999WRNO,2020-01-31-13-15-39,7,38,0.5285567200084277,right,both,ambiguous-stable,63,6,left,right,0.433
CKB1999WRNO,2020-01-31-13-15-39,7,39,0.5975851164751615,right,probe,ambiguous-stable,-1,12,right,right,0.515
CKB1999WRNO,2020-01-31-13-15-39,7,40,0.5105849598818297,right,both,ambiguous-stable,59,12,left,right,0.363
CKB1999WRNO,2020-01-31-13-15-39,7,41,0.5400696258625879,left,probe,ambiguous-stable,-1,3,left,left,0.569
CKB1999WRNO,2020-01-31-13-15-39,7,42,0.5656612213707107,left,both,ambiguous-stable,56,3,right,left,0.322
CKB1999WRNO,2020-01-31-13-15-39,7,43,0.5179137849938361,right,probe,ambiguous-switch,-1,-3,right,right,0.478
CKB1999WRNO,2020-01-31-13-15-39,7,44,0.6012358822756748,right,both,ambiguous-switch,62,-3,right,right,0.399
CKB1999WRNO,2020-01-31-13-15-39,7,45,0.555342998810453,left,probe,biased-switch,-1,6,left,left,0.544
CKB1999WRNO,2020-01-31-13-15-39,7,46,0.545742007291595,left,both,biased-switch,66,6,left,left,0.314
CKB1999WRNO,2020-01-31-13-15-39,7,47,0.5544534286650332,left,probe,biased-switch,-1,3,left,left,0.524
CKB1999WRNO,2020-01-31-13-15-39,7,48,0.675383349329973,left,both,biased-switch,56,3,left,left,0.257
CKB1999WRNO,2020-01-31-13-15-39,7,49,0.5152790728236007,left,probe,biased-switch,-1,-18,left,left,0.417
CKB1999WRNO,2020-01-31-13-15-39,7,50,0.5062098004216056,left,both,biased-switch,61,-18,left,left,0.305
CKB1999WRNO,2020-01-31-13-15-39,7,51,0.5910873192369396,right,probe,ambiguous-switch,-1,18,right,right,0.424
CKB1999WRNO,2020-01-31-13-15-39,7,52,0.6765754437828543,right,both,ambiguous-switch,61,18,right,right,0.409
CKB1999WRNO,2020-01-31-13-15-39,7,53,0.5361388792920875,left,probe,ambiguous-switch,-1,3,left,left,0.36
CKB1999WRNO,2020-01-31-13-15-39,7,54,0.5895981338375862,left,both,ambiguous-switch,65,3,left,left,0.316
CKB1999WRNO,2020-01-31-13-15-39,7,55,0.6465060280101348,left,probe,ambiguous-stable,-1,18,left,left,0.695
CKB1999WRNO,2020-01-31-13-15-39,7,56,0.6509067944993581,left,both,ambiguous-stable,59,18,right,left,0.337
CKB1999WRNO,2020-01-31-13-15-39,7,57,0.6733481107056797,left,probe,ambiguous-stable,-1,-6,left,left,0.451
CKB1999WRNO,2020-01-31-13-15-39,7,58,0.5355256403987888,left,both,ambiguous-stable,64,-6,right,left,0.377
CKB1999WRNO,2020-01-31-13-15-39,7,59,0.5267079839440907,right,probe,ambiguous-stable,-1,0,right,right,0.396
CKB1999WRNO,2020-01-31-13-15-39,7,60,0.529265547144798,right,both,ambiguous-stable,55,0,left,right,0.311
CKB1999WRNO,2020-01-31-13-15-39,8,1,0.5646829746301384,right,probe,ambiguous-switch,-1,24,right,right,0.381
CKB1999WRNO,2020-01-31-13-15-39,8,2,0.6475483318851519,right,both,ambiguous-switch,60,24,right,right,0.335
CKB1999WRNO,2020-01-31-13-15-39,8,3,0.682564784495973,right,probe,biased-switch,-1,24,right,right,0.363
CKB1999WRNO,2020-01-31-13-15-39,8,4,0.5879182773657096,right,both,biased-switch,58,24,right,right,0.374
CKB1999WRNO,2020-01-31-13-15-39,8,5,0.5481805755965451,left,probe,ambiguous-stable,-1,0,left,left,0.432
CKB1999WRNO,2020-01-31-13-15-39,8,6,0.6285893810024803,left,both,ambiguous-stable,59,0,right,left,0.312
CKB1999WRNO,2020-01-31-13-15-39,8,7,0.5452086828070667,left,probe,biased-switch,-1,-6,left,left,0.366
CKB1999WRNO,2020-01-31-13-15-39,8,8,0.6367184025866157,left,both,biased-switch,60,-6,left,left,0.346
CKB1999WRNO,2020-01-31-13-15-39,8,9,0.5643277297827514,left,probe,ambiguous-switch,-1,-3,left,left,0.353
CKB1999WRNO,2020-01-31-13-15-39,8,10,0.5746049078338974,left,both,ambiguous-switch,65,-3,left,left,0.339
CKB1999WRNO,2020-01-31-13-15-39,8,11,0.6741801384904297,left,probe,biased-switch,-1,12,left,left,0.485
CKB1999WRNO,2020-01-31-13-15-39,8,12,0.6705944039665681,left,both,biased-switch,63,12,left,left,0.367
CKB1999WRNO,2020-01-31-13-15-39,8,13,0.5365944749502275,left,probe,ambiguous-switch,-1,0,left,left,0.51
CKB1999WRNO,2020-01-31-13-15-39,8,14,0.6082605288190291,left,both,ambiguous-switch,62,0,left,left,0.567
CKB1999WRNO,2020-01-31-13-15-39,8,15,0.5435911770429869,right,probe,ambiguous-switch,-1,18,right,right,0.556
CKB1999WRNO,2020-01-31-13-15-39,8,16,0.5866225810736176,right,both,ambiguous-switch,55,18,right,right,0.725
CKB1999WRNO,2020-01-31-13-15-39,8,17,0.5170913102432945,right,probe,ambiguous-switch,-1,3,right,right,0.662
CKB1999WRNO,2020-01-31-13-15-39,8,18,0.6324565356627931,right,both,ambiguous-switch,54,3,right,right,0.484
CKB1999WRNO,2020-01-31-13-15-39,8,19,0.6313183039811704,left,probe,ambiguous-stable,-1,24,left,left,0.383
CKB1999WRNO,2020-01-31-13-15-39,8,20,0.5782261110259642,left,both,ambiguous-stable,58,24,right,left,0.332
CKB1999WRNO,2020-01-31-13-15-39,8,21,0.67288033090057,left,probe,ambiguous-stable,-1,-18,left,left,0.356
CKB1999WRNO,2020-01-31-13-15-39,8,22,0.5725593309131334,left,both,ambiguous-stable,58,-18,right,left,0.551
CKB1999WRNO,2020-01-31-13-15-39,8,23,0.639991007022457,right,probe,ambiguous-stable,-1,-12,right,right,0.516
CKB1999WRNO,2020-01-31-13-15-39,8,24,0.5881979801053854,right,both,ambiguous-stable,61,-12,left,right,0.413
CKB1999WRNO,2020-01-31-13-15-39,8,25,0.6574522157953095,left,probe,ambiguous-switch,-1,-6,left,left,0.379
CKB1999WRNO,2020-01-31-13-15-39,8,26,0.5835197873151444,left,both,ambiguous-switch,57,-6,left,left,0.327
CKB1999WRNO,2020-01-31-13-15-39,8,27,0.5959084840457822,right,probe,biased-switch,-1,-3,right,right,0.497
CKB1999WRNO,2020-01-31-13-15-39,8,28,0.6460067873215988,right,both,biased-switch,58,-3,right,right,0.341
CKB1999WRNO,2020-01-31-13-15-39,8,29,0.5550138349997473,right,probe,biased-switch,-1,-12,right,right,0.561
CKB1999WRNO,2020-01-31-13-15-39,8,30,0.6058720077103156,right,both,biased-switch,59,-12,right,right,0.321
CKB1999WRNO,2020-01-31-13-15-39,8,31,0.5076287545234844,left,probe,ambiguous-stable,-1,3,left,left,0.408
CKB1999WRNO,2020-01-31-13-15-39,8,32,0.6372695973429303,left,both,ambiguous-stable,65,3,right,left,0.338
CKB1999WRNO,2020-01-31-13-15-39,8,33,0.509853593952811,right,probe,ambiguous-switch,-1,-18,right,right,0.435
CKB1999WRNO,2020-01-31-13-15-39,8,34,0.6633114892832842,right,both,ambiguous-switch,59,-18,right,right,0.299
CKB1999WRNO,2020-01-31-13-15-39,8,35,0.613934496627698,right,probe,biased-switch,-1,-18,right,right,0.54
CKB1999WRNO,2020-01-31-13-15-39,8,36,0.5646923499834099,right,both,biased-switch,66,-18,right,right,0.359
CKB1999WRNO,2020-01-31-13-15-39,8,37,0.6193384809706131,left,probe,ambiguous-stable,-1,-6,left,left,0.515
CKB1999WRNO,2020-01-31-13-15-39,8,38,0.688692645127158,left,both,ambiguous-stable,65,-6,right,left,0.414
CKB1999WRNO,2020-01-31-13-15-39,8,39,0.6594055811819268,left,probe,ambiguous-stable,-1,18,left,left,0.352
CKB1999WRNO,2020-01-31-13-15-39,8,40,0.6181080684542962,left,both,ambiguous-stable,54,18,right,left,0.323
CKB1999WRNO,2020-01-31-13-15-39,8,41,0.6268027332885301,left,probe,ambiguous-switch,-1,12,left,left,0.436
CKB1999WRNO,2020-01-31-13-15-39,8,42,0.6636735878678105,left,both,ambiguous-switch,61,12,left,left,0.327
CKB1999WRNO,2020-01-31-13-15-39,8,43,0.5356752487921519,left,probe,biased-switch,-1,3,left,left,0.461
CKB1999WRNO,2020-01-31-13-15-39,8,44,0.5244826096943911,left,both,biased-switch,61,3,left,left,0.404
CKB1999WRNO,2020-01-31-13-15-39,8,45,0.5811770668032129,right,probe,ambiguous-stable,-1,12,right,right,0.478
CKB1999WRNO,2020-01-31-13-15-39,8,46,0.5862908691058223,right,both,ambiguous-stable,64,12,left,right,0.454
CKB1999WRNO,2020-01-31-13-15-39,8,47,0.6251325011026378,left,probe,ambiguous-switch,-1,-12,left,left,0.241
CKB1999WRNO,2020-01-31-13-15-39,8,48,0.5012593085385292,left,both,ambiguous-switch,64,-12,left,left,0.27
CKB1999WRNO,2020-01-31-13-15-39,8,49,0.5385885254124391,right,probe,biased-switch,-1,18,right,right,0.587
CKB1999WRNO,2020-01-31-13-15-39,8,50,0.5842036017051451,right,both,biased-switch,65,18,right,right,0.515
CKB1999WRNO,2020-01-31-13-15-39,8,51,0.6081135578849449,right,probe,ambiguous-stable,-1,6,right,right,0.537
CKB1999WRNO,2020-01-31-13-15-39,8,52,0.6766014443138746,right,both,ambiguous-stable,64,6,left,right,0.442
CKB1999WRNO,2020-01-31-13-15-39,8,53,0.6740532837509611,left,probe,biased-switch,-1,0,right,right,0.59
CKB1999WRNO,2020-01-31-13-15-39,8,54,0.5542222408669576,left,both,biased-switch,58,0,right,left,0.374
CKB1999WRNO,2020-01-31-13-15-39,8,55,0.6267471403863704,right,probe,ambiguous-stable,-1,-3,right,right,0.412
CKB1999WRNO,2020-01-31-13-15-39,8,56,0.5287394792772763,right,both,ambiguous-stable,60,-3,left,right,0.333
CKB1999WRNO,2020-01-31-13-15-39,8,57,0.6112662180935656,right,probe,ambiguous-switch,-1,6,right,right,0.738
CKB1999WRNO,2020-01-31-13-15-39,8,58,0.57759415529416,right,both,ambiguous-switch,60,6,right,right,0.314
CKB1999WRNO,2020-01-31-13-15-39,8,59,0.5633789290222595,left,probe,biased-switch,-1,6,left,left,0.403
CKB1999WRNO,2020-01-31-13-15-39,8,60,0.6039481076110734,left,both,biased-switch,58,6,left,left,0.371
CKB1999WRNO,2020-01-31-13-15-39,9,1,0.6253961731984816,right,probe,ambiguous-stable,-1,24,right,right,1.074
CKB1999WRNO,2020-01-31-13-15-39,9,2,0.6641167657728111,right,both,ambiguous-stable,58,24,left,right,0.456
CKB1999WRNO,2020-01-31-13-15-39,9,3,0.5253271269081036,right,probe,biased-switch,-1,12,right,right,0.536
CKB1999WRNO,2020-01-31-13-15-39,9,4,0.662314622715115,right,both,biased-switch,60,12,right,right,0.36
CKB1999WRNO,2020-01-31-13-15-39,9,5,0.5497147658070473,right,probe,biased-switch,-1,0,right,right,0.534
CKB1999WRNO,2020-01-31-13-15-39,9,6,0.5572804439847311,right,both,biased-switch,56,0,right,right,0.313
CKB1999WRNO,2020-01-31-13-15-39,9,7,0.6814680305125781,right,probe,ambiguous-stable,-1,18,right,right,0.65
CKB1999WRNO,2020-01-31-13-15-39,9,8,0.5879160240181031,right,both,ambiguous-stable,58,18,left,right,0.346
CKB1999WRNO,2020-01-31-13-15-39,9,9,0.5364654046539616,left,probe,ambiguous-switch,-1,3,left,left,0.967
CKB1999WRNO,2020-01-31-13-15-39,9,10,0.6055869011180363,left,both,ambiguous-switch,60,3,left,left,0.333
CKB1999WRNO,2020-01-31-13-15-39,9,11,0.5512643346657656,left,probe,ambiguous-stable,-1,12,left,left,0.425
CKB1999WRNO,2020-01-31-13-15-39,9,12,0.52316497931974,left,both,ambiguous-stable,55,12,right,left,0.462
CKB1999WRNO,2020-01-31-13-15-39,9,13,0.5449703236208208,left,probe,ambiguous-stable,-1,-18,left,left,0.373
CKB1999WRNO,2020-01-31-13-15-39,9,14,0.6520724940626843,left,both,ambiguous-stable,60,-18,right,left,0.477
CKB1999WRNO,2020-01-31-13-15-39,9,15,0.6541600895515041,left,probe,biased-switch,-1,-3,left,left,0.618
CKB1999WRNO,2020-01-31-13-15-39,9,16,0.6386640054906123,left,both,biased-switch,60,-3,left,left,0.305
CKB1999WRNO,2020-01-31-13-15-39,9,17,0.6796644686449934,right,probe,ambiguous-switch,-1,-3,right,right,0.46
CKB1999WRNO,2020-01-31-13-15-39,9,18,0.5539407727045684,right,both,ambiguous-switch,61,-3,right,right,0.346
CKB1999WRNO,2020-01-31-13-15-39,9,19,0.5145540342706161,left,probe,ambiguous-stable,-1,6,left,left,0.361
CKB1999WRNO,2020-01-31-13-15-39,9,20,0.6641906584617288,left,both,ambiguous-stable,57,6,right,left,0.288
CKB1999WRNO,2020-01-31-13-15-39,9,21,0.6685498175889046,right,probe,biased-switch,-1,18,right,right,0.412
CKB1999WRNO,2020-01-31-13-15-39,9,22,0.6679741250261266,right,both,biased-switch,54,18,right,right,0.578
CKB1999WRNO,2020-01-31-13-15-39,9,23,0.679619547806432,right,probe,biased-switch,-1,-12,right,right,0.649
CKB1999WRNO,2020-01-31-13-15-39,9,24,0.5237846543214989,right,both,biased-switch,61,-12,right,right,0.429
CKB1999WRNO,2020-01-31-13-15-39,9,25,0.6549589392380225,right,probe,ambiguous-switch,-1,-6,right,right,0.634
CKB1999WRNO,2020-01-31-13-15-39,9,26,0.6792545572133267,right,both,ambiguous-switch,65,-6,right,right,0.407
CKB1999WRNO,2020-01-31-13-15-39,9,27,0.5437102559196971,left,probe,biased-switch,-1,-18,left,left,0.387
CKB1999WRNO,2020-01-31-13-15-39,9,28,0.5837454480273478,left,both,biased-switch,56,-18,left,left,1.032
CKB1999WRNO,2020-01-31-13-15-39,9,29,0.6314174834831574,right,probe,ambiguous-switch,-1,6,right,right,0.363
CKB1999WRNO,2020-01-31-13-15-39,9,30,0.6488445946589861,right,both,ambiguous-switch,65,6,right,right,3.324
CKB1999WRNO,2020-01-31-13-15-39,9,31,0.5276788879477154,right,probe,ambiguous-stable,-1,0,right,right,0.419
CKB1999WRNO,2020-01-31-13-15-39,9,32,0.5027572546578205,right,both,ambiguous-stable,65,0,left,right,0.449
CKB1999WRNO,2020-01-31-13-15-39,9,33,0.664980589872385,right,probe,biased-switch,-1,6,right,right,0.527
CKB1999WRNO,2020-01-31-13-15-39,9,34,0.6418657163242723,right,both,biased-switch,60,6,right,right,0.536
CKB1999WRNO,2020-01-31-13-15-39,9,35,0.581901469072325,right,probe,biased-switch,-1,3,right,right,0.405
CKB1999WRNO,2020-01-31-13-15-39,9,36,0.5526148657161372,right,both,biased-switch,65,3,right,right,0.395
CKB1999WRNO,2020-01-31-13-15-39,9,37,0.5838977735112023,left,probe,biased-switch,-1,24,left,left,0.346
CKB1999WRNO,2020-01-31-13-15-39,9,38,0.5348183216638296,left,both,biased-switch,62,24,left,left,0.445
CKB1999WRNO,2020-01-31-13-15-39,9,39,0.5514429706412828,right,probe,ambiguous-stable,-1,-3,right,right,0.651
CKB1999WRNO,2020-01-31-13-15-39,9,40,0.6993997969781434,right,both,ambiguous-stable,66,-3,left,right,0.494
CKB1999WRNO,2020-01-31-13-15-39,9,41,0.5814042507070288,right,probe,ambiguous-switch,-1,-18,right,right,0.528
CKB1999WRNO,2020-01-31-13-15-39,9,42,0.5625298257040728,right,both,ambiguous-switch,61,-18,right,right,0.469
CKB1999WRNO,2020-01-31-13-15-39,9,43,0.531006180186138,right,probe,ambiguous-switch,-1,18,right,right,0.52
CKB1999WRNO,2020-01-31-13-15-39,9,44,0.6970399868786931,right,both,ambiguous-switch,61,18,right,right,0.357
CKB1999WRNO,2020-01-31-13-15-39,9,45,0.6718559062309257,left,probe,ambiguous-stable,-1,3,left,left,0.303
CKB1999WRNO,2020-01-31-13-15-39,9,46,0.561229665287203,left,both,ambiguous-stable,63,3,right,left,0.312
CKB1999WRNO,2020-01-31-13-15-39,9,47,0.5476108548174774,left,probe,biased-switch,-1,-6,left,left,0.362
CKB1999WRNO,2020-01-31-13-15-39,9,48,0.5674237262856747,left,both,biased-switch,63,-6,left,left,0.336
CKB1999WRNO,2020-01-31-13-15-39,9,49,0.5913843928271417,right,probe,ambiguous-switch,-1,24,right,right,0.463
CKB1999WRNO,2020-01-31-13-15-39,9,50,0.6940531385358177,right,both,ambiguous-switch,60,24,right,right,0.317
CKB1999WRNO,2020-01-31-13-15-39,9,51,0.5053675070718386,right,probe,ambiguous-stable,-1,-12,right,right,0.429
CKB1999WRNO,2020-01-31-13-15-39,9,52,0.6716140699144996,right,both,ambiguous-stable,64,-12,left,right,0.342
CKB1999WRNO,2020-01-31-13-15-39,9,53,0.6026941316849775,left,probe,ambiguous-switch,-1,-12,left,left,0.379
CKB1999WRNO,2020-01-31-13-15-39,9,54,0.5228594782303443,left,both,ambiguous-switch,61,-12,left,left,0.407
CKB1999WRNO,2020-01-31-13-15-39,9,55,0.5348857848805187,left,probe,ambiguous-switch,-1,0,left,left,0.392
CKB1999WRNO,2020-01-31-13-15-39,9,56,0.5754848044159053,left,both,ambiguous-switch,63,0,left,left,0.373
CKB1999WRNO,2020-01-31-13-15-39,9,57,0.5280171720311192,left,probe,ambiguous-stable,-1,-6,left,left,0.626
CKB1999WRNO,2020-01-31-13-15-39,9,58,0.6721015743847856,left,both,ambiguous-stable,65,-6,right,left,0.354
CKB1999WRNO,2020-01-31-13-15-39,9,59,0.598113066559742,right,probe,ambiguous-switch,-1,12,right,right,0.789
CKB1999WRNO,2020-01-31-13-15-39,9,60,0.5421130591853174,right,both,ambiguous-switch,60,12,right,right,0.707
CKB1999WRNO,2020-01-31-13-15-39,10,1,0.6046211183158012,left,probe,ambiguous-stable,-1,0,left,left,0.601
CKB1999WRNO,2020-01-31-13-15-39,10,2,0.5835818721393288,left,both,ambiguous-stable,62,0,right,left,0.493
CKB1999WRNO,2020-01-31-13-15-39,10,3,0.6634955490698589,left,probe,biased-switch,-1,-18,left,left,0.494
CKB1999WRNO,2020-01-31-13-15-39,10,4,0.6361996372125263,left,both,biased-switch,60,-18,left,left,0.29
CKB1999WRNO,2020-01-31-13-15-39,10,5,0.5541418315475255,right,probe,biased-switch,-1,6,right,right,0.67
CKB1999WRNO,2020-01-31-13-15-39,10,6,0.6246559717919036,right,both,biased-switch,64,6,right,right,0.395
CKB1999WRNO,2020-01-31-13-15-39,10,7,0.613814042008149,right,probe,ambiguous-switch,-1,-18,right,right,0.538
CKB1999WRNO,2020-01-31-13-15-39,10,8,0.6015276018292948,right,both,ambiguous-switch,56,-18,right,right,0.65
CKB1999WRNO,2020-01-31-13-15-39,10,9,0.5848554050360167,left,probe,ambiguous-switch,-1,6,left,left,0.526
CKB1999WRNO,2020-01-31-13-15-39,10,10,0.6246846716646093,left,both,ambiguous-switch,62,6,left,left,0.373
CKB1999WRNO,2020-01-31-13-15-39,10,11,0.5747865678207293,left,probe,biased-switch,-1,0,left,left,0.369
CKB1999WRNO,2020-01-31-13-15-39,10,12,0.5047967120152185,left,both,biased-switch,60,0,left,left,0.327
CKB1999WRNO,2020-01-31-13-15-39,10,13,0.536077481650082,right,probe,biased-switch,-1,-3,right,right,0.502
CKB1999WRNO,2020-01-31-13-15-39,10,14,0.5161435644378894,right,both,biased-switch,56,-3,right,right,0.351
CKB1999WRNO,2020-01-31-13-15-39,10,15,0.6476782969705338,right,probe,ambiguous-stable,-1,18,right,right,0.737
CKB1999WRNO,2020-01-31-13-15-39,10,16,0.5682271994774171,right,both,ambiguous-stable,65,18,left,right,0.434
CKB1999WRNO,2020-01-31-13-15-39,10,17,0.5289128550548635,left,probe,ambiguous-switch,-1,18,left,left,0.613
CKB1999WRNO,2020-01-31-13-15-39,10,18,0.5489685055017259,left,both,ambiguous-switch,63,18,left,left,0.37
CKB1999WRNO,2020-01-31-13-15-39,10,19,0.5889235534703124,left,probe,ambiguous-switch,-1,12,left,left,0.426
CKB1999WRNO,2020-01-31-13-15-39,10,20,0.5484606668397234,left,both,ambiguous-switch,65,12,left,left,0.447
CKB1999WRNO,2020-01-31-13-15-39,10,21,0.655681101057187,left,probe,ambiguous-stable,-1,12,left,left,0.379
CKB1999WRNO,2020-01-31-13-15-39,10,22,0.6124021487309743,left,both,ambiguous-stable,58,12,right,left,0.344
CKB1999WRNO,2020-01-31-13-15-39,10,23,0.6710604269726481,left,probe,ambiguous-switch,-1,3,left,left,0.34
CKB1999WRNO,2020-01-31-13-15-39,10,24,0.5381464920844949,left,both,ambiguous-switch,65,3,left,left,0.309
CKB1999WRNO,2020-01-31-13-15-39,10,25,0.6976290588949787,left,probe,biased-switch,-1,24,left,left,0.491
CKB1999WRNO,2020-01-31-13-15-39,10,26,0.5959802954540963,left,both,biased-switch,55,24,left,left,0.342
CKB1999WRNO,2020-01-31-13-15-39,10,27,0.6169006116147596,left,probe,biased-switch,-1,-6,left,left,0.623
CKB1999WRNO,2020-01-31-13-15-39,10,28,0.6762268531764029,left,both,biased-switch,56,-6,left,left,0.312
CKB1999WRNO,2020-01-31-13-15-39,10,29,0.6377917976360823,left,probe,biased-switch,-1,18,left,left,0.392
CKB1999WRNO,2020-01-31-13-15-39,10,30,0.6640703363479469,left,both,biased-switch,58,18,left,left,0.293
CKB1999WRNO,2020-01-31-13-15-39,10,31,0.6860569447316345,left,probe,ambiguous-stable,-1,6,left,left,0.485
CKB1999WRNO,2020-01-31-13-15-39,10,32,0.687292299615977,left,both,ambiguous-stable,65,6,right,left,0.33
CKB1999WRNO,2020-01-31-13-15-39,10,33,0.5206536575754855,right,probe,biased-switch,-1,-12,right,right,0.552
CKB1999WRNO,2020-01-31-13-15-39,10,34,0.5426609466179387,right,both,biased-switch,60,-12,right,right,0.317
CKB1999WRNO,2020-01-31-13-15-39,10,35,0.6208515915186033,left,probe,ambiguous-switch,-1,0,left,left,0.378
CKB1999WRNO,2020-01-31-13-15-39,10,36,0.6536747636260097,left,both,ambiguous-switch,63,0,left,left,0.27
CKB1999WRNO,2020-01-31-13-15-39,10,37,0.5865842518109969,left,probe,biased-switch,-1,3,left,left,0.295
CKB1999WRNO,2020-01-31-13-15-39,10,38,0.5264988274413755,left,both,biased-switch,56,3,left,left,0.377
CKB1999WRNO,2020-01-31-13-15-39,10,39,0.6286527106945625,right,probe,ambiguous-stable,-1,-12,right,right,0.789
CKB1999WRNO,2020-01-31-13-15-39,10,40,0.6394285964828567,right,both,ambiguous-stable,54,-12,left,right,0.395
CKB1999WRNO,2020-01-31-13-15-39,10,41,0.5868808843475776,left,probe,ambiguous-switch,-1,-6,left,left,0.493
CKB1999WRNO,2020-01-31-13-15-39,10,42,0.5099916577292652,left,both,ambiguous-switch,58,-6,left,left,0.445
CKB1999WRNO,2020-01-31-13-15-39,10,43,0.5351006804499313,right,probe,ambiguous-switch,-1,24,right,right,0.536
CKB1999WRNO,2020-01-31-13-15-39,10,44,0.5065630556125418,right,both,ambiguous-switch,65,24,right,right,0.846
CKB1999WRNO,2020-01-31-13-15-39,10,45,0.6834762471082116,left,probe,ambiguous-stable,-1,-3,left,left,0.399
CKB1999WRNO,2020-01-31-13-15-39,10,46,0.5760588278388875,left,both,ambiguous-stable,56,-3,right,left,0.31
CKB1999WRNO,2020-01-31-13-15-39,10,47,0.5277227396581889,right,probe,ambiguous-switch,-1,-3,right,right,0.591
CKB1999WRNO,2020-01-31-13-15-39,10,48,0.6970757789131938,right,both,ambiguous-switch,62,-3,right,right,0.36
CKB1999WRNO,2020-01-31-13-15-39,10,49,0.607921011060611,right,probe,ambiguous-stable,-1,24,right,right,0.493
CKB1999WRNO,2020-01-31-13-15-39,10,50,0.6089248821394836,right,both,ambiguous-stable,56,24,left,right,0.453
CKB1999WRNO,2020-01-31-13-15-39,10,51,0.5623163914441633,left,probe,biased-switch,-1,12,left,left,0.71
CKB1999WRNO,2020-01-31-13-15-39,10,52,0.5122443347343382,left,both,biased-switch,64,12,left,left,0.325
CKB1999WRNO,2020-01-31-13-15-39,10,53,0.5073402858718855,left,probe,ambiguous-stable,-1,3,left,left,1.051
CKB1999WRNO,2020-01-31-13-15-39,10,54,0.6163656554332166,left,both,ambiguous-stable,57,3,right,left,0.429
CKB1999WRNO,2020-01-31-13-15-39,10,55,0.630627817423113,right,probe,ambiguous-stable,-1,-18,right,right,0.508
CKB1999WRNO,2020-01-31-13-15-39,10,56,0.5348372753580115,right,both,ambiguous-stable,63,-18,left,right,0.597
CKB1999WRNO,2020-01-31-13-15-39,10,57,0.5219605765138092,right,probe,ambiguous-stable,-1,-6,right,right,0.573
CKB1999WRNO,2020-01-31-13-15-39,10,58,0.5190599394109576,right,both,ambiguous-stable,63,-6,left,right,0.295
CKB1999WRNO,2020-01-31-13-15-39,10,59,0.5550473898282271,left,probe,ambiguous-switch,-1,-12,left,left,0.355
CKB1999WRNO,2020-01-31-13-15-39,10,60,0.6634312991699463,left,both,ambiguous-switch,64,-12,left,left,0.636
