Participant,Session,Block,Trial,OnsetDelay,ProbeLocation,WhatIsReported,Condition,TriggerTime,ProbeSOA,PrimeDirection,Response,RT
HKS1998WRNO,2019-09-19-10-38-28,1,1,0.5497435200559754,left,probe,biased-switch,-1,-5,right,right,0.943
HKS1998WRNO,2019-09-19-10-38-28,1,2,0.6058441286876143,left,both,biased-switch,96,-5,right,left,0.194
HKS1998WRNO,2019-09-19-10-38-28,1,3,0.5602904390435023,right,probe,biased-switch,-1,20,left,left,0.293
HKS1998WRNO,2019-09-19-10-38-28,1,4,0.5334682276643231,right,both,biased-switch,99,20,left,right,0.335
HKS1998WRNO,2019-09-19-10-38-28,1,5,0.5480548935407938,left,probe,ambiguous-stable,-1,5,left,left,0.561
HKS1998WRNO,2019-09-19-10-38-28,1,6,0.6164014723251391,left,both,ambiguous-stable,95,5,right,left,0.245
HKS1998WRNO,2019-09-19-10-38-28,1,7,0.5091923188820573,right,probe,biased-switch,-1,40,right,right,0.434
HKS1998WRNO,2019-09-19-10-38-28,1,8,0.5910807152018756,right,both,biased-switch,109,40,right,left,0.222
HKS1998WRNO,2019-09-19-10-38-28,1,9,0.5084755229391831,left,probe,biased-switch,-1,10,left,left,0.638
HKS1998WRNO,2019-09-19-10-38-28,1,10,0.5721359325339128,left,both,biased-switch,99,10,left,right,0.175
HKS1998WRNO,2019-09-19-10-38-28,1,11,0.5986906208089604,left,probe,ambiguous-switch,-1,5,left,left,0.226
HKS1998WRNO,2019-09-19-10-38-28,1,12,0.6194933099712971,left,both,ambiguous-switch,110,5,left,right,0.245
HKS1998WRNO,2019-09-19-10-38-28,1,13,0.6151985509723423,left,probe,ambiguous-switch,-1,-20,left,left,0.217
HKS1998WRNO,2019-09-19-10-38-28,1,14,0.5302402024033982,left,both,ambiguous-switch,104,-20,left,left,0.657
HKS1998WRNO,2019-09-19-10-38-28,1,15,0.5418930336879734,left,probe,biased-switch,-1,30,left,left,0.347
HKS1998WRNO,2019-09-19-10-38-28,1,16,0.6449481660488483,left,both,biased-switch,108,30,left,right,0.048
HKS1998WRNO,2019-09-19-10-38-28,1,17,0.6557613474880987,left,probe,ambiguous-switch,-1,-5,left,left,0.2
HKS1998WRNO,2019-09-19-10-38-28,1,18,0.6395046518003433,left,both,ambiguous-switch,102,-5,left,right,0.247
HKS1998WRNO,2019-09-19-10-38-28,1,19,0.6090696544428593,left,probe,biased-switch,-1,-20,left,left,0.264
HKS1998WRNO,2019-09-19-10-38-28,1,20,0.6558811701662709,left,both,biased-switch,98,-20,left,left,0.345
HKS1998WRNO,2019-09-19-10-38-28,1,21,0.5353896954633199,right,probe,biased-switch,-1,-10,left,left,2.499
HKS1998WRNO,2019-09-19-10-38-28,1,22,0.6354277379856296,right,both,biased-switch,105,-10,left,right,0.239
HKS1998WRNO,2019-09-19-10-38-28,1,23,0.5553411892768858,right,probe,biased-switch,-1,0,left,left,0.239
HKS1998WRNO,2019-09-19-10-38-28,1,24,0.6982089012863654,right,both,biased-switch,109,0,left,right,0.223
HKS1998WRNO,2019-09-19-10-38-28,1,25,0.553756957478492,left,probe,ambiguous-stable,-1,-10,left,left,0.302
HKS1998WRNO,2019-09-19-10-38-28,1,26,0.582298982120018,left,both,ambiguous-stable,93,-10,right,left,0.207
HKS1998WRNO,2019-09-19-10-38-28,1,27,0.5824740191374337,left,probe,ambiguous-switch,-1,20,left,left,0.41
HKS1998WRNO,2019-09-19-10-38-28,1,28,0.6116068353550418,left,both,ambiguous-switch,110,20,left,right,0.202
HKS1998WRNO,2019-09-19-10-38-28,1,29,0.6224865528137327,right,probe,ambiguous-stable,-1,20,left,left,0.334
HKS1998WRNO,2019-09-19-10-38-28,1,30,0.6940993771092787,right,both,ambiguous-stable,91,20,right,left,0.24
HKS1998WRNO,2019-09-19-10-38-28,1,31,0.6585248905718876,right,probe,ambiguous-switch,-1,-10,left,left,0.429
HKS1998WRNO,2019-09-19-10-38-28,1,32,0.58460588986182,right,both,ambiguous-switch,102,-10,left,right,0.22
HKS1998WRNO,2019-09-19-10-38-28,1,33,0.6734973283852657,left,probe,ambiguous-switch,-1,40,left,left,0.222
HKS1998WRNO,2019-09-19-10-38-28,1,34,0.6916071881835649,left,both,ambiguous-switch,98,40,left,left,0.189
HKS1998WRNO,2019-09-19-10-38-28,1,35,0.627880157971365,left,probe,ambiguous-switch,-1,30,left,left,0.265
HKS1998WRNO,2019-09-19-10-38-28,1,36,0.6830630326027142,left,both,ambiguous-switch,110,30,left,right,0.173
HKS1998WRNO,2019-09-19-10-38-28,1,37,0.5894559377806585,right,probe,ambiguous-switch,-1,0,left,left,0.264
HKS1998WRNO,2019-09-19-10-38-28,1,38,0.529560266422555,right,both,ambiguous-switch,95,0,left,right,0.276
HKS1998WRNO,2019-09-19-10-38-28,1,39,0.6596327094647315,left,probe,ambiguous-stable,-1,0,left,left,0.219
HKS1998WRNO,2019-09-19-10-38-28,1,40,0.6451949403667281,left,both,ambiguous-stable,93,0,right,left,0.971
HKS1998WRNO,2019-09-19-10-38-28,1,41,0.6604414797110474,left,probe,ambiguous-stable,-1,-5,left,left,0.358
HKS1998WRNO,2019-09-19-10-38-28,1,42,0.5035208374773066,left,both,ambiguous-stable,91,-5,right,left,0.196
HKS1998WRNO,2019-09-19-10-38-28,1,43,0.6790598065202215,right,probe,ambiguous-stable,-1,30,right,right,0.184
HKS1998WRNO,2019-09-19-10-38-28,1,44,0.6832649738884575,right,both,ambiguous-stable,91,30,left,left,0.11
HKS1998WRNO,2019-09-19-10-38-28,1,45,0.5075366174660796,right,probe,ambiguous-switch,-1,10,left,left,0.373
HKS1998WRNO,2019-09-19-10-38-28,1,46,0.6231444171520183,right,both,ambiguous-switch,102,10,left,right,27.056
HKS1998WRNO,2019-09-19-10-38-28,1,47,0.5431891744880036,right,probe,biased-switch,-1,5,right,right,1.017
HKS1998WRNO,2019-09-19-10-38-28,1,48,0.6908978391414088,right,both,biased-switch,94,5,right,left,0.246
HKS1998WRNO,2019-09-19-10-38-28,1,49,0.6802969239279679,left,probe,ambiguous-stable,-1,40,left,left,0.381
HKS1998WRNO,2019-09-19-10-38-28,1,50,0.6017277558192207,left,both,ambiguous-stable,97,40,right,left,0.422
HKS1998WRNO,2019-09-19-10-38-28,1,51,0.5379409644260433,left,probe,ambiguous-stable,-1,10,left,left,0.529
HKS1998WRNO,2019-09-19-10-38-28,1,52,0.6071975914735492,left,both,ambiguous-stable,98,10,right,left,0.246
HKS1998WRNO,2019-09-19-10-38-28,1,53,0.5146636669231944,left,probe,ambiguous-stable,-1,-30,left,left,0.448
HKS1998WRNO,2019-09-19-10-38-28,1,54,0.6057792623521914,left,both,ambiguous-stable,93,-30,right,left,0.354
HKS1998WRNO,2019-09-19-10-38-28,1,55,0.6236799221348888,right,probe,biased-switch,-1,-30,right,right,0.364
HKS1998WRNO,2019-09-19-10-38-28,1,56,0.5749328029417998,right,both,biased-switch,95,-30,right,right,0.232
HKS1998WRNO,2019-09-19-10-38-28,1,57,0.5186748430662006,left,probe,ambiguous-stable,-1,-20,left,left,0.507
HKS1998WRNO,2019-09-19-10-38-28,1,58,0.6919941545826092,left,both,ambiguous-stable,92,-20,right,left,0.363
HKS1998WRNO,2019-09-19-10-38-28,1,59,0.6328947195231693,right,probe,ambiguous-switch,-1,-30,right,right,0.571
HKS1998WRNO,2019-09-19-10-38-28,1,60,0.6114869040626416,right,both,ambiguous-switch,96,-30,right,right,0.362
HKS1998WRNO,2019-09-19-10-38-28,2,1,0.6116677510474443,right,probe,ambiguous-stable,-1,40,right,right,0.275
HKS1998WRNO,2019-09-19-10-38-28,2,2,0.5653278382062265,right,both,ambiguous-stable,101,40,left,right,0.171
HKS1998WRNO,2019-09-19-10-38-28,2,3,0.6295434712755702,right,probe,ambiguous-stable,-1,-5,right,right,0.288
HKS1998WRNO,2019-09-19-10-38-28,2,4,0.5655814420655272,right,both,ambiguous-stable,102,-5,left,right,2.943
HKS1998WRNO,2019-09-19-10-38-28,2,5,0.5322108557961339,left,probe,biased-switch,-1,20,right,right,0.924
HKS1998WRNO,2019-09-19-10-38-28,2,6,0.5232042397100221,left,both,biased-switch,109,20,right,left,0.673
HKS1998WRNO,2019-09-19-10-38-28,2,7,0.5057180741294269,right,probe,biased-switch,-1,-20,right,right,0.448
HKS1998WRNO,2019-09-19-10-38-28,2,8,0.6532448004193636,right,both,biased-switch,92,-20,right,right,0.352
HKS1998WRNO,2019-09-19-10-38-28,2,9,0.528271137280867,left,probe,ambiguous-switch,-1,5,left,left,0.396
HKS1998WRNO,2019-09-19-10-38-28,2,10,0.5825036505474389,left,both,ambiguous-switch,103,5,left,right,0.251
HKS1998WRNO,2019-09-19-10-38-28,2,11,0.5190836520107595,right,probe,ambiguous-switch,-1,20,right,right,0.367
HKS1998WRNO,2019-09-19-10-38-28,2,12,0.5431338999604196,right,both,ambiguous-switch,102,20,right,right,0.263
HKS1998WRNO,2019-09-19-10-38-28,2,13,0.6856562224848131,left,probe,ambiguous-stable,-1,-30,right,right,0.511
HKS1998WRNO,2019-09-19-10-38-28,2,14,0.5991169640087933,left,both,ambiguous-stable,99,-30,left,left,0.154
HKS1998WRNO,2019-09-19-10-38-28,2,15,0.5976192075264897,left,probe,ambiguous-switch,-1,40,right,right,0.263
HKS1998WRNO,2019-09-19-10-38-28,2,16,0.615755242663468,left,both,ambiguous-switch,104,40,right,left,0.26
HKS1998WRNO,2019-09-19-10-38-28,2,17,0.6726296124268225,right,probe,biased-switch,-1,30,right,right,0.287
HKS1998WRNO,2019-09-19-10-38-28,2,18,0.6462392902992007,right,both,biased-switch,93,30,right,right,0.407
HKS1998WRNO,2019-09-19-10-38-28,2,19,0.5980363194394913,right,probe,ambiguous-stable,-1,20,right,right,0.432
HKS1998WRNO,2019-09-19-10-38-28,2,20,0.5896757789451208,right,both,ambiguous-stable,94,20,left,left,0.292
HKS1998WRNO,2019-09-19-10-38-28,2,21,0.5196489483409393,left,probe,ambiguous-switch,-1,-10,left,left,0.218
HKS1998WRNO,2019-09-19-10-38-28,2,22,0.6372886429095335,left,both,ambiguous-switch,99,-10,left,left,0.366
HKS1998WRNO,2019-09-19-10-38-28,2,23,0.5782759826404048,right,probe,ambiguous-switch,-1,-30,right,right,0.449
HKS1998WRNO,2019-09-19-10-38-28,2,24,0.6680895647705155,right,both,ambiguous-switch,95,-30,right,right,0.389
HKS1998WRNO,2019-09-19-10-38-28,2,25,0.520207587859874,right,probe,biased-switch,-1,-5,right,right,0.436
HKS1998WRNO,2019-09-19-10-38-28,2,26,0.6551918181974132,right,both,biased-switch,95,-5,right,left,0.32
HKS1998WRNO,2019-09-19-10-38-28,2,27,0.5171174529845916,left,probe,biased-switch,-1,-30,right,right,0.34
HKS1998WRNO,2019-09-19-10-38-28,2,28,0.6376555169256509,left,both,biased-switch,94,-30,right,right,0.211
HKS1998WRNO,2019-09-19-10-38-28,2,29,0.5379222572677109,left,probe,ambiguous-switch,-1,10,left,left,0.325
HKS1998WRNO,2019-09-19-10-38-28,2,30,0.6077147531930166,left,both,ambiguous-switch,90,10,left,right,0.078
HKS1998WRNO,2019-09-19-10-38-28,2,31,0.5599987869193054,right,probe,ambiguous-stable,-1,-20,left,left,0.199
HKS1998WRNO,2019-09-19-10-38-28,2,32,0.5371065477687053,right,both,ambiguous-stable,97,-20,right,right,0.434
HKS1998WRNO,2019-09-19-10-38-28,2,33,0.6676671580840285,left,probe,ambiguous-switch,-1,-20,left,left,0.288
HKS1998WRNO,2019-09-19-10-38-28,2,34,0.642644941372391,left,both,ambiguous-switch,98,-20,left,right,0.22
HKS1998WRNO,2019-09-19-10-38-28,2,35,0.6092809173815993,left,probe,biased-switch,-1,40,left,left,0.341
HKS1998WRNO,2019-09-19-10-38-28,2,36,0.6398585557211408,left,both,biased-switch,100,40,left,left,0.336
HKS1998WRNO,2019-09-19-10-38-28,2,37,0.5379138247619811,right,probe,biased-switch,-1,5,right,right,0.417
HKS1998WRNO,2019-09-19-10-38-28,2,38,0.6480517304019097,right,both,biased-switch,108,5,right,left,0.221
HKS1998WRNO,2019-09-19-10-38-28,2,39,0.6593789621485844,right,probe,biased-switch,-1,-10,left,left,0.35
HKS1998WRNO,2019-09-19-10-38-28,2,40,0.6789376705696374,right,both,biased-switch,96,-10,left,right,0.302
HKS1998WRNO,2019-09-19-10-38-28,2,41,0.6306368906728445,left,probe,ambiguous-switch,-1,-5,right,right,0.432
HKS1998WRNO,2019-09-19-10-38-28,2,42,0.5693039516091735,left,both,ambiguous-switch,106,-5,right,right,0.304
HKS1998WRNO,2019-09-19-10-38-28,2,43,0.5752463760470794,left,probe,biased-switch,-1,0,left,left,0.278
HKS1998WRNO,2019-09-19-10-38-28,2,44,0.5141056936628667,left,both,biased-switch,93,0,left,right,0.25
HKS1998WRNO,2019-09-19-10-38-28,2,45,0.6305619824745441,left,probe,ambiguous-stable,-1,5,right,right,0.253
HKS1998WRNO,2019-09-19-10-38-28,2,46,0.6160929338731402,left,both,ambiguous-stable,95,5,left,right,0.315
HKS1998WRNO,2019-09-19-10-38-28,2,47,0.5980572521126379,right,probe,biased-switch,-1,10,left,left,0.467
HKS1998WRNO,2019-09-19-10-38-28,2,48,0.5375000483462843,right,both,biased-switch,105,10,left,right,0.399
HKS1998WRNO,2019-09-19-10-38-28,2,49,0.6375603730104081,left,probe,ambiguous-switch,-1,0,right,right,0.6
HKS1998WRNO,2019-09-19-10-38-28,2,50,0.5274482873459174,left,both,ambiguous-switch,102,0,right,right,0.294
HKS1998WRNO,2019-09-19-10-38-28,2,51,0.501966038031117,right,probe,ambiguous-stable,-1,0,left,left,0.349
HKS1998WRNO,2019-09-19-10-38-28,2,52,0.686997482516711,right,both,ambiguous-stable,102,0,right,left,1.932
HKS1998WRNO,2019-09-19-10-38-28,2,53,0.6748508769803183,left,probe,ambiguous-stable,-1,-10,right,right,1.19
HKS1998WRNO,2019-09-19-10-38-28,2,54,0.5110201753012412,left,both,ambiguous-stable,96,-10,left,right,0.274
HKS1998WRNO,2019-09-19-10-38-28,2,55,0.6796024507988463,left,probe,ambiguous-stable,-1,10,right,right,0.531
HKS1998WRNO,2019-09-19-10-38-28,2,56,0.5790117631287786,left,both,ambiguous-stable,95,10,left,right,0.426
HKS1998WRNO,2019-09-19-10-38-28,2,57,0.5486065150426733,left,probe,ambiguous-stable,-1,30,right,right,0.821
HKS1998WRNO,2019-09-19-10-38-28,2,58,0.5854350169864512,left,both,ambiguous-stable,109,30,left,right,0.259
HKS1998WRNO,2019-09-19-10-38-28,2,59,0.5583890179442839,left,probe,ambiguous-switch,-1,30,right,right,0.552
HKS1998WRNO,2019-09-19-10-38-28,2,60,0.5096942433760138,left,both,ambiguous-switch,95,30,right,left,0.448
HKS1998WRNO,2019-09-19-10-38-28,3,1,0.5003288354777494,left,probe,biased-switch,-1,40,left,left,0.669
HKS1998WRNO,2019-09-19-10-38-28,3,2,0.6188372668285279,left,both,biased-switch,104,40,left,right,0.206
HKS1998WRNO,2019-09-19-10-38-28,3,3,0.5814179601388584,left,probe,ambiguous-switch,-1,-10,left,left,0.223
HKS1998WRNO,2019-09-19-10-38-28,3,4,0.5264515031177347,left,both,ambiguous-switch,107,-10,left,right,1.136
HKS1998WRNO,2019-09-19-10-38-28,3,5,0.601181849499972,right,probe,ambiguous-switch,-1,-5,left,left,0.744
HKS1998WRNO,2019-09-19-10-38-28,3,6,0.5144652715439795,right,both,ambiguous-switch,95,-5,left,right,0.331
HKS1998WRNO,2019-09-19-10-38-28,3,7,0.6809333430251459,right,probe,biased-switch,-1,20,left,left,0.59
HKS1998WRNO,2019-09-19-10-38-28,3,8,0.6950364330808337,right,both,biased-switch,90,20,left,right,0.273
HKS1998WRNO,2019-09-19-10-38-28,3,9,0.624239972977394,right,probe,ambiguous-switch,-1,40,left,left,0.411
HKS1998WRNO,2019-09-19-10-38-28,3,10,0.517365470302262,right,both,ambiguous-switch,107,40,left,right,0.193
HKS1998WRNO,2019-09-19-10-38-28,3,11,0.5020642658112082,left,probe,ambiguous-switch,-1,20,left,left,0.35
HKS1998WRNO,2019-09-19-10-38-28,3,12,0.5264737392527372,left,both,ambiguous-switch,93,20,left,right,0.271
HKS1998WRNO,2019-09-19-10-38-28,3,13,0.6784607247971404,left,probe,biased-switch,-1,-5,left,left,0.368
HKS1998WRNO,2019-09-19-10-38-28,3,14,0.6610888884814264,left,both,biased-switch,101,-5,left,right,0.341
HKS1998WRNO,2019-09-19-10-38-28,3,15,0.5428918827576236,right,probe,ambiguous-stable,-1,-10,right,right,0.392
HKS1998WRNO,2019-09-19-10-38-28,3,16,0.6431534170598947,right,both,ambiguous-stable,99,-10,left,right,0.152
HKS1998WRNO,2019-09-19-10-38-28,3,17,0.6746774032451746,left,probe,ambiguous-switch,-1,0,left,left,0.235
HKS1998WRNO,2019-09-19-10-38-28,3,18,0.5966976845425233,left,both,ambiguous-switch,110,0,left,right,0.225
HKS1998WRNO,2019-09-19-10-38-28,3,19,0.6077221852996889,right,probe,ambiguous-stable,-1,30,left,left,0.19
HKS1998WRNO,2019-09-19-10-38-28,3,20,0.6131996637882443,right,both,ambiguous-stable,105,30,right,left,0.329
HKS1998WRNO,2019-09-19-10-38-28,3,21,0.6061419604124579,left,probe,ambiguous-stable,-1,10,right,right,0.237
HKS1998WRNO,2019-09-19-10-38-28,3,22,0.5000306858835172,left,both,ambiguous-stable,108,10,left,right,0.256
HKS1998WRNO,2019-09-19-10-38-28,3,23,0.6499570319281068,right,probe,ambiguous-stable,-1,-5,left,left,0.238
HKS1998WRNO,2019-09-19-10-38-28,3,24,0.6218087315732157,right,both,ambiguous-stable,93,-5,right,left,0.411
HKS1998WRNO,2019-09-19-10-38-28,3,25,0.6841950548837251,right,probe,ambiguous-switch,-1,30,left,left,0.302
HKS1998WRNO,2019-09-19-10-38-28,3,26,0.5817547947162623,right,both,ambiguous-switch,96,30,left,left,0.298
HKS1998WRNO,2019-09-19-10-38-28,3,27,0.5592849266643376,left,probe,ambiguous-switch,-1,-30,left,left,0.399
HKS1998WRNO,2019-09-19-10-38-28,3,28,0.5795436406575649,left,both,ambiguous-switch,92,-30,left,right,0.392
HKS1998WRNO,2019-09-19-10-38-28,3,29,0.6730048857777007,right,probe,ambiguous-stable,-1,-20,left,left,0.337
HKS1998WRNO,2019-09-19-10-38-28,3,30,0.6696420042022927,right,both,ambiguous-stable,98,-20,right,left,0.388
HKS1998WRNO,2019-09-19-10-38-28,3,31,0.5810242545978219,right,probe,ambiguous-stable,-1,0,left,left,0.578
HKS1998WRNO,2019-09-19-10-38-28,3,32,0.5954911938312224,right,both,ambiguous-stable,99,0,right,left,0.305
HKS1998WRNO,2019-09-19-10-38-28,3,33,0.6903696943330494,left,probe,ambiguous-stable,-1,5,right,right,0.406
HKS1998WRNO,2019-09-19-10-38-28,3,34,0.6015739248024654,left,both,ambiguous-stable,92,5,left,right,0.248
HKS1998WRNO,2019-09-19-10-38-28,3,35,0.5591983960433519,left,probe,ambiguous-switch,-1,5,right,right,0.449
HKS1998WRNO,2019-09-19-10-38-28,3,36,0.6964999390892612,left,both,ambiguous-switch,95,5,right,left,0.216
HKS1998WRNO,2019-09-19-10-38-28,3,37,0.6941790600920154,right,probe,ambiguous-stable,-1,40,left,left,0.304
HKS1998WRNO,2019-09-19-10-38-28,3,38,0.6099799545609447,right,both,ambiguous-stable,90,40,right,left,0.301
HKS1998WRNO,2019-09-19-10-38-28,3,39,0.5147943725130191,right,probe,ambiguous-stable,-1,20,left,left,0.434
HKS1998WRNO,2019-09-19-10-38-28,3,40,0.5960409587238458,right,both,ambiguous-stable,104,20,right,left,0.321
HKS1998WRNO,2019-09-19-10-38-28,3,41,0.5920396385178991,left,probe,biased-switch,-1,-30,right,right,0.218
HKS1998WRNO,2019-09-19-10-38-28,3,42,0.6702360595938811,left,both,biased-switch,102,-30,right,right,0.248
HKS1998WRNO,2019-09-19-10-38-28,3,43,0.6642638534289067,left,probe,biased-switch,-1,-20,right,right,0.252
HKS1998WRNO,2019-09-19-10-38-28,3,44,0.5128489859170231,left,both,biased-switch,93,-20,right,right,0.211
HKS1998WRNO,2019-09-19-10-38-28,3,45,0.679288025841071,left,probe,biased-switch,-1,-10,right,right,0.314
HKS1998WRNO,2019-09-19-10-38-28,3,46,0.5484510937924143,left,both,biased-switch,108,-10,right,left,0.382
HKS1998WRNO,2019-09-19-10-38-28,3,47,0.6459490372469894,left,probe,biased-switch,-1,10,right,right,0.366
HKS1998WRNO,2019-09-19-10-38-28,3,48,0.6291967326786142,left,both,biased-switch,98,10,right,left,0.394
HKS1998WRNO,2019-09-19-10-38-28,3,49,0.574294203780463,right,probe,biased-switch,-1,5,left,left,0.61
HKS1998WRNO,2019-09-19-10-38-28,3,50,0.5390511474279109,right,both,biased-switch,109,5,left,right,0.08
HKS1998WRNO,2019-09-19-10-38-28,3,51,0.621531295672971,left,probe,ambiguous-switch,-1,-20,left,left,0.438
HKS1998WRNO,2019-09-19-10-38-28,3,52,0.6794139884585568,left,both,ambiguous-switch,98,-20,left,right,0.371
HKS1998WRNO,2019-09-19-10-38-28,3,53,0.6416365484369883,right,probe,biased-switch,-1,30,left,left,0.825
HKS1998WRNO,2019-09-19-10-38-28,3,54,0.533609362991765,right,both,biased-switch,98,30,left,right,0.197
HKS1998WRNO,2019-09-19-10-38-28,3,55,0.6142489248835511,left,probe,biased-switch,-1,0,left,left,0.456
HKS1998WRNO,2019-09-19-10-38-28,3,56,0.525998360653542,left,both,biased-switch,107,0,left,right,0.273
HKS1998WRNO,2019-09-19-10-38-28,3,57,0.5644788748927527,right,probe,ambiguous-switch,-1,10,left,left,0.269
HKS1998WRNO,2019-09-19-10-38-28,3,58,0.6491263239080315,right,both,ambiguous-switch,93,10,left,right,0.26
HKS1998WRNO,2019-09-19-10-38-28,3,59,0.6253718296898653,right,probe,ambiguous-stable,-1,-30,left,left,0.288
HKS1998WRNO,2019-09-19-10-38-28,3,60,0.698391752099021,right,both,ambiguous-stable,98,-30,right,right,0.316
HKS1998WRNO,2019-09-19-10-38-28,4,1,0.6585457661586355,left,probe,ambiguous-stable,-1,-30,right,right,0.319
HKS1998WRNO,2019-09-19-10-38-28,4,2,0.6002858174341172,left,both,ambiguous-stable,90,-30,left,right,0.262
HKS1998WRNO,2019-09-19-10-38-28,4,3,0.5504975533964478,left,probe,ambiguous-switch,-1,-10,right,right,0.376
HKS1998WRNO,2019-09-19-10-38-28,4,4,0.5508850612839414,left,both,ambiguous-switch,103,-10,right,right,0.215
HKS1998WRNO,2019-09-19-10-38-28,4,5,0.6676384926000877,right,probe,biased-switch,-1,-30,right,right,0.252
HKS1998WRNO,2019-09-19-10-38-28,4,6,0.6464710221718225,right,both,biased-switch,91,-30,right,right,0.336
HKS1998WRNO,2019-09-19-10-38-28,4,7,0.6743072289979899,right,probe,ambiguous-stable,-1,-10,right,right,0.488
HKS1998WRNO,2019-09-19-10-38-28,4,8,0.6897694857891579,right,both,ambiguous-stable,102,-10,left,right,0.225
HKS1998WRNO,2019-09-19-10-38-28,4,9,0.6705817871688673,left,probe,biased-switch,-1,30,left,left,0.25
HKS1998WRNO,2019-09-19-10-38-28,4,10,0.5030393887462096,left,both,biased-switch,94,30,left,right,2.092
HKS1998WRNO,2019-09-19-10-38-28,4,11,0.6437778268096366,left,probe,ambiguous-stable,-1,5,right,right,0.88
HKS1998WRNO,2019-09-19-10-38-28,4,12,0.5922094336841179,left,both,ambiguous-stable,103,5,left,right,0.504
HKS1998WRNO,2019-09-19-10-38-28,4,13,0.5898289906200962,right,probe,ambiguous-stable,-1,-20,right,right,0.445
HKS1998WRNO,2019-09-19-10-38-28,4,14,0.6138690243078055,right,both,ambiguous-stable,97,-20,left,left,0.354
HKS1998WRNO,2019-09-19-10-38-28,4,15,0.6830569318469333,left,probe,biased-switch,-1,10,right,right,1.655
HKS1998WRNO,2019-09-19-10-38-28,4,16,0.5957811428830184,left,both,biased-switch,104,10,right,left,0.269
HKS1998WRNO,2019-09-19-10-38-28,4,17,0.563660446652214,left,probe,ambiguous-switch,-1,40,left,left,0.495
HKS1998WRNO,2019-09-19-10-38-28,4,18,0.611901072565236,left,both,ambiguous-switch,97,40,left,right,0.032
HKS1998WRNO,2019-09-19-10-38-28,4,19,0.5081774009645068,left,probe,ambiguous-switch,-1,0,right,right,0.4
HKS1998WRNO,2019-09-19-10-38-28,4,20,0.6945512467799259,left,both,ambiguous-switch,91,0,right,left,0.238
HKS1998WRNO,2019-09-19-10-38-28,4,21,0.5934288246521334,right,probe,biased-switch,-1,5,right,right,0.333
HKS1998WRNO,2019-09-19-10-38-28,4,22,0.5406846096355034,right,both,biased-switch,107,5,right,left,0.536
HKS1998WRNO,2019-09-19-10-38-28,4,23,0.5468406086651825,right,probe,ambiguous-switch,-1,-30,left,left,0.657
HKS1998WRNO,2019-09-19-10-38-28,4,24,0.6224694955747433,right,both,ambiguous-switch,104,-30,left,left,0.301
HKS1998WRNO,2019-09-19-10-38-28,4,25,0.6921071471276917,left,probe,ambiguous-switch,-1,10,left,left,0.537
HKS1998WRNO,2019-09-19-10-38-28,4,26,0.6803915627108055,left,both,ambiguous-switch,107,10,left,right,0.288
HKS1998WRNO,2019-09-19-10-38-28,4,27,0.6112880302664782,right,probe,ambiguous-switch,-1,5,left,left,0.28
HKS1998WRNO,2019-09-19-10-38-28,4,28,0.5903566577868024,right,both,ambiguous-switch,91,5,left,right,0.22
HKS1998WRNO,2019-09-19-10-38-28,4,29,0.6926747753135531,left,probe,biased-switch,-1,0,left,left,0.322
HKS1998WRNO,2019-09-19-10-38-28,4,30,0.5646116752613929,left,both,biased-switch,91,0,left,right,0.218
HKS1998WRNO,2019-09-19-10-38-28,4,31,0.6530216761525895,right,probe,biased-switch,-1,-20,left,left,0.198
HKS1998WRNO,2019-09-19-10-38-28,4,32,0.6568370669305286,right,both,biased-switch,91,-20,left,right,0.275
HKS1998WRNO,2019-09-19-10-38-28,4,33,0.6904154591388509,right,probe,ambiguous-switch,-1,-5,left,left,0.223
HKS1998WRNO,2019-09-19-10-38-28,4,34,0.5838208585304362,right,both,ambiguous-switch,102,-5,left,right,0.202
HKS1998WRNO,2019-09-19-10-38-28,4,35,0.5986919945014797,left,probe,biased-switch,-1,40,left,left,0.901
HKS1998WRNO,2019-09-19-10-38-28,4,36,0.5386029948105968,left,both,biased-switch,91,40,left,right,0.227
HKS1998WRNO,2019-09-19-10-38-28,4,37,0.6485425420837811,left,probe,biased-switch,-1,20,right,right,0.424
HKS1998WRNO,2019-09-19-10-38-28,4,38,0.5355805484242393,left,both,biased-switch,98,20,right,left,0.332
HKS1998WRNO,2019-09-19-10-38-28,4,39,0.5296533769126238,left,probe,ambiguous-switch,-1,20,left,left,0.62
HKS1998WRNO,2019-09-19-10-38-28,4,40,0.5857870044939729,left,both,ambiguous-switch,94,20,left,right,0.287
HKS1998WRNO,2019-09-19-10-38-28,4,41,0.5352628822912405,left,probe,ambiguous-switch,-1,30,left,left,0.529
HKS1998WRNO,2019-09-19-10-38-28,4,42,0.6911054472073082,left,both,ambiguous-switch,91,30,left,right,0.226
HKS1998WRNO,2019-09-19-10-38-28,4,43,0.6978709969330105,left,probe,ambiguous-stable,-1,30,left,left,0.271
HKS1998WRNO,2019-09-19-10-38-28,4,44,0.5121215002936603,left,both,ambiguous-stable,91,30,right,left,0.251
HKS1998WRNO,2019-09-19-10-38-28,4,45,0.531551902461628,right,probe,ambiguous-stable,-1,0,right,right,0.23
HKS1998WRNO,2019-09-19-10-38-28,4,46,0.5533399899901782,right,both,ambiguous-stable,95,0,left,left,0.232
HKS1998WRNO,2019-09-19-10-38-28,4,47,0.5623780166784801,left,probe,biased-switch,-1,-10,left,left,0.29
HKS1998WRNO,2019-09-19-10-38-28,4,48,0.6976390726386499,left,both,biased-switch,90,-10,left,right,0.222
HKS1998WRNO,2019-09-19-10-38-28,4,49,0.6404558367042612,left,probe,ambiguous-switch,-1,-20,left,left,0.249
HKS1998WRNO,2019-09-19-10-38-28,4,50,0.5322724607932698,left,both,ambiguous-switch,109,-20,left,left,0.245
HKS1998WRNO,2019-09-19-10-38-28,4,51,0.5311568337094318,right,probe,biased-switch,-1,-5,left,left,0.348
HKS1998WRNO,2019-09-19-10-38-28,4,52,0.5074186936394575,right,both,biased-switch,105,-5,left,right,0.137
HKS1998WRNO,2019-09-19-10-38-28,4,53,0.5916718039039677,left,probe,ambiguous-stable,-1,40,left,left,0.202
HKS1998WRNO,2019-09-19-10-38-28,4,54,0.5031070741349759,left,both,ambiguous-stable,97,40,right,left,0.131
HKS1998WRNO,2019-09-19-10-38-28,4,55,0.6187516056166347,left,probe,ambiguous-stable,-1,-5,left,left,0.229
HKS1998WRNO,2019-09-19-10-38-28,4,56,0.6109741463444376,left,both,ambiguous-stable,99,-5,right,left,0.176
HKS1998WRNO,2019-09-19-10-38-28,4,57,0.6793224957282451,right,probe,ambiguous-stable,-1,20,right,right,0.415
HKS1998WRNO,2019-09-19-10-38-28,4,58,0.6831103385788789,right,both,ambiguous-stable,105,20,left,right,0.235
HKS1998WRNO,2019-09-19-10-38-28,4,59,0.6882776050684243,right,probe,ambiguous-stable,-1,10,right,right,0.277
HKS1998WRNO,2019-09-19-10-38-28,4,60,0.5813530138635046,right,both,ambiguous-stable,104,10,left,right,0.21
HKS1998WRNO,2019-09-19-10-38-28,5,1,0.5363078501284795,right,probe,ambiguous-stable,-1,0,right,right,0.431
HKS1998WRNO,2019-09-19-10-38-28,5,2,0.5590453326237816,right,both,ambiguous-stable,109,0,left,right,0.215
HKS1998WRNO,2019-09-19-10-38-28,5,3,0.5120278595909321,right,probe,ambiguous-switch,-1,10,right,right,0.588
HKS1998WRNO,2019-09-19-10-38-28,5,4,0.5303016297478538,right,both,ambiguous-switch,105,10,right,right,0.171
HKS1998WRNO,2019-09-19-10-38-28,5,5,0.5695306558882414,left,probe,ambiguous-stable,-1,-10,left,left,0.327
HKS1998WRNO,2019-09-19-10-38-28,5,6,0.6140873269881624,left,both,ambiguous-stable,101,-10,right,left,0.299
HKS1998WRNO,2019-09-19-10-38-28,5,7,0.5700581529737041,right,probe,biased-switch,-1,40,right,right,0.302
HKS1998WRNO,2019-09-19-10-38-28,5,8,0.6662022045706217,right,both,biased-switch,92,40,right,right,0.556
HKS1998WRNO,2019-09-19-10-38-28,5,9,0.6470105764060645,left,probe,ambiguous-stable,-1,10,left,left,0.656
HKS1998WRNO,2019-09-19-10-38-28,5,10,0.5058447611830119,left,both,ambiguous-stable,103,10,right,left,0.307
HKS1998WRNO,2019-09-19-10-38-28,5,11,0.6121382544488473,left,probe,biased-switch,-1,-30,left,left,0.55
HKS1998WRNO,2019-09-19-10-38-28,5,12,0.5261475403705835,left,both,biased-switch,90,-30,left,left,0.24
HKS1998WRNO,2019-09-19-10-38-28,5,13,0.6672981124991015,left,probe,biased-switch,-1,-20,left,left,0.62
HKS1998WRNO,2019-09-19-10-38-28,5,14,0.683210342725945,left,both,biased-switch,106,-20,left,left,0.309
HKS1998WRNO,2019-09-19-10-38-28,5,15,0.67672588816077,right,probe,ambiguous-switch,-1,-5,right,right,0.31
HKS1998WRNO,2019-09-19-10-38-28,5,16,0.6871189951113394,right,both,ambiguous-switch,97,-5,right,right,0.238
HKS1998WRNO,2019-09-19-10-38-28,5,17,0.5038368366249858,left,probe,ambiguous-stable,-1,30,left,left,0.334
HKS1998WRNO,2019-09-19-10-38-28,5,18,0.5273431243076172,left,both,ambiguous-stable,106,30,right,left,0.239
HKS1998WRNO,2019-09-19-10-38-28,5,19,0.5735152339504098,left,probe,biased-switch,-1,20,left,left,0.31
HKS1998WRNO,2019-09-19-10-38-28,5,20,0.6375467620264064,left,both,biased-switch,107,20,left,left,0.299
HKS1998WRNO,2019-09-19-10-38-28,5,21,0.5390648728154852,left,probe,ambiguous-stable,-1,-30,left,left,0.326
HKS1998WRNO,2019-09-19-10-38-28,5,22,0.6686919396146183,left,both,ambiguous-stable,105,-30,right,left,0.292
HKS1998WRNO,2019-09-19-10-38-28,5,23,0.5806584808732508,left,probe,biased-switch,-1,5,left,left,0.49
HKS1998WRNO,2019-09-19-10-38-28,5,24,0.689167181799151,left,both,biased-switch,94,5,left,right,0.079
HKS1998WRNO,2019-09-19-10-38-28,5,25,0.5219766506009291,left,probe,ambiguous-switch,-1,20,left,left,0.21
HKS1998WRNO,2019-09-19-10-38-28,5,26,0.6740631675781472,left,both,ambiguous-switch,108,20,left,right,0.173
HKS1998WRNO,2019-09-19-10-38-28,5,27,0.6293602671027464,left,probe,biased-switch,-1,0,left,left,0.099
HKS1998WRNO,2019-09-19-10-38-28,5,28,0.5279801958448497,left,both,biased-switch,108,0,left,right,0.215
HKS1998WRNO,2019-09-19-10-38-28,5,29,0.6810895011139074,right,probe,biased-switch,-1,-5,right,right,0.208
HKS1998WRNO,2019-09-19-10-38-28,5,30,0.6494725387852278,right,both,biased-switch,98,-5,right,left,0.321
HKS1998WRNO,2019-09-19-10-38-28,5,31,0.6623314427321895,left,probe,ambiguous-switch,-1,0,left,left,0.441
HKS1998WRNO,2019-09-19-10-38-28,5,32,0.5780559835270621,left,both,ambiguous-switch,108,0,left,right,0.259
HKS1998WRNO,2019-09-19-10-38-28,5,33,0.6745525287802526,right,probe,ambiguous-switch,-1,40,left,left,0.383
HKS1998WRNO,2019-09-19-10-38-28,5,34,0.6743654576758669,right,both,ambiguous-switch,92,40,left,right,0.233
HKS1998WRNO,2019-09-19-10-38-28,5,35,0.581609686897341,left,probe,biased-switch,-1,30,left,left,0.316
HKS1998WRNO,2019-09-19-10-38-28,5,36,0.639503399999294,left,both,biased-switch,102,30,left,right,0.228
HKS1998WRNO,2019-09-19-10-38-28,5,37,0.6517739116425827,right,probe,ambiguous-switch,-1,-20,left,left,0.205
HKS1998WRNO,2019-09-19-10-38-28,5,38,0.6890566328054144,right,both,ambiguous-switch,100,-20,left,left,0.366
HKS1998WRNO,2019-09-19-10-38-28,5,39,0.5304254019279897,right,probe,biased-switch,-1,10,left,left,0.273
HKS1998WRNO,2019-09-19-10-38-28,5,40,0.5418196714901631,right,both,biased-switch,98,10,left,right,0.258
HKS1998WRNO,2019-09-19-10-38-28,5,41,0.560356201105125,right,probe,ambiguous-switch,-1,30,left,left,0.277
HKS1998WRNO,2019-09-19-10-38-28,5,42,0.5516110231269266,right,both,ambiguous-switch,103,30,left,left,0.704
HKS1998WRNO,2019-09-19-10-38-28,5,43,0.6046420040112794,left,probe,biased-switch,-1,-10,right,right,0.643
HKS1998WRNO,2019-09-19-10-38-28,5,44,0.6865485094493606,left,both,biased-switch,102,-10,right,right,0.289
HKS1998WRNO,2019-09-19-10-38-28,5,45,0.6237725045465773,left,probe,ambiguous-stable,-1,20,left,left,0.434
HKS1998WRNO,2019-09-19-10-38-28,5,46,0.6118853991386688,left,both,ambiguous-stable,101,20,right,left,0.269
HKS1998WRNO,2019-09-19-10-38-28,5,47,0.5105458948240037,left,probe,ambiguous-switch,-1,-30,left,left,0.224
HKS1998WRNO,2019-09-19-10-38-28,5,48,0.5435909889663507,left,both,ambiguous-switch,104,-30,left,right,0.282
HKS1998WRNO,2019-09-19-10-38-28,5,49,0.5485175863661971,left,probe,ambiguous-stable,-1,-5,left,left,0.231
HKS1998WRNO,2019-09-19-10-38-28,5,50,0.6787898488902551,left,both,ambiguous-stable,100,-5,right,left,0.235
HKS1998WRNO,2019-09-19-10-38-28,5,51,0.6044847948142004,right,probe,ambiguous-switch,-1,5,left,left,0.374
HKS1998WRNO,2019-09-19-10-38-28,5,52,0.5577037741572538,right,both,ambiguous-switch,108,5,left,right,0.278
HKS1998WRNO,2019-09-19-10-38-28,5,53,0.664930355452904,left,probe,ambiguous-stable,-1,40,left,left,0.456
HKS1998WRNO,2019-09-19-10-38-28,5,54,0.5598297262387399,left,both,ambiguous-stable,103,40,right,left,0.214
HKS1998WRNO,2019-09-19-10-38-28,5,55,0.6236369982849794,right,probe,ambiguous-stable,-1,5,right,right,0.216
HKS1998WRNO,2019-09-19-10-38-28,5,56,0.6389626046527686,right,both,ambiguous-stable,102,5,left,right,0.101
HKS1998WRNO,2019-09-19-10-38-28,5,57,0.6718193508292755,left,probe,ambiguous-stable,-1,-20,left,left,0.196
HKS1998WRNO,2019-09-19-10-38-28,5,58,0.6194994559780183,left,both,ambiguous-stable,95,-20,right,right,0.267
HKS1998WRNO,2019-09-19-10-38-28,5,59,0.611316898435094,left,probe,ambiguous-switch,-1,-10,left,left,0.283
HKS1998WRNO,2019-09-19-10-38-28,5,60,0.5809790225874261,left,both,ambiguous-switch,93,-10,left,right,0.302
HKS1998WRNO,2019-09-19-10-38-28,6,1,0.6847787872329196,left,probe,ambiguous-switch,-1,30,right,right,0.232
HKS1998WRNO,2019-09-19-10-38-28,6,2,0.5487772177142995,left,both,ambiguous-switch,101,30,right,left,0.194
HKS1998WRNO,2019-09-19-10-38-28,6,3,0.5365595911207007,right,probe,biased-switch,-1,20,right,right,0.249
HKS1998WRNO,2019-09-19-10-38-28,6,4,0.5007814262618286,right,both,biased-switch,103,20,right,left,0.223
HKS1998WRNO,2019-09-19-10-38-28,6,5,0.661411831407627,left,probe,ambiguous-switch,-1,20,left,left,0.154
HKS1998WRNO,2019-09-19-10-38-28,6,6,0.6123520017628367,left,both,ambiguous-switch,101,20,left,left,0.154
HKS1998WRNO,2019-09-19-10-38-28,6,7,0.5709515617765567,left,probe,biased-switch,-1,-10,left,left,0.376
HKS1998WRNO,2019-09-19-10-38-28,6,8,0.5536440740766111,left,both,biased-switch,96,-10,left,right,0.197
HKS1998WRNO,2019-09-19-10-38-28,6,9,0.634253476195191,left,probe,ambiguous-switch,-1,0,left,left,0.058
HKS1998WRNO,2019-09-19-10-38-28,6,10,0.500499636012032,left,both,ambiguous-switch,97,0,left,right,0.307
HKS1998WRNO,2019-09-19-10-38-28,6,11,0.5788697768619708,right,probe,biased-switch,-1,40,left,left,0.265
HKS1998WRNO,2019-09-19-10-38-28,6,12,0.6555030059792076,right,both,biased-switch,95,40,left,left,0.242
HKS1998WRNO,2019-09-19-10-38-28,6,13,0.6986264866657037,right,probe,ambiguous-switch,-1,10,left,left,0.192
HKS1998WRNO,2019-09-19-10-38-28,6,14,0.661477496680572,right,both,ambiguous-switch,91,10,left,right,1.511
HKS1998WRNO,2019-09-19-10-38-28,6,15,0.6760290495815108,left,probe,ambiguous-stable,-1,5,left,left,0.245
HKS1998WRNO,2019-09-19-10-38-28,6,16,0.5976916446494076,left,both,ambiguous-stable,93,5,right,left,0.242
HKS1998WRNO,2019-09-19-10-38-28,6,17,0.5094606122552818,right,probe,ambiguous-switch,-1,-30,left,left,0.234
HKS1998WRNO,2019-09-19-10-38-28,6,18,0.6443665605501132,right,both,ambiguous-switch,97,-30,left,left,0.413
HKS1998WRNO,2019-09-19-10-38-28,6,19,0.6948229197024112,right,probe,ambiguous-switch,-1,-10,left,left,0.295
HKS1998WRNO,2019-09-19-10-38-28,6,20,0.6995519129450631,right,both,ambiguous-switch,108,-10,left,left,0.343
HKS1998WRNO,2019-09-19-10-38-28,6,21,0.6761959870540257,left,probe,ambiguous-stable,-1,10,left,left,0.641
HKS1998WRNO,2019-09-19-10-38-28,6,22,0.5488904278036739,left,both,ambiguous-stable,101,10,right,left,0.278
HKS1998WRNO,2019-09-19-10-38-28,6,23,0.5986497328564934,left,probe,ambiguous-stable,-1,40,left,left,0.37
HKS1998WRNO,2019-09-19-10-38-28,6,24,0.6349584270057229,left,both,ambiguous-stable,93,40,right,left,0.451
HKS1998WRNO,2019-09-19-10-38-28,6,25,0.6518742429625008,right,probe,ambiguous-switch,-1,40,left,left,0.319
HKS1998WRNO,2019-09-19-10-38-28,6,26,0.6917432190763549,right,both,ambiguous-switch,101,40,left,right,0.022
HKS1998WRNO,2019-09-19-10-38-28,6,27,0.5007701366832393,right,probe,biased-switch,-1,30,left,left,0.238
HKS1998WRNO,2019-09-19-10-38-28,6,28,0.6230936000196375,right,both,biased-switch,107,30,left,left,0.271
HKS1998WRNO,2019-09-19-10-38-28,6,29,0.6984774586325286,right,probe,ambiguous-stable,-1,20,left,left,0.383
HKS1998WRNO,2019-09-19-10-38-28,6,30,0.6310326414979935,right,both,ambiguous-stable,105,20,right,left,0.3
HKS1998WRNO,2019-09-19-10-38-28,6,31,0.5148899421358424,left,probe,ambiguous-switch,-1,-20,right,right,0.183
HKS1998WRNO,2019-09-19-10-38-28,6,32,0.5185815400401388,left,both,ambiguous-switch,91,-20,right,right,0.292
HKS1998WRNO,2019-09-19-10-38-28,6,33,0.5917281799194903,right,probe,ambiguous-stable,-1,0,left,left,0.422
HKS1998WRNO,2019-09-19-10-38-28,6,34,0.5028075103752099,right,both,ambiguous-stable,93,0,right,left,0.251
HKS1998WRNO,2019-09-19-10-38-28,6,35,0.6892907780399644,right,probe,ambiguous-stable,-1,30,left,left,0.236
HKS1998WRNO,2019-09-19-10-38-28,6,36,0.5114524798396306,right,both,ambiguous-stable,103,30,right,left,0.217
HKS1998WRNO,2019-09-19-10-38-28,6,37,0.5099941708765243,right,probe,ambiguous-stable,-1,-20,left,left,0.384
HKS1998WRNO,2019-09-19-10-38-28,6,38,0.518672284029421,right,both,ambiguous-stable,105,-20,right,left,0.278
HKS1998WRNO,2019-09-19-10-38-28,6,39,0.6885885216497325,right,probe,ambiguous-switch,-1,5,left,left,0.369
HKS1998WRNO,2019-09-19-10-38-28,6,40,0.5296054230422689,right,both,ambiguous-switch,101,5,left,right,0.211
HKS1998WRNO,2019-09-19-10-38-28,6,41,0.6356404854668468,right,probe,ambiguous-stable,-1,-10,left,left,1.979
HKS1998WRNO,2019-09-19-10-38-28,6,42,0.6892624947034429,right,both,ambiguous-stable,93,-10,right,right,0.269
HKS1998WRNO,2019-09-19-10-38-28,6,43,0.6436969360543487,right,probe,ambiguous-switch,-1,-5,left,left,0.276
HKS1998WRNO,2019-09-19-10-38-28,6,44,0.6160264602384172,right,both,ambiguous-switch,109,-5,left,left,0.226
HKS1998WRNO,2019-09-19-10-38-28,6,45,0.6155118796234701,right,probe,biased-switch,-1,5,left,left,0.282
HKS1998WRNO,2019-09-19-10-38-28,6,46,0.5331690338965684,right,both,biased-switch,96,5,left,right,0.277
HKS1998WRNO,2019-09-19-10-38-28,6,47,0.5609904434032338,right,probe,biased-switch,-1,-20,left,left,0.232
HKS1998WRNO,2019-09-19-10-38-28,6,48,0.5711203066828368,right,both,biased-switch,104,-20,left,right,0.261
HKS1998WRNO,2019-09-19-10-38-28,6,49,0.6460358918543871,left,probe,biased-switch,-1,-30,right,right,0.119
HKS1998WRNO,2019-09-19-10-38-28,6,50,0.6737524798237124,left,both,biased-switch,105,-30,right,right,0.306
HKS1998WRNO,2019-09-19-10-38-28,6,51,0.5691558022662467,right,probe,ambiguous-stable,-1,-30,left,left,0.262
HKS1998WRNO,2019-09-19-10-38-28,6,52,0.6681523757584515,right,both,ambiguous-stable,98,-30,right,right,0.201
HKS1998WRNO,2019-09-19-10-38-28,6,53,0.6563965280098083,left,probe,ambiguous-stable,-1,-5,right,right,0.262
HKS1998WRNO,2019-09-19-10-38-28,6,54,0.5795153665230521,left,both,ambiguous-stable,98,-5,left,right,0.218
HKS1998WRNO,2019-09-19-10-38-28,6,55,0.6273424536006754,right,probe,biased-switch,-1,-5,right,right,0.289
HKS1998WRNO,2019-09-19-10-38-28,6,56,0.5684332666635827,right,both,biased-switch,106,-5,right,left,0.24
HKS1998WRNO,2019-09-19-10-38-28,6,57,0.5628474128414935,left,probe,biased-switch,-1,10,right,right,0.244
HKS1998WRNO,2019-09-19-10-38-28,6,58,0.5315615383795665,left,both,biased-switch,91,10,right,left,0.201
HKS1998WRNO,2019-09-19-10-38-28,6,59,0.5018978869795657,left,probe,biased-switch,-1,0,right,right,0.192
HKS1998WRNO,2019-09-19-10-38-28,6,60,0.5141189037602797,left,both,biased-switch,93,0,right,left,0.238
HKS1998WRNO,2019-09-19-10-38-28,7,1,0.6023882323797579,left,probe,ambiguous-stable,-1,0,right,right,0.194
HKS1998WRNO,2019-09-19-10-38-28,7,2,0.6080847401405,left,both,ambiguous-stable,107,0,left,right,0.239
HKS1998WRNO,2019-09-19-10-38-28,7,3,0.564271898844084,left,probe,ambiguous-stable,-1,10,right,right,0.251
HKS1998WRNO,2019-09-19-10-38-28,7,4,0.5914894518670354,left,both,ambiguous-stable,107,10,left,right,0.214
HKS1998WRNO,2019-09-19-10-38-28,7,5,0.6058481848661281,left,probe,ambiguous-switch,-1,5,right,right,0.433
HKS1998WRNO,2019-09-19-10-38-28,7,6,0.6854308766749118,left,both,ambiguous-switch,97,5,right,left,0.206
HKS1998WRNO,2019-09-19-10-38-28,7,7,0.6434138041017146,left,probe,biased-switch,-1,10,right,right,0.22
HKS1998WRNO,2019-09-19-10-38-28,7,8,0.6272549963191298,left,both,biased-switch,98,10,right,left,0.261
HKS1998WRNO,2019-09-19-10-38-28,7,9,0.6315086170811205,left,probe,ambiguous-switch,-1,10,right,right,0.548
HKS1998WRNO,2019-09-19-10-38-28,7,10,0.5839470284820876,left,both,ambiguous-switch,110,10,right,left,0.261
HKS1998WRNO,2019-09-19-10-38-28,7,11,0.6360765894284458,right,probe,ambiguous-stable,-1,40,right,right,0.416
HKS1998WRNO,2019-09-19-10-38-28,7,12,0.6272914841098566,right,both,ambiguous-stable,103,40,left,right,0.228
HKS1998WRNO,2019-09-19-10-38-28,7,13,0.5306587992934031,left,probe,ambiguous-switch,-1,-30,left,left,0.427
HKS1998WRNO,2019-09-19-10-38-28,7,14,0.5146437230471166,left,both,ambiguous-switch,95,-30,left,right,0.289
HKS1998WRNO,2019-09-19-10-38-28,7,15,0.5631920608844699,right,probe,ambiguous-switch,-1,-5,right,right,0.389
HKS1998WRNO,2019-09-19-10-38-28,7,16,0.6557415961826064,right,both,ambiguous-switch,102,-5,right,right,0.263
HKS1998WRNO,2019-09-19-10-38-28,7,17,0.6728111053028886,left,probe,ambiguous-switch,-1,-10,right,right,0.265
HKS1998WRNO,2019-09-19-10-38-28,7,18,0.5289293101496234,left,both,ambiguous-switch,110,-10,right,right,0.067
HKS1998WRNO,2019-09-19-10-38-28,7,19,0.5491606883245685,left,probe,ambiguous-stable,-1,-5,right,right,0.304
HKS1998WRNO,2019-09-19-10-38-28,7,20,0.5032779243266182,left,both,ambiguous-stable,96,-5,left,right,0.375
HKS1998WRNO,2019-09-19-10-38-28,7,21,0.6027906222639146,left,probe,biased-switch,-1,5,right,right,0.368
HKS1998WRNO,2019-09-19-10-38-28,7,22,0.6619736303399918,left,both,biased-switch,97,5,right,left,0.165
HKS1998WRNO,2019-09-19-10-38-28,7,23,0.6598114885212741,left,probe,biased-switch,-1,30,right,right,0.239
HKS1998WRNO,2019-09-19-10-38-28,7,24,0.663918440530163,left,both,biased-switch,92,30,right,left,0.206
HKS1998WRNO,2019-09-19-10-38-28,7,25,0.6784658641459897,right,probe,ambiguous-stable,-1,5,right,right,0.254
HKS1998WRNO,2019-09-19-10-38-28,7,26,0.535218512151379,right,both,ambiguous-stable,99,5,left,right,0.226
HKS1998WRNO,2019-09-19-10-38-28,7,27,0.5638706920190486,right,probe,biased-switch,-1,-10,right,right,0.647
HKS1998WRNO,2019-09-19-10-38-28,7,28,0.5762526163614734,right,both,biased-switch,94,-10,right,right,0.321
HKS1998WRNO,2019-09-19-10-38-28,7,29,0.570886303762349,right,probe,ambiguous-switch,-1,20,right,right,0.619
HKS1998WRNO,2019-09-19-10-38-28,7,30,0.5930795537174182,right,both,ambiguous-switch,106,20,right,right,0.632
HKS1998WRNO,2019-09-19-10-38-28,7,31,0.5976830062868904,left,probe,ambiguous-stable,-1,-30,right,right,0.447
HKS1998WRNO,2019-09-19-10-38-28,7,32,0.6505717031583391,left,both,ambiguous-stable,96,-30,left,left,0.287
HKS1998WRNO,2019-09-19-10-38-28,7,33,0.6874968910577987,right,probe,biased-switch,-1,0,left,left,1.322
HKS1998WRNO,2019-09-19-10-38-28,7,34,0.6345006731689048,right,both,biased-switch,108,0,left,right,0.494
HKS1998WRNO,2019-09-19-10-38-28,7,35,0.6883347362637355,left,probe,ambiguous-stable,-1,-20,left,left,0.452
HKS1998WRNO,2019-09-19-10-38-28,7,36,0.6248195337445362,left,both,ambiguous-stable,106,-20,right,right,0.201
HKS1998WRNO,2019-09-19-10-38-28,7,37,0.5862868210787459,right,probe,ambiguous-stable,-1,-10,right,right,0.33
HKS1998WRNO,2019-09-19-10-38-28,7,38,0.5043099148701927,right,both,ambiguous-stable,93,-10,left,right,0.215
HKS1998WRNO,2019-09-19-10-38-28,7,39,0.5097259879281792,left,probe,ambiguous-switch,-1,40,right,right,0.292
HKS1998WRNO,2019-09-19-10-38-28,7,40,0.6797558416458591,left,both,ambiguous-switch,97,40,right,right,0.219
HKS1998WRNO,2019-09-19-10-38-28,7,41,0.5807556501838234,right,probe,biased-switch,-1,-5,right,right,0.273
HKS1998WRNO,2019-09-19-10-38-28,7,42,0.6254003905289871,right,both,biased-switch,98,-5,right,right,0.28
HKS1998WRNO,2019-09-19-10-38-28,7,43,0.6716305115936958,left,probe,ambiguous-switch,-1,-20,right,right,0.257
HKS1998WRNO,2019-09-19-10-38-28,7,44,0.5969249047331454,left,both,ambiguous-switch,93,-20,right,right,0.309
HKS1998WRNO,2019-09-19-10-38-28,7,45,0.6609027877076113,left,probe,biased-switch,-1,-20,right,right,0.363
HKS1998WRNO,2019-09-19-10-38-28,7,46,0.6416676381073495,left,both,biased-switch,109,-20,right,right,0.267
HKS1998WRNO,2019-09-19-10-38-28,7,47,0.5687459106106993,left,probe,ambiguous-switch,-1,30,right,right,0.219
HKS1998WRNO,2019-09-19-10-38-28,7,48,0.5267628785431825,left,both,ambiguous-switch,90,30,right,right,0.193
HKS1998WRNO,2019-09-19-10-38-28,7,49,0.519670206990456,right,probe,ambiguous-switch,-1,0,right,right,0.301
HKS1998WRNO,2019-09-19-10-38-28,7,50,0.6555333006032094,right,both,ambiguous-switch,96,0,right,right,0.322
HKS1998WRNO,2019-09-19-10-38-28,7,51,0.5562017402912245,right,probe,biased-switch,-1,40,right,right,0.245
HKS1998WRNO,2019-09-19-10-38-28,7,52,0.509767423808369,right,both,biased-switch,101,40,right,right,0.2
HKS1998WRNO,2019-09-19-10-38-28,7,53,0.5540664276422813,right,probe,biased-switch,-1,-30,right,right,0.406
HKS1998WRNO,2019-09-19-10-38-28,7,54,0.6691581430526138,right,both,biased-switch,98,-30,right,right,0.37
HKS1998WRNO,2019-09-19-10-38-28,7,55,0.5787824488771283,right,probe,ambiguous-stable,-1,20,right,right,0.338
HKS1998WRNO,2019-09-19-10-38-28,7,56,0.675605262415637,right,both,ambiguous-stable,100,20,left,right,0.235
HKS1998WRNO,2019-09-19-10-38-28,7,57,0.5500399334072745,right,probe,biased-switch,-1,20,right,right,0.346
HKS1998WRNO,2019-09-19-10-38-28,7,58,0.6485804829173717,right,both,biased-switch,107,20,right,left,0.476
HKS1998WRNO,2019-09-19-10-38-28,7,59,0.5011007964019096,left,probe,ambiguous-stable,-1,30,right,right,0.567
HKS1998WRNO,2019-09-19-10-38-28,7,60,0.6968543377540257,left,both,ambiguous-stable,101,30,left,right,0.203
HKS1998WRNO,2019-09-19-10-38-28,8,1,0.6405067675767372,right,probe,ambiguous-stable,-1,-5,right,right,0.326
HKS1998WRNO,2019-09-19-10-38-28,8,2,0.5625994245481354,right,both,ambiguous-stable,91,-5,left,right,0.202
HKS1998WRNO,2019-09-19-10-38-28,8,3,0.5263442807865577,right,probe,ambiguous-switch,-1,-10,right,right,0.3
HKS1998WRNO,2019-09-19-10-38-28,8,4,0.5781688705959374,right,both,ambiguous-switch,107,-10,right,right,0.222
HKS1998WRNO,2019-09-19-10-38-28,8,5,0.5793432345680483,right,probe,biased-switch,-1,30,right,right,0.302
HKS1998WRNO,2019-09-19-10-38-28,8,6,0.5206753914069344,right,both,biased-switch,95,30,right,left,0.222
HKS1998WRNO,2019-09-19-10-38-28,8,7,0.5588831741644156,left,probe,ambiguous-stable,-1,40,right,right,0.29
HKS1998WRNO,2019-09-19-10-38-28,8,8,0.5494402167217252,left,both,ambiguous-stable,95,40,left,right,1.47
HKS1998WRNO,2019-09-19-10-38-28,8,9,0.6996330858958734,left,probe,ambiguous-switch,-1,20,right,right,0.459
HKS1998WRNO,2019-09-19-10-38-28,8,10,0.5866253553859679,left,both,ambiguous-switch,109,20,right,left,0.252
HKS1998WRNO,2019-09-19-10-38-28,8,11,0.6007927931642307,left,probe,ambiguous-stable,-1,5,right,right,0.551
HKS1998WRNO,2019-09-19-10-38-28,8,12,0.624564240509148,left,both,ambiguous-stable,110,5,left,right,0.404
HKS1998WRNO,2019-09-19-10-38-28,8,13,0.6985002844909167,right,probe,ambiguous-switch,-1,40,right,right,0.413
HKS1998WRNO,2019-09-19-10-38-28,8,14,0.6505893020836666,right,both,ambiguous-switch,99,40,right,left,0.458
HKS1998WRNO,2019-09-19-10-38-28,8,15,0.5916853285404442,left,probe,ambiguous-switch,-1,-30,left,left,0.214
HKS1998WRNO,2019-09-19-10-38-28,8,16,0.6053199438649063,left,both,ambiguous-switch,95,-30,left,right,0.357
HKS1998WRNO,2019-09-19-10-38-28,8,17,0.5791964803788039,left,probe,ambiguous-switch,-1,-20,right,right,0.576
HKS1998WRNO,2019-09-19-10-38-28,8,18,0.58163712291314,left,both,ambiguous-switch,102,-20,right,left,0.612
HKS1998WRNO,2019-09-19-10-38-28,8,19,0.6744714421165011,left,probe,biased-switch,-1,5,left,left,0.289
HKS1998WRNO,2019-09-19-10-38-28,8,20,0.6030663381091496,left,both,biased-switch,98,5,left,right,0.301
HKS1998WRNO,2019-09-19-10-38-28,8,21,0.5569414160810262,right,probe,ambiguous-stable,-1,-30,left,left,0.484
HKS1998WRNO,2019-09-19-10-38-28,8,22,0.658505494123498,right,both,ambiguous-stable,98,-30,right,left,0.365
HKS1998WRNO,2019-09-19-10-38-28,8,23,0.5187668482380405,right,probe,ambiguous-switch,-1,-5,right,right,0.416
HKS1998WRNO,2019-09-19-10-38-28,8,24,0.6741884253218654,right,both,ambiguous-switch,90,-5,right,left,0.586
HKS1998WRNO,2019-09-19-10-38-28,8,25,0.6174182723316808,right,probe,biased-switch,-1,-5,left,left,0.446
HKS1998WRNO,2019-09-19-10-38-28,8,26,0.6628471167519889,right,both,biased-switch,108,-5,left,right,0.545
HKS1998WRNO,2019-09-19-10-38-28,8,27,0.6217674603234509,right,probe,ambiguous-stable,-1,0,left,left,0.22
HKS1998WRNO,2019-09-19-10-38-28,8,28,0.5712289808778901,right,both,ambiguous-stable,99,0,right,left,0.227
HKS1998WRNO,2019-09-19-10-38-28,8,29,0.509142953728233,right,probe,biased-switch,-1,-20,left,left,0.349
HKS1998WRNO,2019-09-19-10-38-28,8,30,0.6051006102431427,right,both,biased-switch,105,-20,left,right,0.815
HKS1998WRNO,2019-09-19-10-38-28,8,31,0.5643334925341537,right,probe,biased-switch,-1,-10,left,left,0.383
HKS1998WRNO,2019-09-19-10-38-28,8,32,0.6949790067049622,right,both,biased-switch,92,-10,left,left,0.371
HKS1998WRNO,2019-09-19-10-38-28,8,33,0.5319395093049311,left,probe,ambiguous-stable,-1,20,left,left,0.421
HKS1998WRNO,2019-09-19-10-38-28,8,34,0.6813133739361306,left,both,ambiguous-stable,93,20,right,left,0.442
HKS1998WRNO,2019-09-19-10-38-28,8,35,0.6343117528167033,left,probe,biased-switch,-1,20,left,left,0.348
HKS1998WRNO,2019-09-19-10-38-28,8,36,0.5703617920730103,left,both,biased-switch,105,20,left,right,0.253
HKS1998WRNO,2019-09-19-10-38-28,8,37,0.5066271801544829,left,probe,ambiguous-switch,-1,5,left,left,0.337
HKS1998WRNO,2019-09-19-10-38-28,8,38,0.5330364928291941,left,both,ambiguous-switch,95,5,left,right,1.993
HKS1998WRNO,2019-09-19-10-38-28,8,39,0.5716597368352198,right,probe,ambiguous-stable,-1,10,left,left,0.327
HKS1998WRNO,2019-09-19-10-38-28,8,40,0.658928712194831,right,both,ambiguous-stable,90,10,right,left,0.619
HKS1998WRNO,2019-09-19-10-38-28,8,41,0.6757136898985704,left,probe,biased-switch,-1,10,left,left,0.492
HKS1998WRNO,2019-09-19-10-38-28,8,42,0.6362567933700827,left,both,biased-switch,90,10,left,right,0.246
HKS1998WRNO,2019-09-19-10-38-28,8,43,0.6727948079188919,left,probe,ambiguous-switch,-1,0,left,left,0.205
HKS1998WRNO,2019-09-19-10-38-28,8,44,0.6088447076636931,left,both,ambiguous-switch,105,0,left,right,0.218
HKS1998WRNO,2019-09-19-10-38-28,8,45,0.5873625955038574,right,probe,ambiguous-switch,-1,30,left,left,0.265
HKS1998WRNO,2019-09-19-10-38-28,8,46,0.695937406277985,right,both,ambiguous-switch,104,30,left,left,0.216
HKS1998WRNO,2019-09-19-10-38-28,8,47,0.5445458627754639,left,probe,ambiguous-switch,-1,10,right,right,0.148
HKS1998WRNO,2019-09-19-10-38-28,8,48,0.6575852391733619,left,both,ambiguous-switch,96,10,right,left,0.24
HKS1998WRNO,2019-09-19-10-38-28,8,49,0.5136001422001554,right,probe,biased-switch,-1,0,left,left,0.698
HKS1998WRNO,2019-09-19-10-38-28,8,50,0.5340462332633539,right,both,biased-switch,98,0,left,right,0.232
HKS1998WRNO,2019-09-19-10-38-28,8,51,0.668476703550441,right,probe,ambiguous-stable,-1,-20,left,left,0.207
HKS1998WRNO,2019-09-19-10-38-28,8,52,0.5418073797691443,right,both,ambiguous-stable,101,-20,right,left,0.246
HKS1998WRNO,2019-09-19-10-38-28,8,53,0.6280582698385198,left,probe,ambiguous-stable,-1,30,right,right,0.271
HKS1998WRNO,2019-09-19-10-38-28,8,54,0.5030685835597484,left,both,ambiguous-stable,109,30,left,left,0.298
HKS1998WRNO,2019-09-19-10-38-28,8,55,0.5978861842357117,left,probe,biased-switch,-1,-30,left,left,0.225
HKS1998WRNO,2019-09-19-10-38-28,8,56,0.6750481254241976,left,both,biased-switch,95,-30,left,left,0.339
HKS1998WRNO,2019-09-19-10-38-28,8,57,0.5969282829487624,right,probe,biased-switch,-1,40,left,left,0.339
HKS1998WRNO,2019-09-19-10-38-28,8,58,0.6828147525462961,right,both,biased-switch,97,40,left,left,0.084
HKS1998WRNO,2019-09-19-10-38-28,8,59,0.6023416708770881,right,probe,ambiguous-stable,-1,-10,left,left,0.664
HKS1998WRNO,2019-09-19-10-38-28,8,60,0.6688066084324806,right,both,ambiguous-stable,100,-10,right,left,0.246
HKS1998WRNO,2019-09-19-10-38-28,9,1,0.6933102346478835,left,probe,ambiguous-switch,-1,0,left,left,0.235
HKS1998WRNO,2019-09-19-10-38-28,9,2,0.574187566722553,left,both,ambiguous-switch,94,0,left,right,0.251
HKS1998WRNO,2019-09-19-10-38-28,9,3,0.6284631446636052,left,probe,ambiguous-switch,-1,-30,left,left,0.283
HKS1998WRNO,2019-09-19-10-38-28,9,4,0.5772855282633889,left,both,ambiguous-switch,97,-30,left,left,0.235
HKS1998WRNO,2019-09-19-10-38-28,9,5,0.6983914920980031,left,probe,biased-switch,-1,-20,left,left,0.321
HKS1998WRNO,2019-09-19-10-38-28,9,6,0.6539633905738209,left,both,biased-switch,99,-20,left,left,0.314
HKS1998WRNO,2019-09-19-10-38-28,9,7,0.6255002997056928,left,probe,ambiguous-stable,-1,-5,left,left,0.415
HKS1998WRNO,2019-09-19-10-38-28,9,8,0.6082735700775707,left,both,ambiguous-stable,106,-5,right,left,0.212
HKS1998WRNO,2019-09-19-10-38-28,9,9,0.5575216227549974,left,probe,ambiguous-stable,-1,40,left,left,0.21
HKS1998WRNO,2019-09-19-10-38-28,9,10,0.5210991959571983,left,both,ambiguous-stable,109,40,right,left,0.231
HKS1998WRNO,2019-09-19-10-38-28,9,11,0.6836415921179194,right,probe,biased-switch,-1,40,left,left,0.318
HKS1998WRNO,2019-09-19-10-38-28,9,12,0.649774231596285,right,both,biased-switch,107,40,left,left,0.207
HKS1998WRNO,2019-09-19-10-38-28,9,13,0.5451072212330365,right,probe,ambiguous-switch,-1,40,left,left,0.24
HKS1998WRNO,2019-09-19-10-38-28,9,14,0.5528257756036665,right,both,ambiguous-switch,95,40,left,left,0.209
HKS1998WRNO,2019-09-19-10-38-28,9,15,0.5231177018739952,right,probe,ambiguous-stable,-1,30,left,left,0.433
HKS1998WRNO,2019-09-19-10-38-28,9,16,0.6813491660802717,right,both,ambiguous-stable,91,30,right,left,0.265
HKS1998WRNO,2019-09-19-10-38-28,9,17,0.69306753150998,right,probe,ambiguous-switch,-1,-5,left,left,0.517
HKS1998WRNO,2019-09-19-10-38-28,9,18,0.5965815479098765,right,both,ambiguous-switch,92,-5,left,left,0.269
HKS1998WRNO,2019-09-19-10-38-28,9,19,0.5810763639785077,left,probe,ambiguous-stable,-1,-30,left,left,0.273
HKS1998WRNO,2019-09-19-10-38-28,9,20,0.5463674652179454,left,both,ambiguous-stable,100,-30,right,left,0.488
HKS1998WRNO,2019-09-19-10-38-28,9,21,0.5736245093311931,right,probe,biased-switch,-1,-5,left,left,0.27
HKS1998WRNO,2019-09-19-10-38-28,9,22,0.5980770969595678,right,both,biased-switch,93,-5,left,left,0.257
HKS1998WRNO,2019-09-19-10-38-28,9,23,0.5743623454256186,right,probe,ambiguous-stable,-1,5,left,left,0.255
HKS1998WRNO,2019-09-19-10-38-28,9,24,0.543029185679391,right,both,ambiguous-stable,110,5,right,left,0.09
HKS1998WRNO,2019-09-19-10-38-28,9,25,0.6069077284501857,right,probe,ambiguous-stable,-1,-20,left,left,0.204
HKS1998WRNO,2019-09-19-10-38-28,9,26,0.523409470221025,right,both,ambiguous-stable,94,-20,right,left,0.21
HKS1998WRNO,2019-09-19-10-38-28,9,27,0.6530837851208066,right,probe,ambiguous-switch,-1,-10,left,left,0.11
HKS1998WRNO,2019-09-19-10-38-28,9,28,0.5527774444735495,right,both,ambiguous-switch,100,-10,left,left,0.053
HKS1998WRNO,2019-09-19-10-38-28,9,29,0.5022918003806471,right,probe,ambiguous-stable,-1,0,left,left,0.266
HKS1998WRNO,2019-09-19-10-38-28,9,30,0.6294060125909102,right,both,ambiguous-stable,109,0,right,left,0.264
HKS1998WRNO,2019-09-19-10-38-28,9,31,0.5013549111956904,right,probe,ambiguous-switch,-1,10,left,left,0.203
HKS1998WRNO,2019-09-19-10-38-28,9,32,0.6533396550892222,right,both,ambiguous-switch,91,10,left,right,0.121
HKS1998WRNO,2019-09-19-10-38-28,9,33,0.608941824863508,right,probe,biased-switch,-1,0,left,left,0.174
HKS1998WRNO,2019-09-19-10-38-28,9,34,0.5932584154437933,right,both,biased-switch,99,0,left,right,0.219
HKS1998WRNO,2019-09-19-10-38-28,9,35,0.6415099028470317,right,probe,ambiguous-switch,-1,-20,left,left,0.211
HKS1998WRNO,2019-09-19-10-38-28,9,36,0.5438112479578976,right,both,ambiguous-switch,108,-20,left,left,0.301
HKS1998WRNO,2019-09-19-10-38-28,9,37,0.5607504085062249,left,probe,ambiguous-switch,-1,30,left,left,0.487
HKS1998WRNO,2019-09-19-10-38-28,9,38,0.5480778847971151,left,both,ambiguous-switch,109,30,left,right,0.302
HKS1998WRNO,2019-09-19-10-38-28,9,39,0.5509513076921111,right,probe,biased-switch,-1,20,left,left,0.273
HKS1998WRNO,2019-09-19-10-38-28,9,40,0.5323661953359995,right,both,biased-switch,107,20,left,left,0.219
HKS1998WRNO,2019-09-19-10-38-28,9,41,0.5112975863378092,right,probe,biased-switch,-1,-10,left,left,0.293
HKS1998WRNO,2019-09-19-10-38-28,9,42,0.6333410666914445,right,both,biased-switch,103,-10,left,right,0.273
HKS1998WRNO,2019-09-19-10-38-28,9,43,0.5470070829070435,right,probe,ambiguous-switch,-1,5,left,left,0.296
HKS1998WRNO,2019-09-19-10-38-28,9,44,0.5951242209839281,right,both,ambiguous-switch,97,5,left,right,0.287
HKS1998WRNO,2019-09-19-10-38-28,9,45,0.5605640302959369,left,probe,ambiguous-stable,-1,20,left,left,0.214
HKS1998WRNO,2019-09-19-10-38-28,9,46,0.6677123975937918,left,both,ambiguous-stable,100,20,right,right,0.205
HKS1998WRNO,2019-09-19-10-38-28,9,47,0.5879990659786801,right,probe,biased-switch,-1,30,right,right,0.209
HKS1998WRNO,2019-09-19-10-38-28,9,48,0.5948645061761749,right,both,biased-switch,109,30,right,left,0.162
HKS1998WRNO,2019-09-19-10-38-28,9,49,0.5756010839513441,left,probe,ambiguous-stable,-1,-10,left,left,0.215
HKS1998WRNO,2019-09-19-10-38-28,9,50,0.6994184226698733,left,both,ambiguous-stable,97,-10,right,right,0.179
HKS1998WRNO,2019-09-19-10-38-28,9,51,0.647961720213004,left,probe,biased-switch,-1,10,left,left,0.226
HKS1998WRNO,2019-09-19-10-38-28,9,52,0.6345908959794978,left,both,biased-switch,93,10,left,right,0.198
HKS1998WRNO,2019-09-19-10-38-28,9,53,0.53467250070661,left,probe,biased-switch,-1,-30,right,right,0.206
HKS1998WRNO,2019-09-19-10-38-28,9,54,0.699337377668331,left,both,biased-switch,105,-30,right,right,0.198
HKS1998WRNO,2019-09-19-10-38-28,9,55,0.6590014285340038,left,probe,biased-switch,-1,5,right,right,0.126
HKS1998WRNO,2019-09-19-10-38-28,9,56,0.6852693350846124,left,both,biased-switch,106,5,right,left,0.255
HKS1998WRNO,2019-09-19-10-38-28,9,57,0.582259958712415,right,probe,ambiguous-switch,-1,20,left,left,0.12
HKS1998WRNO,2019-09-19-10-38-28,9,58,0.6597020542261375,right,both,ambiguous-switch,103,20,left,right,0.164
HKS1998WRNO,2019-09-19-10-38-28,9,59,0.6372768333538273,left,probe,ambiguous-stable,-1,10,left,left,0.255
HKS1998WRNO,2019-09-19-10-38-28,9,60,0.5827831272738165,left,both,ambiguous-stable,92,10,right,left,0.227
HKS1998WRNO,2019-09-19-10-38-28,10,1,0.6821500664870392,right,probe,ambiguous-switch,-1,-30,right,right,1.714
HKS1998WRNO,2019-09-19-10-38-28,10,2,0.5432947045200378,right,both,ambiguous-switch,104,-30,right,right,0.225
HKS1998WRNO,2019-09-19-10-38-28,10,3,0.5297939647452057,right,probe,ambiguous-switch,-1,30,right,right,0.291
HKS1998WRNO,2019-09-19-10-38-28,10,4,0.6514711128738194,right,both,ambiguous-switch,95,30,right,right,1.218
HKS1998WRNO,2019-09-19-10-38-28,10,5,0.5343342366191404,right,probe,biased-switch,-1,20,right,right,0.705
HKS1998WRNO,2019-09-19-10-38-28,10,6,0.6021778236237331,right,both,biased-switch,92,20,right,left,0.177
HKS1998WRNO,2019-09-19-10-38-28,10,7,0.5503437563163659,right,probe,ambiguous-switch,-1,0,right,right,0.276
HKS1998WRNO,2019-09-19-10-38-28,10,8,0.5277486238957227,right,both,ambiguous-switch,91,0,right,left,0.186
HKS1998WRNO,2019-09-19-10-38-28,10,9,0.6862041368740189,left,probe,biased-switch,-1,40,right,right,0.262
HKS1998WRNO,2019-09-19-10-38-28,10,10,0.6038300402704603,left,both,biased-switch,104,40,right,right,0.162
HKS1998WRNO,2019-09-19-10-38-28,10,11,0.6573831977997406,left,probe,ambiguous-switch,-1,10,right,right,0.19
HKS1998WRNO,2019-09-19-10-38-28,10,12,0.6576165001578107,left,both,ambiguous-switch,96,10,right,left,0.183
HKS1998WRNO,2019-09-19-10-38-28,10,13,0.6959088435620496,right,probe,biased-switch,-1,10,right,right,0.046
HKS1998WRNO,2019-09-19-10-38-28,10,14,0.569638663599811,right,both,biased-switch,96,10,right,left,0.212
HKS1998WRNO,2019-09-19-10-38-28,10,15,0.5459416147274032,left,probe,ambiguous-stable,-1,0,left,left,0.284
HKS1998WRNO,2019-09-19-10-38-28,10,16,0.6823378429746507,left,both,ambiguous-stable,98,0,right,left,0.168
HKS1998WRNO,2019-09-19-10-38-28,10,17,0.522260102678792,right,probe,biased-switch,-1,30,left,left,0.378
HKS1998WRNO,2019-09-19-10-38-28,10,18,0.5682020306083652,right,both,biased-switch,100,30,left,right,0.224
HKS1998WRNO,2019-09-19-10-38-28,10,19,0.5649220524235548,right,probe,biased-switch,-1,-5,right,right,0.481
HKS1998WRNO,2019-09-19-10-38-28,10,20,0.5478151738519647,right,both,biased-switch,103,-5,right,left,0.238
HKS1998WRNO,2019-09-19-10-38-28,10,21,0.6562478273204992,left,probe,ambiguous-switch,-1,20,left,left,0.303
HKS1998WRNO,2019-09-19-10-38-28,10,22,0.5905541772946897,left,both,ambiguous-switch,102,20,left,left,0.241
HKS1998WRNO,2019-09-19-10-38-28,10,23,0.6541026120713191,right,probe,biased-switch,-1,0,left,left,0.212
HKS1998WRNO,2019-09-19-10-38-28,10,24,0.5100352037477169,right,both,biased-switch,99,0,left,right,0.456
HKS1998WRNO,2019-09-19-10-38-28,10,25,0.555764904931052,right,probe,ambiguous-switch,-1,-5,right,right,0.381
HKS1998WRNO,2019-09-19-10-38-28,10,26,0.6560123053268265,right,both,ambiguous-switch,109,-5,right,right,0.832
HKS1998WRNO,2019-09-19-10-38-28,10,27,0.5670398366371563,left,probe,ambiguous-stable,-1,5,right,right,0.316
HKS1998WRNO,2019-09-19-10-38-28,10,28,0.532493228140039,left,both,ambiguous-stable,110,5,left,right,0.247
HKS1998WRNO,2019-09-19-10-38-28,10,29,0.6660611999491237,left,probe,ambiguous-switch,-1,-10,right,right,0.321
HKS1998WRNO,2019-09-19-10-38-28,10,30,0.6180378698596853,left,both,ambiguous-switch,92,-10,right,right,0.22
HKS1998WRNO,2019-09-19-10-38-28,10,31,0.5916663844689403,right,probe,biased-switch,-1,-10,right,right,0.24
HKS1998WRNO,2019-09-19-10-38-28,10,32,0.5257743214330671,right,both,biased-switch,90,-10,right,right,0.221
HKS1998WRNO,2019-09-19-10-38-28,10,33,0.621044035304443,right,probe,ambiguous-stable,-1,20,right,right,0.53
HKS1998WRNO,2019-09-19-10-38-28,10,34,0.5097161388766352,right,both,ambiguous-stable,95,20,left,left,0.277
HKS1998WRNO,2019-09-19-10-38-28,10,35,0.5338948726825806,left,probe,ambiguous-switch,-1,5,right,right,0.201
HKS1998WRNO,2019-09-19-10-38-28,10,36,0.6928649776811395,left,both,ambiguous-switch,100,5,right,right,0.213
HKS1998WRNO,2019-09-19-10-38-28,10,37,0.5405016070419031,right,probe,ambiguous-stable,-1,-5,right,right,0.531
HKS1998WRNO,2019-09-19-10-38-28,10,38,0.6742060592722606,right,both,ambiguous-stable,101,-5,left,left,0.275
HKS1998WRNO,2019-09-19-10-38-28,10,39,0.5586945627809456,right,probe,ambiguous-stable,-1,10,right,right,0.315
HKS1998WRNO,2019-09-19-10-38-28,10,40,0.5236154990883783,right,both,ambiguous-stable,94,10,left,left,0.221
HKS1998WRNO,2019-09-19-10-38-28,10,41,0.5365691560748065,right,probe,biased-switch,-1,-20,right,right,0.251
HKS1998WRNO,2019-09-19-10-38-28,10,42,0.6083857665609036,right,both,biased-switch,99,-20,right,right,0.251
HKS1998WRNO,2019-09-19-10-38-28,10,43,0.5641974504662128,left,probe,ambiguous-stable,-1,30,right,right,0.261
HKS1998WRNO,2019-09-19-10-38-28,10,44,0.635690432945141,left,both,ambiguous-stable,98,30,left,right,1.21
HKS1998WRNO,2019-09-19-10-38-28,10,45,0.6399856314482273,right,probe,ambiguous-switch,-1,-20,left,left,0.237
HKS1998WRNO,2019-09-19-10-38-28,10,46,0.6025592865884286,right,both,ambiguous-switch,98,-20,left,left,0.229
HKS1998WRNO,2019-09-19-10-38-28,10,47,0.5614054557408737,left,probe,ambiguous-stable,-1,-30,left,left,0.238
HKS1998WRNO,2019-09-19-10-38-28,10,48,0.6510554421555752,left,both,ambiguous-stable,105,-30,right,right,0.407
HKS1998WRNO,2019-09-19-10-38-28,10,49,0.6396567042737686,left,probe,ambiguous-stable,-1,40,left,left,0.191
HKS1998WRNO,2019-09-19-10-38-28,10,50,0.5261217374840251,left,both,ambiguous-stable,94,40,right,left,0.185
HKS1998WRNO,2019-09-19-10-38-28,10,51,0.6184510996913741,left,probe,ambiguous-stable,-1,-20,left,left,0.336
HKS1998WRNO,2019-09-19-10-38-28,10,52,0.6728604539307522,left,both,ambiguous-stable,101,-20,right,right,0.224
HKS1998WRNO,2019-09-19-10-38-28,10,53,0.5231415922485515,right,probe,biased-switch,-1,-30,right,right,0.445
HKS1998WRNO,2019-09-19-10-38-28,10,54,0.5748045273828863,right,both,biased-switch,101,-30,right,right,0.296
HKS1998WRNO,2019-09-19-10-38-28,10,55,0.6458870238294407,left,probe,ambiguous-stable,-1,-10,right,right,0.271
HKS1998WRNO,2019-09-19-10-38-28,10,56,0.5780036254006955,left,both,ambiguous-stable,100,-10,left,right,0.225
HKS1998WRNO,2019-09-19-10-38-28,10,57,0.5449623015845786,left,probe,biased-switch,-1,5,right,right,0.256
HKS1998WRNO,2019-09-19-10-38-28,10,58,0.5148325985409856,left,both,biased-switch,91,5,right,left,0.264
HKS1998WRNO,2019-09-19-10-38-28,10,59,0.6068256172132064,left,probe,ambiguous-switch,-1,40,right,right,0.237
HKS1998WRNO,2019-09-19-10-38-28,10,60,0.5681194070767693,left,both,ambiguous-switch,95,40,right,right,0.214
