Participant,Session,Block,Trial,OnsetDelay,ProbeLocation,WhatIsReported,Condition,TriggerTime,ProbeSOA,PrimeDirection,Response,RT
SAM1990WRNO,2020-01-27-12-01-45,1,1,0.5873649913507906,right,probe,biased-switch,-1,-18,right,right,0.689
SAM1990WRNO,2020-01-27-12-01-45,1,2,0.5289473375005405,right,both,biased-switch,65,-18,right,right,0.323
SAM1990WRNO,2020-01-27-12-01-45,1,3,0.6048845374843588,right,probe,biased-switch,-1,12,right,right,0.685
SAM1990WRNO,2020-01-27-12-01-45,1,4,0.5275035922325655,right,both,biased-switch,58,12,right,right,0.275
SAM1990WRNO,2020-01-27-12-01-45,1,5,0.6611812162197312,left,probe,biased-switch,-1,-6,left,left,0.466
SAM1990WRNO,2020-01-27-12-01-45,1,6,0.5269376750976041,left,both,biased-switch,59,-6,left,left,0.218
SAM1990WRNO,2020-01-27-12-01-45,1,7,0.626615982140398,right,probe,biased-switch,-1,18,right,right,0.42
SAM1990WRNO,2020-01-27-12-01-45,1,8,0.5318814051341634,right,both,biased-switch,60,18,right,right,0.221
SAM1990WRNO,2020-01-27-12-01-45,1,9,0.6002617044857884,right,probe,ambiguous-switch,-1,-3,right,right,0.381
SAM1990WRNO,2020-01-27-12-01-45,1,10,0.5248087675148704,right,both,ambiguous-switch,64,-3,right,right,0.214
SAM1990WRNO,2020-01-27-12-01-45,1,11,0.664729817921341,right,probe,ambiguous-switch,-1,0,right,right,0.297
SAM1990WRNO,2020-01-27-12-01-45,1,12,0.6806497267052292,right,both,ambiguous-switch,63,0,right,right,0.252
SAM1990WRNO,2020-01-27-12-01-45,1,13,0.632535517818772,left,probe,ambiguous-switch,-1,18,left,left,0.256
SAM1990WRNO,2020-01-27-12-01-45,1,14,0.5945277362920429,left,both,ambiguous-switch,61,18,left,left,0.225
SAM1990WRNO,2020-01-27-12-01-45,1,15,0.5736021616269178,left,probe,biased-switch,-1,24,left,left,0.457
SAM1990WRNO,2020-01-27-12-01-45,1,16,0.6493611487094821,left,both,biased-switch,65,24,left,left,0.273
SAM1990WRNO,2020-01-27-12-01-45,1,17,0.633136279802359,right,probe,ambiguous-switch,-1,-6,right,right,0.452
SAM1990WRNO,2020-01-27-12-01-45,1,18,0.5484224776905704,right,both,ambiguous-switch,56,-6,right,right,0.252
SAM1990WRNO,2020-01-27-12-01-45,1,19,0.6179376517304119,left,probe,ambiguous-switch,-1,-12,left,left,0.366
SAM1990WRNO,2020-01-27-12-01-45,1,20,0.6120434241378201,left,both,ambiguous-switch,59,-12,left,left,0.34
SAM1990WRNO,2020-01-27-12-01-45,1,21,0.5897616668868617,left,probe,ambiguous-switch,-1,-18,left,left,0.454
SAM1990WRNO,2020-01-27-12-01-45,1,22,0.6842699872448218,left,both,ambiguous-switch,65,-18,left,left,0.263
SAM1990WRNO,2020-01-27-12-01-45,1,23,0.6180069116452562,left,probe,biased-switch,-1,-3,left,left,0.477
SAM1990WRNO,2020-01-27-12-01-45,1,24,0.5630702661863766,left,both,biased-switch,56,-3,left,left,0.212
SAM1990WRNO,2020-01-27-12-01-45,1,25,0.6050216007812946,right,probe,ambiguous-switch,-1,6,right,right,0.436
SAM1990WRNO,2020-01-27-12-01-45,1,26,0.6594194254875132,right,both,ambiguous-switch,63,6,right,right,0.206
SAM1990WRNO,2020-01-27-12-01-45,1,27,0.5873312259349047,right,probe,ambiguous-switch,-1,12,right,right,0.341
SAM1990WRNO,2020-01-27-12-01-45,1,28,0.5656466530850922,right,both,ambiguous-switch,61,12,right,right,0.243
SAM1990WRNO,2020-01-27-12-01-45,1,29,0.6471713154192338,left,probe,biased-switch,-1,0,left,left,0.415
SAM1990WRNO,2020-01-27-12-01-45,1,30,0.6973391422885709,left,both,biased-switch,61,0,left,left,0.199
SAM1990WRNO,2020-01-27-12-01-45,1,31,0.6414905081589213,left,probe,ambiguous-switch,-1,3,left,left,0.269
SAM1990WRNO,2020-01-27-12-01-45,1,32,0.546371507229459,left,both,ambiguous-switch,56,3,left,left,0.227
SAM1990WRNO,2020-01-27-12-01-45,1,33,0.5614663649811619,right,probe,biased-switch,-1,-12,right,right,0.383
SAM1990WRNO,2020-01-27-12-01-45,1,34,0.6028151881984476,right,both,biased-switch,64,-12,right,right,0.265
SAM1990WRNO,2020-01-27-12-01-45,1,35,0.5770095689123338,right,probe,biased-switch,-1,6,right,right,0.494
SAM1990WRNO,2020-01-27-12-01-45,1,36,0.5766940916225851,right,both,biased-switch,56,6,right,right,0.233
SAM1990WRNO,2020-01-27-12-01-45,1,37,0.5250246344671271,left,probe,biased-switch,-1,3,left,left,0.307
SAM1990WRNO,2020-01-27-12-01-45,1,38,0.5744968867017386,left,both,biased-switch,56,3,left,left,0.232
SAM1990WRNO,2020-01-27-12-01-45,1,39,0.6002494816307771,right,probe,ambiguous-switch,-1,24,right,right,0.239
SAM1990WRNO,2020-01-27-12-01-45,1,40,0.6148213870906395,right,both,ambiguous-switch,62,24,right,right,0.298
SAM1990WRNO,2020-01-27-12-01-45,1,41,0.6109686126142698,left,probe,biased-switch,-1,-18,left,left,0.256
SAM1990WRNO,2020-01-27-12-01-45,1,42,0.6708154806050295,left,both,biased-switch,60,-18,left,left,0.214
SAM1990WRNO,2020-01-27-12-01-45,1,43,0.5832169588986794,right,probe,biased-switch,-1,12,right,right,0.217
SAM1990WRNO,2020-01-27-12-01-45,1,44,0.678884525621287,right,both,biased-switch,62,12,right,right,0.183
SAM1990WRNO,2020-01-27-12-01-45,1,45,0.6330288764714789,left,probe,biased-switch,-1,-6,left,left,0.236
SAM1990WRNO,2020-01-27-12-01-45,1,46,0.5962167062461737,left,both,biased-switch,63,-6,left,left,0.229
SAM1990WRNO,2020-01-27-12-01-45,1,47,0.6629860568779359,left,probe,biased-switch,-1,18,left,left,0.403
SAM1990WRNO,2020-01-27-12-01-45,1,48,0.6598861067304334,left,both,biased-switch,57,18,left,left,0.2
SAM1990WRNO,2020-01-27-12-01-45,1,49,0.5813976759103014,left,probe,ambiguous-switch,-1,-3,left,left,0.37
SAM1990WRNO,2020-01-27-12-01-45,1,50,0.6176706249382773,left,both,ambiguous-switch,65,-3,left,left,0.182
SAM1990WRNO,2020-01-27-12-01-45,1,51,0.5091482113426947,left,probe,ambiguous-switch,-1,0,left,left,0.246
SAM1990WRNO,2020-01-27-12-01-45,1,52,0.610421545026343,left,both,ambiguous-switch,65,0,left,left,0.193
SAM1990WRNO,2020-01-27-12-01-45,1,53,0.5120816960127582,left,probe,ambiguous-switch,-1,18,left,left,0.353
SAM1990WRNO,2020-01-27-12-01-45,1,54,0.5610643084726256,left,both,ambiguous-switch,57,18,left,left,0.302
SAM1990WRNO,2020-01-27-12-01-45,1,55,0.6822347419490365,left,probe,biased-switch,-1,24,left,left,0.94
SAM1990WRNO,2020-01-27-12-01-45,1,56,0.6354041544004616,left,both,biased-switch,63,24,left,left,0.222
SAM1990WRNO,2020-01-27-12-01-45,1,57,0.5458485481223033,left,probe,ambiguous-switch,-1,-6,left,left,0.5
SAM1990WRNO,2020-01-27-12-01-45,1,58,0.5436518941815527,left,both,ambiguous-switch,57,-6,left,left,0.246
SAM1990WRNO,2020-01-27-12-01-45,1,59,0.5181589882070962,right,probe,ambiguous-switch,-1,-12,right,right,0.33
SAM1990WRNO,2020-01-27-12-01-45,1,60,0.6919718372193653,right,both,ambiguous-switch,56,-12,right,right,0.314
SAM1990WRNO,2020-01-27-12-01-45,1,61,0.6175753675128364,right,probe,ambiguous-switch,-1,-18,right,right,0.469
SAM1990WRNO,2020-01-27-12-01-45,1,62,0.5445590073089821,right,both,ambiguous-switch,58,-18,right,right,0.219
SAM1990WRNO,2020-01-27-12-01-45,1,63,0.6501001964318712,right,probe,biased-switch,-1,-3,right,right,0.328
SAM1990WRNO,2020-01-27-12-01-45,1,64,0.5966140691691799,right,both,biased-switch,57,-3,right,right,0.266
SAM1990WRNO,2020-01-27-12-01-45,1,65,0.5532067644730976,left,probe,ambiguous-switch,-1,6,left,left,0.402
SAM1990WRNO,2020-01-27-12-01-45,1,66,0.5098488484161179,left,both,ambiguous-switch,59,6,left,left,0.19
SAM1990WRNO,2020-01-27-12-01-45,1,67,0.5077580658007268,left,probe,ambiguous-switch,-1,12,left,left,0.267
SAM1990WRNO,2020-01-27-12-01-45,1,68,0.696450068362473,left,both,ambiguous-switch,55,12,left,left,0.115
SAM1990WRNO,2020-01-27-12-01-45,1,69,0.695829895269565,left,probe,biased-switch,-1,0,left,left,0.235
SAM1990WRNO,2020-01-27-12-01-45,1,70,0.57575995906282,left,both,biased-switch,58,0,left,left,0.269
SAM1990WRNO,2020-01-27-12-01-45,1,71,0.5342651743780238,right,probe,ambiguous-switch,-1,3,right,right,0.355
SAM1990WRNO,2020-01-27-12-01-45,1,72,0.57860594796783,right,both,ambiguous-switch,64,3,right,right,0.237
SAM1990WRNO,2020-01-27-12-01-45,1,73,0.6641085657574977,right,probe,biased-switch,-1,-12,right,right,0.251
SAM1990WRNO,2020-01-27-12-01-45,1,74,0.517693857659232,right,both,biased-switch,55,-12,right,right,0.197
SAM1990WRNO,2020-01-27-12-01-45,1,75,0.6059975534975254,left,probe,biased-switch,-1,6,left,left,0.263
SAM1990WRNO,2020-01-27-12-01-45,1,76,0.6551264896411806,left,both,biased-switch,59,6,left,left,0.295
SAM1990WRNO,2020-01-27-12-01-45,1,77,0.5184348118406921,right,probe,biased-switch,-1,3,right,right,0.268
SAM1990WRNO,2020-01-27-12-01-45,1,78,0.6519143986423181,right,both,biased-switch,66,3,right,right,0.212
SAM1990WRNO,2020-01-27-12-01-45,1,79,0.6844174056546108,right,probe,ambiguous-switch,-1,24,right,right,0.348
SAM1990WRNO,2020-01-27-12-01-45,1,80,0.6677685885526101,right,both,ambiguous-switch,64,24,right,right,0.215
SAM1990WRNO,2020-01-27-12-01-45,2,1,0.506302389247006,right,probe,ambiguous-switch,-1,24,right,right,0.4
SAM1990WRNO,2020-01-27-12-01-45,2,2,0.5377776130716545,right,both,ambiguous-switch,63,24,right,right,0.21
SAM1990WRNO,2020-01-27-12-01-45,2,3,0.6808678134092899,left,probe,ambiguous-switch,-1,6,left,left,0.642
SAM1990WRNO,2020-01-27-12-01-45,2,4,0.5611671004236378,left,both,ambiguous-switch,54,6,left,left,0.211
SAM1990WRNO,2020-01-27-12-01-45,2,5,0.629938235059969,right,probe,ambiguous-switch,-1,-6,right,right,0.372
SAM1990WRNO,2020-01-27-12-01-45,2,6,0.6300697179948489,right,both,ambiguous-switch,59,-6,right,right,0.07
SAM1990WRNO,2020-01-27-12-01-45,2,7,0.5168966317239976,right,probe,biased-switch,-1,24,right,right,0.265
SAM1990WRNO,2020-01-27-12-01-45,2,8,0.6429097485512378,right,both,biased-switch,59,24,right,right,0.019
SAM1990WRNO,2020-01-27-12-01-45,2,9,0.5398414452760949,right,probe,ambiguous-switch,-1,0,right,right,0.219
SAM1990WRNO,2020-01-27-12-01-45,2,10,0.5179488616478153,right,both,ambiguous-switch,59,0,right,right,0.055
SAM1990WRNO,2020-01-27-12-01-45,2,11,0.553927546695077,left,probe,biased-switch,-1,6,left,left,0.27
SAM1990WRNO,2020-01-27-12-01-45,2,12,0.6588845955296035,left,both,biased-switch,62,6,left,left,0.208
SAM1990WRNO,2020-01-27-12-01-45,2,13,0.6769039980556932,right,probe,biased-switch,-1,0,right,right,0.326
SAM1990WRNO,2020-01-27-12-01-45,2,14,0.6464854940560184,right,both,biased-switch,56,0,right,right,0.224
SAM1990WRNO,2020-01-27-12-01-45,2,15,0.5608740217961372,right,probe,biased-switch,-1,18,right,right,0.269
SAM1990WRNO,2020-01-27-12-01-45,2,16,0.540742772071799,right,both,biased-switch,61,18,right,right,0.2
SAM1990WRNO,2020-01-27-12-01-45,2,17,0.6056440149857879,left,probe,ambiguous-switch,-1,-12,left,left,0.21
SAM1990WRNO,2020-01-27-12-01-45,2,18,0.5039877811841224,left,both,ambiguous-switch,56,-12,left,left,0.236
SAM1990WRNO,2020-01-27-12-01-45,2,19,0.5281578990405044,left,probe,biased-switch,-1,-12,left,left,0.324
SAM1990WRNO,2020-01-27-12-01-45,2,20,0.5002360658260276,left,both,biased-switch,65,-12,left,left,0.212
SAM1990WRNO,2020-01-27-12-01-45,2,21,0.6607799281628699,right,probe,biased-switch,-1,3,right,right,0.284
SAM1990WRNO,2020-01-27-12-01-45,2,22,0.6175611781999003,right,both,biased-switch,56,3,right,right,0.221
SAM1990WRNO,2020-01-27-12-01-45,2,23,0.6336034973825957,left,probe,ambiguous-switch,-1,12,left,left,0.218
SAM1990WRNO,2020-01-27-12-01-45,2,24,0.5331810480297464,left,both,ambiguous-switch,58,12,left,left,0.234
SAM1990WRNO,2020-01-27-12-01-45,2,25,0.6968989598598315,left,probe,biased-switch,-1,12,left,left,0.342
SAM1990WRNO,2020-01-27-12-01-45,2,26,0.5392327835499341,left,both,biased-switch,65,12,left,left,0.231
SAM1990WRNO,2020-01-27-12-01-45,2,27,0.5121943074969585,right,probe,ambiguous-switch,-1,18,right,right,0.241
SAM1990WRNO,2020-01-27-12-01-45,2,28,0.5220903683266158,right,both,ambiguous-switch,62,18,right,right,0.213
SAM1990WRNO,2020-01-27-12-01-45,2,29,0.5215816961300097,right,probe,biased-switch,-1,-6,right,right,0.195
SAM1990WRNO,2020-01-27-12-01-45,2,30,0.5911160398610019,right,both,biased-switch,66,-6,right,right,0.199
SAM1990WRNO,2020-01-27-12-01-45,2,31,0.6742712569093011,right,probe,ambiguous-switch,-1,-3,right,right,0.26
SAM1990WRNO,2020-01-27-12-01-45,2,32,0.613252198868708,right,both,ambiguous-switch,66,-3,right,right,0.174
SAM1990WRNO,2020-01-27-12-01-45,2,33,0.5128042052586798,right,probe,ambiguous-switch,-1,3,right,right,0.208
SAM1990WRNO,2020-01-27-12-01-45,2,34,0.6668908066636486,right,both,ambiguous-switch,57,3,right,right,0.181
SAM1990WRNO,2020-01-27-12-01-45,2,35,0.6241569268496636,left,probe,ambiguous-switch,-1,-18,left,left,0.228
SAM1990WRNO,2020-01-27-12-01-45,2,36,0.5498793546622021,left,both,ambiguous-switch,66,-18,left,left,0.284
SAM1990WRNO,2020-01-27-12-01-45,2,37,0.5451889894250557,left,probe,biased-switch,-1,-18,left,left,0.229
SAM1990WRNO,2020-01-27-12-01-45,2,38,0.6809970259072915,left,both,biased-switch,61,-18,left,left,0.206
SAM1990WRNO,2020-01-27-12-01-45,2,39,0.626379866966257,right,probe,biased-switch,-1,-3,right,right,0.241
SAM1990WRNO,2020-01-27-12-01-45,2,40,0.6001553134455366,right,both,biased-switch,63,-3,right,right,0.194
SAM1990WRNO,2020-01-27-12-01-45,2,41,0.5734445631633286,left,probe,ambiguous-switch,-1,24,left,left,0.214
SAM1990WRNO,2020-01-27-12-01-45,2,42,0.6838113170631392,left,both,ambiguous-switch,54,24,left,left,0.204
SAM1990WRNO,2020-01-27-12-01-45,2,43,0.5423900025282118,right,probe,ambiguous-switch,-1,6,right,right,0.214
SAM1990WRNO,2020-01-27-12-01-45,2,44,0.5674956445660055,right,both,ambiguous-switch,62,6,right,right,0.218
SAM1990WRNO,2020-01-27-12-01-45,2,45,0.6899073486513663,right,probe,ambiguous-switch,-1,-6,right,right,0.218
SAM1990WRNO,2020-01-27-12-01-45,2,46,0.6974463063999068,right,both,ambiguous-switch,65,-6,right,right,0.342
SAM1990WRNO,2020-01-27-12-01-45,2,47,0.5096578831730711,left,probe,biased-switch,-1,24,left,left,0.204
SAM1990WRNO,2020-01-27-12-01-45,2,48,0.5042629942609868,left,both,biased-switch,58,24,left,left,0.213
SAM1990WRNO,2020-01-27-12-01-45,2,49,0.58757224564234,right,probe,ambiguous-switch,-1,0,right,right,0.17
SAM1990WRNO,2020-01-27-12-01-45,2,50,0.5138628156581727,right,both,ambiguous-switch,59,0,right,right,0.217
SAM1990WRNO,2020-01-27-12-01-45,2,51,0.6862392588121199,left,probe,biased-switch,-1,6,left,left,0.181
SAM1990WRNO,2020-01-27-12-01-45,2,52,0.6567107434713667,left,both,biased-switch,57,6,left,left,0.218
SAM1990WRNO,2020-01-27-12-01-45,2,53,0.5400770034215064,left,probe,biased-switch,-1,0,left,left,0.227
SAM1990WRNO,2020-01-27-12-01-45,2,54,0.6737530402349872,left,both,biased-switch,63,0,left,left,0.198
SAM1990WRNO,2020-01-27-12-01-45,2,55,0.6437636146421092,right,probe,biased-switch,-1,18,right,right,0.292
SAM1990WRNO,2020-01-27-12-01-45,2,56,0.6305259766009971,right,both,biased-switch,60,18,right,right,0.234
SAM1990WRNO,2020-01-27-12-01-45,2,57,0.5048282965039979,left,probe,ambiguous-switch,-1,-12,left,left,0.449
SAM1990WRNO,2020-01-27-12-01-45,2,58,0.5652583871627598,left,both,ambiguous-switch,61,-12,left,left,0.424
SAM1990WRNO,2020-01-27-12-01-45,2,59,0.5835479195443053,left,probe,biased-switch,-1,-12,left,left,0.43
SAM1990WRNO,2020-01-27-12-01-45,2,60,0.5047173740775182,left,both,biased-switch,55,-12,left,left,0.217
SAM1990WRNO,2020-01-27-12-01-45,2,61,0.6352469145981586,right,probe,biased-switch,-1,3,right,right,0.188
SAM1990WRNO,2020-01-27-12-01-45,2,62,0.5110835799668166,right,both,biased-switch,63,3,right,right,0.123
SAM1990WRNO,2020-01-27-12-01-45,2,63,0.6076246563670729,left,probe,ambiguous-switch,-1,12,left,left,0.253
SAM1990WRNO,2020-01-27-12-01-45,2,64,0.5891756998971702,left,both,ambiguous-switch,60,12,left,left,0.156
SAM1990WRNO,2020-01-27-12-01-45,2,65,0.6957830695624738,right,probe,biased-switch,-1,12,right,right,0.175
SAM1990WRNO,2020-01-27-12-01-45,2,66,0.6896457911138815,right,both,biased-switch,61,12,right,right,0.156
SAM1990WRNO,2020-01-27-12-01-45,2,67,0.6193604561597407,left,probe,ambiguous-switch,-1,18,left,left,0.337
SAM1990WRNO,2020-01-27-12-01-45,2,68,0.643143411952931,left,both,ambiguous-switch,65,18,left,left,0.177
SAM1990WRNO,2020-01-27-12-01-45,2,69,0.6154740746542389,right,probe,biased-switch,-1,-6,right,right,0.315
SAM1990WRNO,2020-01-27-12-01-45,2,70,0.5897700654643584,right,both,biased-switch,63,-6,right,right,0.204
SAM1990WRNO,2020-01-27-12-01-45,2,71,0.5708310435902629,right,probe,ambiguous-switch,-1,-3,right,right,0.195
SAM1990WRNO,2020-01-27-12-01-45,2,72,0.5418545003331747,right,both,ambiguous-switch,58,-3,right,right,0.114
SAM1990WRNO,2020-01-27-12-01-45,2,73,0.5712433499799862,right,probe,ambiguous-switch,-1,3,right,right,0.198
SAM1990WRNO,2020-01-27-12-01-45,2,74,0.5631351275551006,right,both,ambiguous-switch,54,3,right,right,0.177
SAM1990WRNO,2020-01-27-12-01-45,2,75,0.6736440632220101,right,probe,ambiguous-switch,-1,-18,right,right,0.199
SAM1990WRNO,2020-01-27-12-01-45,2,76,0.6007838964150642,right,both,ambiguous-switch,58,-18,right,right,0.204
SAM1990WRNO,2020-01-27-12-01-45,2,77,0.59812497904624,right,probe,biased-switch,-1,-18,right,right,0.202
SAM1990WRNO,2020-01-27-12-01-45,2,78,0.6547467147270091,right,both,biased-switch,57,-18,right,right,0.475
SAM1990WRNO,2020-01-27-12-01-45,2,79,0.6527486496600203,left,probe,biased-switch,-1,-3,left,left,0.221
SAM1990WRNO,2020-01-27-12-01-45,2,80,0.5210015446401521,left,both,biased-switch,58,-3,left,left,0.239
SAM1990WRNO,2020-01-27-12-01-45,3,1,0.6762259643076568,left,probe,ambiguous-switch,-1,12,left,left,0.202
SAM1990WRNO,2020-01-27-12-01-45,3,2,0.6297087144129873,left,both,ambiguous-switch,57,12,left,left,0.21
SAM1990WRNO,2020-01-27-12-01-45,3,3,0.5974110702226318,right,probe,biased-switch,-1,0,right,right,0.242
SAM1990WRNO,2020-01-27-12-01-45,3,4,0.6231877526836483,right,both,biased-switch,60,0,right,right,0.218
SAM1990WRNO,2020-01-27-12-01-45,3,5,0.5207933706402891,right,probe,ambiguous-switch,-1,-12,right,right,0.395
SAM1990WRNO,2020-01-27-12-01-45,3,6,0.5426481353804553,right,both,ambiguous-switch,62,-12,right,right,0.241
SAM1990WRNO,2020-01-27-12-01-45,3,7,0.6936153009426379,left,probe,ambiguous-switch,-1,18,left,left,0.23
SAM1990WRNO,2020-01-27-12-01-45,3,8,0.5489513769441654,left,both,ambiguous-switch,65,18,left,left,0.237
SAM1990WRNO,2020-01-27-12-01-45,3,9,0.5986152331724985,left,probe,biased-switch,-1,12,left,left,0.311
SAM1990WRNO,2020-01-27-12-01-45,3,10,0.6789103544415599,left,both,biased-switch,60,12,left,left,0.19
SAM1990WRNO,2020-01-27-12-01-45,3,11,0.5418090404559849,right,probe,biased-switch,-1,24,right,right,0.341
SAM1990WRNO,2020-01-27-12-01-45,3,12,0.5356273865142402,right,both,biased-switch,64,24,right,right,0.184
SAM1990WRNO,2020-01-27-12-01-45,3,13,0.5970536252696131,right,probe,ambiguous-switch,-1,0,right,right,0.352
SAM1990WRNO,2020-01-27-12-01-45,3,14,0.5494990346783521,right,both,ambiguous-switch,55,0,right,right,0.197
SAM1990WRNO,2020-01-27-12-01-45,3,15,0.5012387409915363,left,probe,biased-switch,-1,3,left,left,0.245
SAM1990WRNO,2020-01-27-12-01-45,3,16,0.6019639484769267,left,both,biased-switch,58,3,left,left,0.227
SAM1990WRNO,2020-01-27-12-01-45,3,17,0.5819428915794589,right,probe,biased-switch,-1,-3,right,right,0.332
SAM1990WRNO,2020-01-27-12-01-45,3,18,0.6949825833945165,right,both,biased-switch,60,-3,right,right,0.216
SAM1990WRNO,2020-01-27-12-01-45,3,19,0.6363322842807565,right,probe,ambiguous-switch,-1,-3,right,right,0.36
SAM1990WRNO,2020-01-27-12-01-45,3,20,0.6637879756437377,right,both,ambiguous-switch,61,-3,right,right,0.226
SAM1990WRNO,2020-01-27-12-01-45,3,21,0.5995743759504052,right,probe,ambiguous-switch,-1,-18,right,right,0.267
SAM1990WRNO,2020-01-27-12-01-45,3,22,0.5764335259679191,right,both,ambiguous-switch,64,-18,right,right,0.211
SAM1990WRNO,2020-01-27-12-01-45,3,23,0.5028157637331425,right,probe,biased-switch,-1,-18,right,right,0.328
SAM1990WRNO,2020-01-27-12-01-45,3,24,0.6449253556412768,right,both,biased-switch,58,-18,right,right,0.089
SAM1990WRNO,2020-01-27-12-01-45,3,25,0.6288773579491613,right,probe,biased-switch,-1,18,right,right,0.22
SAM1990WRNO,2020-01-27-12-01-45,3,26,0.6383926598242388,right,both,biased-switch,62,18,right,right,0.179
SAM1990WRNO,2020-01-27-12-01-45,3,27,0.5260593001545529,right,probe,biased-switch,-1,-12,right,right,0.342
SAM1990WRNO,2020-01-27-12-01-45,3,28,0.6325016195533206,right,both,biased-switch,63,-12,right,right,0.234
SAM1990WRNO,2020-01-27-12-01-45,3,29,0.5532650419418268,right,probe,ambiguous-switch,-1,6,right,right,0.224
SAM1990WRNO,2020-01-27-12-01-45,3,30,0.6428962332665409,right,both,ambiguous-switch,58,6,right,right,0.229
SAM1990WRNO,2020-01-27-12-01-45,3,31,0.5642166836888652,left,probe,ambiguous-switch,-1,-6,left,left,0.237
SAM1990WRNO,2020-01-27-12-01-45,3,32,0.654616535807695,left,both,ambiguous-switch,60,-6,left,left,0.228
SAM1990WRNO,2020-01-27-12-01-45,3,33,0.5879428579906798,right,probe,biased-switch,-1,6,right,right,0.309
SAM1990WRNO,2020-01-27-12-01-45,3,34,0.5322897051373717,right,both,biased-switch,54,6,right,right,0.066
SAM1990WRNO,2020-01-27-12-01-45,3,35,0.6489113543065658,right,probe,ambiguous-switch,-1,3,right,right,0.216
SAM1990WRNO,2020-01-27-12-01-45,3,36,0.6172537732532775,right,both,ambiguous-switch,61,3,right,right,0.216
SAM1990WRNO,2020-01-27-12-01-45,3,37,0.5363630160467638,right,probe,ambiguous-switch,-1,24,right,right,0.256
SAM1990WRNO,2020-01-27-12-01-45,3,38,0.604913407704519,right,both,ambiguous-switch,59,24,right,right,0.45
SAM1990WRNO,2020-01-27-12-01-45,3,39,0.5216966322385985,left,probe,biased-switch,-1,-6,left,left,0.226
SAM1990WRNO,2020-01-27-12-01-45,3,40,0.5424701688022763,left,both,biased-switch,64,-6,left,left,0.233
SAM1990WRNO,2020-01-27-12-01-45,3,41,0.5089197949751542,right,probe,ambiguous-switch,-1,12,right,right,0.263
SAM1990WRNO,2020-01-27-12-01-45,3,42,0.5514019119972229,right,both,ambiguous-switch,61,12,right,right,0.206
SAM1990WRNO,2020-01-27-12-01-45,3,43,0.6623255588511413,right,probe,biased-switch,-1,0,right,right,0.323
SAM1990WRNO,2020-01-27-12-01-45,3,44,0.6569114097482467,right,both,biased-switch,61,0,right,right,0.213
SAM1990WRNO,2020-01-27-12-01-45,3,45,0.5012384281002001,left,probe,ambiguous-switch,-1,-12,left,left,0.215
SAM1990WRNO,2020-01-27-12-01-45,3,46,0.6298453651019691,left,both,ambiguous-switch,65,-12,left,left,0.222
SAM1990WRNO,2020-01-27-12-01-45,3,47,0.5471976421629468,right,probe,ambiguous-switch,-1,18,right,right,0.344
SAM1990WRNO,2020-01-27-12-01-45,3,48,0.5095501817615731,right,both,ambiguous-switch,58,18,right,right,0.267
SAM1990WRNO,2020-01-27-12-01-45,3,49,0.588001022317382,left,probe,biased-switch,-1,12,left,left,0.242
SAM1990WRNO,2020-01-27-12-01-45,3,50,0.6578552882078084,left,both,biased-switch,62,12,left,left,0.219
SAM1990WRNO,2020-01-27-12-01-45,3,51,0.6077561412194507,left,probe,biased-switch,-1,24,left,left,0.374
SAM1990WRNO,2020-01-27-12-01-45,3,52,0.628996625309929,left,both,biased-switch,64,24,left,left,0.272
SAM1990WRNO,2020-01-27-12-01-45,3,53,0.6240284732922172,right,probe,ambiguous-switch,-1,0,right,right,0.241
SAM1990WRNO,2020-01-27-12-01-45,3,54,0.6161671535594975,right,both,ambiguous-switch,63,0,right,right,0.231
SAM1990WRNO,2020-01-27-12-01-45,3,55,0.5518594870547567,right,probe,biased-switch,-1,3,right,right,0.327
SAM1990WRNO,2020-01-27-12-01-45,3,56,0.6987672482329292,right,both,biased-switch,57,3,right,right,0.205
SAM1990WRNO,2020-01-27-12-01-45,3,57,0.5666726661967734,right,probe,biased-switch,-1,-3,right,right,0.216
SAM1990WRNO,2020-01-27-12-01-45,3,58,0.5321011461199736,right,both,biased-switch,56,-3,right,right,0.228
SAM1990WRNO,2020-01-27-12-01-45,3,59,0.571934890959568,right,probe,ambiguous-switch,-1,-3,right,right,0.427
SAM1990WRNO,2020-01-27-12-01-45,3,60,0.6395984870113772,right,both,ambiguous-switch,59,-3,right,right,0.267
SAM1990WRNO,2020-01-27-12-01-45,3,61,0.5153146303264826,left,probe,ambiguous-switch,-1,-18,left,left,0.181
SAM1990WRNO,2020-01-27-12-01-45,3,62,0.6850878216598235,left,both,ambiguous-switch,57,-18,left,left,0.242
SAM1990WRNO,2020-01-27-12-01-45,3,63,0.5921109119867701,left,probe,biased-switch,-1,-18,left,left,0.253
SAM1990WRNO,2020-01-27-12-01-45,3,64,0.6791968552615009,left,both,biased-switch,60,-18,left,left,0.291
SAM1990WRNO,2020-01-27-12-01-45,3,65,0.5836772165056444,left,probe,biased-switch,-1,18,left,left,0.361
SAM1990WRNO,2020-01-27-12-01-45,3,66,0.6002089682062238,left,both,biased-switch,65,18,left,left,0.213
SAM1990WRNO,2020-01-27-12-01-45,3,67,0.5838326559809494,left,probe,biased-switch,-1,-12,left,left,0.348
SAM1990WRNO,2020-01-27-12-01-45,3,68,0.5263974861954229,left,both,biased-switch,59,-12,left,left,0.228
SAM1990WRNO,2020-01-27-12-01-45,3,69,0.681040262628877,left,probe,ambiguous-switch,-1,6,left,left,0.227
SAM1990WRNO,2020-01-27-12-01-45,3,70,0.6227983884823913,left,both,ambiguous-switch,56,6,left,left,0.254
SAM1990WRNO,2020-01-27-12-01-45,3,71,0.6480510450865167,right,probe,ambiguous-switch,-1,-6,right,right,0.24
SAM1990WRNO,2020-01-27-12-01-45,3,72,0.532478963669342,right,both,ambiguous-switch,58,-6,right,right,0.201
SAM1990WRNO,2020-01-27-12-01-45,3,73,0.6425545131104067,right,probe,biased-switch,-1,6,right,right,0.215
SAM1990WRNO,2020-01-27-12-01-45,3,74,0.5762380602789829,right,both,biased-switch,62,6,right,right,0.048
SAM1990WRNO,2020-01-27-12-01-45,3,75,0.5368576191827072,right,probe,ambiguous-switch,-1,3,right,right,0.825
SAM1990WRNO,2020-01-27-12-01-45,3,76,0.6742071778746634,right,both,ambiguous-switch,56,3,right,right,0.225
SAM1990WRNO,2020-01-27-12-01-45,3,77,0.6220999165659019,left,probe,ambiguous-switch,-1,24,left,left,0.262
SAM1990WRNO,2020-01-27-12-01-45,3,78,0.6732093540441715,left,both,ambiguous-switch,64,24,left,left,0.184
SAM1990WRNO,2020-01-27-12-01-45,3,79,0.6675348305995941,right,probe,biased-switch,-1,-6,right,right,0.315
SAM1990WRNO,2020-01-27-12-01-45,3,80,0.6225063324967478,right,both,biased-switch,64,-6,right,right,0.15
SAM1990WRNO,2020-01-27-12-01-45,4,1,0.5451358527126623,right,probe,ambiguous-switch,-1,12,right,right,0.214
SAM1990WRNO,2020-01-27-12-01-45,4,2,0.6054203363590159,right,both,ambiguous-switch,62,12,right,right,0.216
SAM1990WRNO,2020-01-27-12-01-45,4,3,0.5840977131209165,left,probe,ambiguous-switch,-1,18,left,left,0.302
SAM1990WRNO,2020-01-27-12-01-45,4,4,0.5246193689275317,left,both,ambiguous-switch,63,18,left,left,0.217
SAM1990WRNO,2020-01-27-12-01-45,4,5,0.6139118360366917,right,probe,ambiguous-switch,-1,-12,right,right,0.214
SAM1990WRNO,2020-01-27-12-01-45,4,6,0.6839651302729097,right,both,ambiguous-switch,57,-12,right,right,0.247
SAM1990WRNO,2020-01-27-12-01-45,4,7,0.6181342415661472,right,probe,ambiguous-switch,-1,0,right,right,0.279
SAM1990WRNO,2020-01-27-12-01-45,4,8,0.5238180455239092,right,both,ambiguous-switch,62,0,right,right,0.286
SAM1990WRNO,2020-01-27-12-01-45,4,9,0.6204649120848288,left,probe,biased-switch,-1,0,left,left,0.068
SAM1990WRNO,2020-01-27-12-01-45,4,10,0.5786686095874604,left,both,biased-switch,60,0,left,left,0.202
SAM1990WRNO,2020-01-27-12-01-45,4,11,0.5035056049957686,right,probe,ambiguous-switch,-1,24,right,right,0.224
SAM1990WRNO,2020-01-27-12-01-45,4,12,0.5747677171861417,right,both,ambiguous-switch,59,24,right,right,0.045
SAM1990WRNO,2020-01-27-12-01-45,4,13,0.5127499118019165,left,probe,biased-switch,-1,12,left,left,0.09
SAM1990WRNO,2020-01-27-12-01-45,4,14,0.5821515286888594,left,both,biased-switch,56,12,left,left,0.203
SAM1990WRNO,2020-01-27-12-01-45,4,15,0.6843888297382014,left,probe,biased-switch,-1,6,left,left,0.212
SAM1990WRNO,2020-01-27-12-01-45,4,16,0.571452443214778,left,both,biased-switch,58,6,left,left,0.014
SAM1990WRNO,2020-01-27-12-01-45,4,17,0.5912087835546113,right,probe,ambiguous-switch,-1,3,right,right,0.151
SAM1990WRNO,2020-01-27-12-01-45,4,18,0.514451722713497,right,both,ambiguous-switch,58,3,right,right,0.197
SAM1990WRNO,2020-01-27-12-01-45,4,19,0.6868118696212957,left,probe,biased-switch,-1,-12,left,left,0.204
SAM1990WRNO,2020-01-27-12-01-45,4,20,0.6569857284333155,left,both,biased-switch,61,-12,left,left,0.241
SAM1990WRNO,2020-01-27-12-01-45,4,21,0.6425850088282202,right,probe,biased-switch,-1,18,right,right,0.219
SAM1990WRNO,2020-01-27-12-01-45,4,22,0.6587438809833155,right,both,biased-switch,62,18,right,right,0.254
SAM1990WRNO,2020-01-27-12-01-45,4,23,0.5067521817440834,left,probe,ambiguous-switch,-1,-3,left,left,0.078
SAM1990WRNO,2020-01-27-12-01-45,4,24,0.5595414855782062,left,both,ambiguous-switch,54,-3,left,left,0.062
SAM1990WRNO,2020-01-27-12-01-45,4,25,0.51798838668174,right,probe,biased-switch,-1,-18,right,right,0.231
SAM1990WRNO,2020-01-27-12-01-45,4,26,0.6882406695924176,right,both,biased-switch,55,-18,right,right,0.218
SAM1990WRNO,2020-01-27-12-01-45,4,27,0.6193185860848918,left,probe,biased-switch,-1,24,left,left,0.178
SAM1990WRNO,2020-01-27-12-01-45,4,28,0.6228187136606524,left,both,biased-switch,60,24,left,left,3.269
SAM1990WRNO,2020-01-27-12-01-45,4,29,0.5555598903003225,right,probe,ambiguous-switch,-1,6,right,right,0.202
SAM1990WRNO,2020-01-27-12-01-45,4,30,0.5313866068981445,right,both,ambiguous-switch,55,6,right,right,0.221
SAM1990WRNO,2020-01-27-12-01-45,4,31,0.5277062066297252,right,probe,biased-switch,-1,-6,right,right,0.314
SAM1990WRNO,2020-01-27-12-01-45,4,32,0.6689450711001133,right,both,biased-switch,62,-6,right,right,0.221
SAM1990WRNO,2020-01-27-12-01-45,4,33,0.5038734501073594,right,probe,biased-switch,-1,3,right,right,0.215
SAM1990WRNO,2020-01-27-12-01-45,4,34,0.5390561718132939,right,both,biased-switch,60,3,right,right,0.042
SAM1990WRNO,2020-01-27-12-01-45,4,35,0.5710125437041048,left,probe,biased-switch,-1,-3,left,left,0.159
SAM1990WRNO,2020-01-27-12-01-45,4,36,0.6201220018854015,left,both,biased-switch,60,-3,left,left,0.021
SAM1990WRNO,2020-01-27-12-01-45,4,37,0.5609056960993206,left,probe,ambiguous-switch,-1,-6,left,left,0.349
SAM1990WRNO,2020-01-27-12-01-45,4,38,0.5837242181718038,left,both,ambiguous-switch,59,-6,left,left,0.205
SAM1990WRNO,2020-01-27-12-01-45,4,39,0.585129916875199,left,probe,ambiguous-switch,-1,-18,left,left,0.22
SAM1990WRNO,2020-01-27-12-01-45,4,40,0.537737148591755,left,both,ambiguous-switch,57,-18,left,left,0.235
SAM1990WRNO,2020-01-27-12-01-45,4,41,0.5946899648194197,right,probe,ambiguous-switch,-1,12,right,right,0.126
SAM1990WRNO,2020-01-27-12-01-45,4,42,0.5188827723095862,right,both,ambiguous-switch,57,12,right,right,1.863
SAM1990WRNO,2020-01-27-12-01-45,4,43,0.6372525328029649,left,probe,ambiguous-switch,-1,18,left,left,0.272
SAM1990WRNO,2020-01-27-12-01-45,4,44,0.644160188564307,left,both,ambiguous-switch,60,18,left,left,0.17
SAM1990WRNO,2020-01-27-12-01-45,4,45,0.6750909872837905,right,probe,ambiguous-switch,-1,-12,right,right,0.22
SAM1990WRNO,2020-01-27-12-01-45,4,46,0.6038263013750269,right,both,ambiguous-switch,61,-12,right,right,0.195
SAM1990WRNO,2020-01-27-12-01-45,4,47,0.6915697822599426,left,probe,ambiguous-switch,-1,0,left,left,0.16
SAM1990WRNO,2020-01-27-12-01-45,4,48,0.5660955610658602,left,both,ambiguous-switch,60,0,left,left,0.264
SAM1990WRNO,2020-01-27-12-01-45,4,49,0.5086276161881118,right,probe,biased-switch,-1,0,right,right,0.222
SAM1990WRNO,2020-01-27-12-01-45,4,50,0.5021402633437562,right,both,biased-switch,63,0,right,right,0.264
SAM1990WRNO,2020-01-27-12-01-45,4,51,0.6832554853152664,left,probe,ambiguous-switch,-1,24,left,left,0.244
SAM1990WRNO,2020-01-27-12-01-45,4,52,0.5918073530935766,left,both,ambiguous-switch,59,24,left,left,0.244
SAM1990WRNO,2020-01-27-12-01-45,4,53,0.6860883166335621,right,probe,biased-switch,-1,12,right,right,0.217
SAM1990WRNO,2020-01-27-12-01-45,4,54,0.5170439909416273,right,both,biased-switch,57,12,right,right,0.212
SAM1990WRNO,2020-01-27-12-01-45,4,55,0.5272550924574883,right,probe,biased-switch,-1,6,right,right,0.346
SAM1990WRNO,2020-01-27-12-01-45,4,56,0.5897865913092176,right,both,biased-switch,56,6,right,right,0.154
SAM1990WRNO,2020-01-27-12-01-45,4,57,0.6846273596119671,right,probe,ambiguous-switch,-1,3,right,right,0.217
SAM1990WRNO,2020-01-27-12-01-45,4,58,0.5410015640509779,right,both,ambiguous-switch,54,3,right,right,0.144
SAM1990WRNO,2020-01-27-12-01-45,4,59,0.5987402856625385,right,probe,biased-switch,-1,-12,right,right,0.251
SAM1990WRNO,2020-01-27-12-01-45,4,60,0.5197726394305068,right,both,biased-switch,61,-12,right,right,0.228
SAM1990WRNO,2020-01-27-12-01-45,4,61,0.554142699888338,left,probe,biased-switch,-1,18,left,left,0.218
SAM1990WRNO,2020-01-27-12-01-45,4,62,0.6443614893770291,left,both,biased-switch,61,18,left,left,0.088
SAM1990WRNO,2020-01-27-12-01-45,4,63,0.678341004897989,right,probe,ambiguous-switch,-1,-3,right,right,0.228
SAM1990WRNO,2020-01-27-12-01-45,4,64,0.5224985635784987,right,both,ambiguous-switch,64,-3,right,right,0.201
SAM1990WRNO,2020-01-27-12-01-45,4,65,0.5580344448190058,left,probe,biased-switch,-1,-18,left,left,0.286
SAM1990WRNO,2020-01-27-12-01-45,4,66,0.5622804936923691,left,both,biased-switch,64,-18,left,left,0.197
SAM1990WRNO,2020-01-27-12-01-45,4,67,0.5541105259547443,left,probe,biased-switch,-1,24,left,left,0.225
SAM1990WRNO,2020-01-27-12-01-45,4,68,0.6662011649612667,left,both,biased-switch,63,24,left,left,0.216
SAM1990WRNO,2020-01-27-12-01-45,4,69,0.5682598013605524,left,probe,ambiguous-switch,-1,6,left,left,0.272
SAM1990WRNO,2020-01-27-12-01-45,4,70,0.6162391024604917,left,both,ambiguous-switch,57,6,left,left,0.241
SAM1990WRNO,2020-01-27-12-01-45,4,71,0.5827218090525426,right,probe,biased-switch,-1,-6,right,right,0.232
SAM1990WRNO,2020-01-27-12-01-45,4,72,0.5989242080685947,right,both,biased-switch,57,-6,right,right,0.23
SAM1990WRNO,2020-01-27-12-01-45,4,73,0.5223839242904253,left,probe,biased-switch,-1,3,left,left,0.221
SAM1990WRNO,2020-01-27-12-01-45,4,74,0.5725953710932561,left,both,biased-switch,57,3,left,left,1.131
SAM1990WRNO,2020-01-27-12-01-45,4,75,0.637422883093171,right,probe,biased-switch,-1,-3,right,right,0.276
SAM1990WRNO,2020-01-27-12-01-45,4,76,0.5772269894561257,right,both,biased-switch,63,-3,right,right,0.216
SAM1990WRNO,2020-01-27-12-01-45,4,77,0.5180277513560589,left,probe,ambiguous-switch,-1,-6,left,left,0.284
SAM1990WRNO,2020-01-27-12-01-45,4,78,0.6949417884490091,left,both,ambiguous-switch,63,-6,left,left,0.268
SAM1990WRNO,2020-01-27-12-01-45,4,79,0.5602451971394505,right,probe,ambiguous-switch,-1,-18,right,right,0.211
SAM1990WRNO,2020-01-27-12-01-45,4,80,0.620789507590289,right,both,ambiguous-switch,54,-18,right,right,0.222
SAM1990WRNO,2020-01-27-12-01-45,5,1,0.5330629651375157,left,probe,ambiguous-switch,-1,3,left,left,0.207
SAM1990WRNO,2020-01-27-12-01-45,5,2,0.5798039999638783,left,both,ambiguous-switch,64,3,left,left,0.215
SAM1990WRNO,2020-01-27-12-01-45,5,3,0.6528450378151365,left,probe,biased-switch,-1,6,left,left,0.221
SAM1990WRNO,2020-01-27-12-01-45,5,4,0.5788787180352714,left,both,biased-switch,54,6,left,left,0.199
SAM1990WRNO,2020-01-27-12-01-45,5,5,0.5467971317232522,left,probe,ambiguous-switch,-1,6,left,left,0.237
SAM1990WRNO,2020-01-27-12-01-45,5,6,0.5540786871664448,left,both,ambiguous-switch,56,6,left,left,0.243
SAM1990WRNO,2020-01-27-12-01-45,5,7,0.6450234110802264,right,probe,ambiguous-switch,-1,18,right,right,0.219
SAM1990WRNO,2020-01-27-12-01-45,5,8,0.6457260996021704,right,both,ambiguous-switch,56,18,right,right,0.201
SAM1990WRNO,2020-01-27-12-01-45,5,9,0.5418422910114387,right,probe,biased-switch,-1,-6,right,right,0.255
SAM1990WRNO,2020-01-27-12-01-45,5,10,0.5703398050475412,right,both,biased-switch,55,-6,right,right,0.128
SAM1990WRNO,2020-01-27-12-01-45,5,11,0.6240876503777322,right,probe,ambiguous-switch,-1,24,right,right,0.216
SAM1990WRNO,2020-01-27-12-01-45,5,12,0.6638396533031107,right,both,ambiguous-switch,56,24,right,right,0.077
SAM1990WRNO,2020-01-27-12-01-45,5,13,0.544210948696115,right,probe,ambiguous-switch,-1,0,right,right,0.273
SAM1990WRNO,2020-01-27-12-01-45,5,14,0.6846282027289895,right,both,ambiguous-switch,58,0,right,right,0.292
SAM1990WRNO,2020-01-27-12-01-45,5,15,0.5667582461259109,right,probe,biased-switch,-1,-18,right,right,0.22
SAM1990WRNO,2020-01-27-12-01-45,5,16,0.6412439568554305,right,both,biased-switch,58,-18,right,right,0.212
SAM1990WRNO,2020-01-27-12-01-45,5,17,0.6052554876727401,right,probe,biased-switch,-1,0,right,right,0.25
SAM1990WRNO,2020-01-27-12-01-45,5,18,0.6943724552793604,right,both,biased-switch,54,0,right,right,0.2
SAM1990WRNO,2020-01-27-12-01-45,5,19,0.5339289545970232,right,probe,biased-switch,-1,3,right,right,0.213
SAM1990WRNO,2020-01-27-12-01-45,5,20,0.5689012109858274,right,both,biased-switch,60,3,right,right,0.381
SAM1990WRNO,2020-01-27-12-01-45,5,21,0.5756448307607038,right,probe,biased-switch,-1,-12,right,right,0.372
SAM1990WRNO,2020-01-27-12-01-45,5,22,0.6689310886354837,right,both,biased-switch,61,-12,right,right,0.233
SAM1990WRNO,2020-01-27-12-01-45,5,23,0.5991734306332076,left,probe,ambiguous-switch,-1,12,left,left,0.237
SAM1990WRNO,2020-01-27-12-01-45,5,24,0.5351748263445943,left,both,ambiguous-switch,56,12,left,left,0.247
SAM1990WRNO,2020-01-27-12-01-45,5,25,0.6336804200481795,right,probe,ambiguous-switch,-1,-18,right,right,0.29
SAM1990WRNO,2020-01-27-12-01-45,5,26,0.6324758013203957,right,both,ambiguous-switch,56,-18,right,right,0.383
SAM1990WRNO,2020-01-27-12-01-45,5,27,0.6282751121436762,right,probe,biased-switch,-1,24,right,right,0.236
SAM1990WRNO,2020-01-27-12-01-45,5,28,0.6496572068316206,right,both,biased-switch,55,24,right,right,0.36
SAM1990WRNO,2020-01-27-12-01-45,5,29,0.6784030643768677,right,probe,biased-switch,-1,18,right,right,0.238
SAM1990WRNO,2020-01-27-12-01-45,5,30,0.5918466634146112,right,both,biased-switch,64,18,right,right,0.468
SAM1990WRNO,2020-01-27-12-01-45,5,31,0.5439735644846437,right,probe,ambiguous-switch,-1,-6,right,right,0.439
SAM1990WRNO,2020-01-27-12-01-45,5,32,0.6236273120388182,right,both,ambiguous-switch,57,-6,right,right,0.271
SAM1990WRNO,2020-01-27-12-01-45,5,33,0.5688564995591874,right,probe,ambiguous-switch,-1,-12,right,right,0.231
SAM1990WRNO,2020-01-27-12-01-45,5,34,0.5247918478832878,right,both,ambiguous-switch,55,-12,right,right,0.305
SAM1990WRNO,2020-01-27-12-01-45,5,35,0.540242493231732,right,probe,biased-switch,-1,12,right,right,0.21
SAM1990WRNO,2020-01-27-12-01-45,5,36,0.6390895958162752,right,both,biased-switch,58,12,right,right,0.228
SAM1990WRNO,2020-01-27-12-01-45,5,37,0.5569287703317447,right,probe,ambiguous-switch,-1,-3,right,right,0.184
SAM1990WRNO,2020-01-27-12-01-45,5,38,0.520720721548261,right,both,ambiguous-switch,62,-3,right,right,0.237
SAM1990WRNO,2020-01-27-12-01-45,5,39,0.6200585692410788,right,probe,biased-switch,-1,-3,right,right,0.233
SAM1990WRNO,2020-01-27-12-01-45,5,40,0.6738447846907695,right,both,biased-switch,57,-3,right,right,0.208
SAM1990WRNO,2020-01-27-12-01-45,5,41,0.5131350818216059,right,probe,ambiguous-switch,-1,3,right,right,0.255
SAM1990WRNO,2020-01-27-12-01-45,5,42,0.5207227976649216,right,both,ambiguous-switch,64,3,right,right,0.238
SAM1990WRNO,2020-01-27-12-01-45,5,43,0.5817713485321557,right,probe,biased-switch,-1,6,right,right,0.273
SAM1990WRNO,2020-01-27-12-01-45,5,44,0.6972396732491752,right,both,biased-switch,57,6,right,right,0.396
SAM1990WRNO,2020-01-27-12-01-45,5,45,0.5950964108365805,right,probe,ambiguous-switch,-1,6,right,right,0.276
SAM1990WRNO,2020-01-27-12-01-45,5,46,0.6183934494194803,right,both,ambiguous-switch,60,6,right,right,0.195
SAM1990WRNO,2020-01-27-12-01-45,5,47,0.6453616916315994,left,probe,ambiguous-switch,-1,18,left,left,0.234
SAM1990WRNO,2020-01-27-12-01-45,5,48,0.6911176716140396,left,both,ambiguous-switch,57,18,left,left,0.203
SAM1990WRNO,2020-01-27-12-01-45,5,49,0.6777416925438,right,probe,biased-switch,-1,-6,right,right,0.288
SAM1990WRNO,2020-01-27-12-01-45,5,50,0.6486789274091876,right,both,biased-switch,62,-6,right,right,0.251
SAM1990WRNO,2020-01-27-12-01-45,5,51,0.6930899495293354,right,probe,ambiguous-switch,-1,24,right,right,0.197
SAM1990WRNO,2020-01-27-12-01-45,5,52,0.534106567573554,right,both,ambiguous-switch,54,24,right,right,0.233
SAM1990WRNO,2020-01-27-12-01-45,5,53,0.5570163281082086,left,probe,ambiguous-switch,-1,0,left,left,0.235
SAM1990WRNO,2020-01-27-12-01-45,5,54,0.6392818803774332,left,both,ambiguous-switch,58,0,left,left,0.216
SAM1990WRNO,2020-01-27-12-01-45,5,55,0.650854173099854,right,probe,biased-switch,-1,-18,right,right,0.218
SAM1990WRNO,2020-01-27-12-01-45,5,56,0.5281224757781424,right,both,biased-switch,59,-18,right,right,0.183
SAM1990WRNO,2020-01-27-12-01-45,5,57,0.6079283002620975,right,probe,biased-switch,-1,0,right,right,0.248
SAM1990WRNO,2020-01-27-12-01-45,5,58,0.614338236234115,right,both,biased-switch,65,0,right,right,0.287
SAM1990WRNO,2020-01-27-12-01-45,5,59,0.6599760210949721,left,probe,biased-switch,-1,3,left,left,0.235
SAM1990WRNO,2020-01-27-12-01-45,5,60,0.5783612171557849,left,both,biased-switch,62,3,left,left,0.172
SAM1990WRNO,2020-01-27-12-01-45,5,61,0.6123624447598585,left,probe,biased-switch,-1,-12,left,left,0.237
SAM1990WRNO,2020-01-27-12-01-45,5,62,0.5984174999550856,left,both,biased-switch,66,-12,left,left,0.23
SAM1990WRNO,2020-01-27-12-01-45,5,63,0.682224323478725,left,probe,ambiguous-switch,-1,12,left,left,0.195
SAM1990WRNO,2020-01-27-12-01-45,5,64,0.6986262038754154,left,both,ambiguous-switch,57,12,left,left,0.23
SAM1990WRNO,2020-01-27-12-01-45,5,65,0.6032408944504769,right,probe,ambiguous-switch,-1,-18,right,right,0.398
SAM1990WRNO,2020-01-27-12-01-45,5,66,0.5404698562695149,right,both,ambiguous-switch,59,-18,right,right,0.248
SAM1990WRNO,2020-01-27-12-01-45,5,67,0.5708639097255621,left,probe,biased-switch,-1,24,left,left,0.219
SAM1990WRNO,2020-01-27-12-01-45,5,68,0.6887315280916602,left,both,biased-switch,58,24,left,left,0.226
SAM1990WRNO,2020-01-27-12-01-45,5,69,0.6233519304941633,left,probe,biased-switch,-1,18,left,left,0.208
SAM1990WRNO,2020-01-27-12-01-45,5,70,0.5674318142325362,left,both,biased-switch,57,18,left,left,0.195
SAM1990WRNO,2020-01-27-12-01-45,5,71,0.6988734812703182,left,probe,ambiguous-switch,-1,-6,left,left,0.356
SAM1990WRNO,2020-01-27-12-01-45,5,72,0.6916852205283526,left,both,ambiguous-switch,64,-6,left,left,0.235
SAM1990WRNO,2020-01-27-12-01-45,5,73,0.535857443075805,left,probe,ambiguous-switch,-1,-12,left,left,0.204
SAM1990WRNO,2020-01-27-12-01-45,5,74,0.6872939933378581,left,both,ambiguous-switch,62,-12,left,left,0.209
SAM1990WRNO,2020-01-27-12-01-45,5,75,0.5570365854220684,right,probe,biased-switch,-1,12,right,right,0.247
SAM1990WRNO,2020-01-27-12-01-45,5,76,0.5057008255557288,right,both,biased-switch,64,12,right,right,0.214
SAM1990WRNO,2020-01-27-12-01-45,5,77,0.6331188440644248,left,probe,ambiguous-switch,-1,-3,left,left,0.23
SAM1990WRNO,2020-01-27-12-01-45,5,78,0.5766609826507363,left,both,ambiguous-switch,63,-3,left,left,0.208
SAM1990WRNO,2020-01-27-12-01-45,5,79,0.5677725432574193,right,probe,biased-switch,-1,-3,right,right,0.225
SAM1990WRNO,2020-01-27-12-01-45,5,80,0.5362444187386878,right,both,biased-switch,57,-3,right,right,0.239
SAM1990WRNO,2020-01-27-12-01-45,6,1,0.520958249423216,left,probe,biased-switch,-1,18,left,left,0.24
SAM1990WRNO,2020-01-27-12-01-45,6,2,0.5125645171516731,left,both,biased-switch,56,18,left,left,0.224
SAM1990WRNO,2020-01-27-12-01-45,6,3,0.6727237780315615,left,probe,ambiguous-switch,-1,18,left,left,0.204
SAM1990WRNO,2020-01-27-12-01-45,6,4,0.6554748994787232,left,both,ambiguous-switch,54,18,left,left,0.191
SAM1990WRNO,2020-01-27-12-01-45,6,5,0.6264167936200368,left,probe,ambiguous-switch,-1,12,left,left,0.197
SAM1990WRNO,2020-01-27-12-01-45,6,6,0.593577161626168,left,both,ambiguous-switch,58,12,left,left,0.192
SAM1990WRNO,2020-01-27-12-01-45,6,7,0.5877266020704981,left,probe,biased-switch,-1,-18,left,left,0.225
SAM1990WRNO,2020-01-27-12-01-45,6,8,0.5567374303373939,left,both,biased-switch,63,-18,left,left,0.191
SAM1990WRNO,2020-01-27-12-01-45,6,9,0.5969550273017596,left,probe,biased-switch,-1,0,left,left,0.211
SAM1990WRNO,2020-01-27-12-01-45,6,10,0.5188125058506446,left,both,biased-switch,62,0,left,left,0.177
SAM1990WRNO,2020-01-27-12-01-45,6,11,0.6134164523512039,left,probe,biased-switch,-1,-12,left,left,0.209
SAM1990WRNO,2020-01-27-12-01-45,6,12,0.5843926285867201,left,both,biased-switch,58,-12,left,left,0.365
SAM1990WRNO,2020-01-27-12-01-45,6,13,0.6178951883939118,right,probe,ambiguous-switch,-1,0,right,right,0.208
SAM1990WRNO,2020-01-27-12-01-45,6,14,0.6696475396407171,right,both,ambiguous-switch,58,0,right,right,0.253
SAM1990WRNO,2020-01-27-12-01-45,6,15,0.6349488140463356,right,probe,ambiguous-switch,-1,-6,right,right,0.431
SAM1990WRNO,2020-01-27-12-01-45,6,16,0.6085132987830119,right,both,ambiguous-switch,60,-6,right,right,0.189
SAM1990WRNO,2020-01-27-12-01-45,6,17,0.5620576871664632,right,probe,biased-switch,-1,6,right,right,0.231
SAM1990WRNO,2020-01-27-12-01-45,6,18,0.5597658089049787,right,both,biased-switch,61,6,right,right,0.213
SAM1990WRNO,2020-01-27-12-01-45,6,19,0.536989214353896,right,probe,biased-switch,-1,-3,right,right,0.242
SAM1990WRNO,2020-01-27-12-01-45,6,20,0.5656235199434838,right,both,biased-switch,65,-3,right,right,0.239
SAM1990WRNO,2020-01-27-12-01-45,6,21,0.6767242018237059,left,probe,ambiguous-switch,-1,6,left,left,0.215
SAM1990WRNO,2020-01-27-12-01-45,6,22,0.5971126617068677,left,both,ambiguous-switch,56,6,left,left,0.208
SAM1990WRNO,2020-01-27-12-01-45,6,23,0.5176072675395897,right,probe,biased-switch,-1,24,right,right,0.069
SAM1990WRNO,2020-01-27-12-01-45,6,24,0.6669614426169199,right,both,biased-switch,62,24,right,right,0.302
SAM1990WRNO,2020-01-27-12-01-45,6,25,0.6360500864202395,right,probe,ambiguous-switch,-1,3,right,right,0.258
SAM1990WRNO,2020-01-27-12-01-45,6,26,0.5831871326697767,right,both,ambiguous-switch,65,3,right,right,0.213
SAM1990WRNO,2020-01-27-12-01-45,6,27,0.6625959069833368,right,probe,biased-switch,-1,3,right,right,0.28
SAM1990WRNO,2020-01-27-12-01-45,6,28,0.638911601615761,right,both,biased-switch,62,3,right,right,0.196
SAM1990WRNO,2020-01-27-12-01-45,6,29,0.6489930006956113,left,probe,biased-switch,-1,12,left,left,0.254
SAM1990WRNO,2020-01-27-12-01-45,6,30,0.6391373683313486,left,both,biased-switch,61,12,left,left,0.253
SAM1990WRNO,2020-01-27-12-01-45,6,31,0.556279650857404,left,probe,ambiguous-switch,-1,-18,left,left,0.269
SAM1990WRNO,2020-01-27-12-01-45,6,32,0.5459920223239697,left,both,ambiguous-switch,65,-18,left,left,0.374
SAM1990WRNO,2020-01-27-12-01-45,6,33,0.6442209491330103,right,probe,biased-switch,-1,-6,right,right,0.203
SAM1990WRNO,2020-01-27-12-01-45,6,34,0.6334093884580282,right,both,biased-switch,66,-6,right,right,0.207
SAM1990WRNO,2020-01-27-12-01-45,6,35,0.6695193129074416,right,probe,ambiguous-switch,-1,-3,right,right,0.229
SAM1990WRNO,2020-01-27-12-01-45,6,36,0.6566401142171548,right,both,ambiguous-switch,59,-3,right,right,0.304
SAM1990WRNO,2020-01-27-12-01-45,6,37,0.5503185297721453,right,probe,ambiguous-switch,-1,-12,right,right,0.218
SAM1990WRNO,2020-01-27-12-01-45,6,38,0.6096746384670303,right,both,ambiguous-switch,57,-12,right,right,0.18
SAM1990WRNO,2020-01-27-12-01-45,6,39,0.6358485459871693,right,probe,ambiguous-switch,-1,24,right,right,0.224
SAM1990WRNO,2020-01-27-12-01-45,6,40,0.6167041076778155,right,both,ambiguous-switch,65,24,right,right,0.218
SAM1990WRNO,2020-01-27-12-01-45,6,41,0.663920562400856,right,probe,biased-switch,-1,18,right,right,0.211
SAM1990WRNO,2020-01-27-12-01-45,6,42,0.5374940318333816,right,both,biased-switch,58,18,right,right,0.094
SAM1990WRNO,2020-01-27-12-01-45,6,43,0.6600361943915025,left,probe,ambiguous-switch,-1,18,left,left,0.201
SAM1990WRNO,2020-01-27-12-01-45,6,44,0.5967152656051604,left,both,ambiguous-switch,56,18,left,left,0.096
SAM1990WRNO,2020-01-27-12-01-45,6,45,0.5474022518887568,right,probe,ambiguous-switch,-1,12,right,right,0.045
SAM1990WRNO,2020-01-27-12-01-45,6,46,0.6836946763028192,right,both,ambiguous-switch,57,12,right,right,0.204
SAM1990WRNO,2020-01-27-12-01-45,6,47,0.5420944703007023,right,probe,biased-switch,-1,-18,right,right,0.21
SAM1990WRNO,2020-01-27-12-01-45,6,48,0.6279306094042262,right,both,biased-switch,62,-18,right,right,0.208
SAM1990WRNO,2020-01-27-12-01-45,6,49,0.5141011538128186,left,probe,biased-switch,-1,0,left,left,0.231
SAM1990WRNO,2020-01-27-12-01-45,6,50,0.5820635955664099,left,both,biased-switch,66,0,left,left,0.144
SAM1990WRNO,2020-01-27-12-01-45,6,51,0.5771351251046011,right,probe,biased-switch,-1,-12,right,right,0.108
SAM1990WRNO,2020-01-27-12-01-45,6,52,0.5144794456101558,right,both,biased-switch,59,-12,right,right,0.191
SAM1990WRNO,2020-01-27-12-01-45,6,53,0.631903925356412,left,probe,ambiguous-switch,-1,0,left,left,0.196
SAM1990WRNO,2020-01-27-12-01-45,6,54,0.586682370852016,left,both,ambiguous-switch,65,0,left,left,0.223
SAM1990WRNO,2020-01-27-12-01-45,6,55,0.5139081118817191,right,probe,ambiguous-switch,-1,-6,right,right,0.241
SAM1990WRNO,2020-01-27-12-01-45,6,56,0.6661113371383827,right,both,ambiguous-switch,63,-6,right,right,0.213
SAM1990WRNO,2020-01-27-12-01-45,6,57,0.5252697208188314,right,probe,biased-switch,-1,6,right,right,0.306
SAM1990WRNO,2020-01-27-12-01-45,6,58,0.5794042313586598,right,both,biased-switch,60,6,right,right,0.217
SAM1990WRNO,2020-01-27-12-01-45,6,59,0.5400618395246701,left,probe,biased-switch,-1,-3,left,left,0.115
SAM1990WRNO,2020-01-27-12-01-45,6,60,0.5575012219318981,left,both,biased-switch,60,-3,left,left,0.217
SAM1990WRNO,2020-01-27-12-01-45,6,61,0.6444790287430828,right,probe,ambiguous-switch,-1,6,right,right,0.262
SAM1990WRNO,2020-01-27-12-01-45,6,62,0.6297295141096135,right,both,ambiguous-switch,64,6,right,right,0.201
SAM1990WRNO,2020-01-27-12-01-45,6,63,0.5810561788502069,right,probe,biased-switch,-1,24,right,right,0.207
SAM1990WRNO,2020-01-27-12-01-45,6,64,0.5431200041255413,right,both,biased-switch,56,24,right,right,0.289
SAM1990WRNO,2020-01-27-12-01-45,6,65,0.5997278735320652,right,probe,ambiguous-switch,-1,3,right,right,0.198
SAM1990WRNO,2020-01-27-12-01-45,6,66,0.524020550127844,right,both,ambiguous-switch,56,3,right,right,0.281
SAM1990WRNO,2020-01-27-12-01-45,6,67,0.6701665234075164,left,probe,biased-switch,-1,3,left,left,0.191
SAM1990WRNO,2020-01-27-12-01-45,6,68,0.5999611674440692,left,both,biased-switch,60,3,left,left,0.187
SAM1990WRNO,2020-01-27-12-01-45,6,69,0.6383088369861015,left,probe,biased-switch,-1,12,left,left,0.206
SAM1990WRNO,2020-01-27-12-01-45,6,70,0.5191222587230488,left,both,biased-switch,58,12,left,left,0.181
SAM1990WRNO,2020-01-27-12-01-45,6,71,0.6183299208026104,left,probe,ambiguous-switch,-1,-18,left,left,0.241
SAM1990WRNO,2020-01-27-12-01-45,6,72,0.5374315245457721,left,both,ambiguous-switch,58,-18,left,left,0.191
SAM1990WRNO,2020-01-27-12-01-45,6,73,0.6508031423336837,left,probe,biased-switch,-1,-6,left,left,0.207
SAM1990WRNO,2020-01-27-12-01-45,6,74,0.6874094196372291,left,both,biased-switch,57,-6,left,left,0.208
SAM1990WRNO,2020-01-27-12-01-45,6,75,0.5406459444340672,right,probe,ambiguous-switch,-1,-3,right,right,0.254
SAM1990WRNO,2020-01-27-12-01-45,6,76,0.5346568854256775,right,both,ambiguous-switch,62,-3,right,right,0.209
SAM1990WRNO,2020-01-27-12-01-45,6,77,0.5551706200591926,left,probe,ambiguous-switch,-1,-12,left,left,0.002
SAM1990WRNO,2020-01-27-12-01-45,6,78,0.5887268127857931,left,both,ambiguous-switch,64,-12,left,left,0.244
SAM1990WRNO,2020-01-27-12-01-45,6,79,0.5430534136846237,left,probe,ambiguous-switch,-1,24,left,left,0.405
SAM1990WRNO,2020-01-27-12-01-45,6,80,0.568196899860947,left,both,ambiguous-switch,65,24,left,left,0.141
SAM1990WRNO,2020-01-27-12-01-45,7,1,0.5815224304992026,right,probe,biased-switch,-1,-6,right,right,0.286
SAM1990WRNO,2020-01-27-12-01-45,7,2,0.6748856744998792,right,both,biased-switch,58,-6,right,right,0.222
SAM1990WRNO,2020-01-27-12-01-45,7,3,0.6358412649594007,left,probe,biased-switch,-1,12,left,left,0.197
SAM1990WRNO,2020-01-27-12-01-45,7,4,0.5068946913541582,left,both,biased-switch,62,12,left,left,0.005
SAM1990WRNO,2020-01-27-12-01-45,7,5,0.6319805318494678,right,probe,biased-switch,-1,24,right,right,0.241
SAM1990WRNO,2020-01-27-12-01-45,7,6,0.6372154848610494,right,both,biased-switch,57,24,right,right,0.324
SAM1990WRNO,2020-01-27-12-01-45,7,7,0.6865560161066364,left,probe,biased-switch,-1,-3,left,left,0.289
SAM1990WRNO,2020-01-27-12-01-45,7,8,0.5115187963128925,left,both,biased-switch,54,-3,left,left,0.24
SAM1990WRNO,2020-01-27-12-01-45,7,9,0.6327916357493869,left,probe,ambiguous-switch,-1,3,left,left,0.211
SAM1990WRNO,2020-01-27-12-01-45,7,10,0.5778105864950808,left,both,ambiguous-switch,66,3,left,left,0.204
SAM1990WRNO,2020-01-27-12-01-45,7,11,0.6603817736216288,right,probe,ambiguous-switch,-1,6,right,right,0.287
SAM1990WRNO,2020-01-27-12-01-45,7,12,0.6731980375873557,right,both,ambiguous-switch,56,6,right,right,0.234
SAM1990WRNO,2020-01-27-12-01-45,7,13,0.6127092183109517,left,probe,ambiguous-switch,-1,18,left,left,0.2
SAM1990WRNO,2020-01-27-12-01-45,7,14,0.5489785314712825,left,both,ambiguous-switch,58,18,left,left,0.223
SAM1990WRNO,2020-01-27-12-01-45,7,15,0.5472811597556049,right,probe,ambiguous-switch,-1,-6,right,right,0.207
SAM1990WRNO,2020-01-27-12-01-45,7,16,0.5577832155319876,right,both,ambiguous-switch,63,-6,right,right,0.213
SAM1990WRNO,2020-01-27-12-01-45,7,17,0.6099100630088224,left,probe,ambiguous-switch,-1,12,left,left,0.232
SAM1990WRNO,2020-01-27-12-01-45,7,18,0.5342523495888429,left,both,ambiguous-switch,56,12,left,left,0.146
SAM1990WRNO,2020-01-27-12-01-45,7,19,0.5209839180313691,left,probe,biased-switch,-1,-18,left,left,0.19
SAM1990WRNO,2020-01-27-12-01-45,7,20,0.6191387178520635,left,both,biased-switch,60,-18,left,left,0.121
SAM1990WRNO,2020-01-27-12-01-45,7,21,0.6953020392403919,right,probe,biased-switch,-1,3,right,right,0.226
SAM1990WRNO,2020-01-27-12-01-45,7,22,0.6286996163605614,right,both,biased-switch,58,3,right,right,0.26
SAM1990WRNO,2020-01-27-12-01-45,7,23,0.5721446604668609,left,probe,biased-switch,-1,0,left,left,0.207
SAM1990WRNO,2020-01-27-12-01-45,7,24,0.6572813889015205,left,both,biased-switch,57,0,left,left,0.16
SAM1990WRNO,2020-01-27-12-01-45,7,25,0.6950039439676285,right,probe,ambiguous-switch,-1,-3,right,right,0.209
SAM1990WRNO,2020-01-27-12-01-45,7,26,0.5654861526746429,right,both,ambiguous-switch,64,-3,right,right,0.155
SAM1990WRNO,2020-01-27-12-01-45,7,27,0.6399153478965803,left,probe,ambiguous-switch,-1,24,left,left,0.26
SAM1990WRNO,2020-01-27-12-01-45,7,28,0.6088429946181707,left,both,ambiguous-switch,58,24,left,left,0.197
SAM1990WRNO,2020-01-27-12-01-45,7,29,0.6192905245264078,right,probe,ambiguous-switch,-1,-18,right,right,0.12
SAM1990WRNO,2020-01-27-12-01-45,7,30,0.5465896720136645,right,both,ambiguous-switch,57,-18,right,right,0.252
SAM1990WRNO,2020-01-27-12-01-45,7,31,0.666047725395261,left,probe,ambiguous-switch,-1,-12,left,left,0.333
SAM1990WRNO,2020-01-27-12-01-45,7,32,0.5257040306840297,left,both,ambiguous-switch,61,-12,left,left,0.288
SAM1990WRNO,2020-01-27-12-01-45,7,33,0.558653532206423,right,probe,ambiguous-switch,-1,0,right,right,0.39
SAM1990WRNO,2020-01-27-12-01-45,7,34,0.5462408342546172,right,both,ambiguous-switch,60,0,right,right,0.213
SAM1990WRNO,2020-01-27-12-01-45,7,35,0.6126324042476398,left,probe,biased-switch,-1,6,left,left,0.033
SAM1990WRNO,2020-01-27-12-01-45,7,36,0.5123878604077188,left,both,biased-switch,62,6,left,left,0.095
SAM1990WRNO,2020-01-27-12-01-45,7,37,0.6139384598583492,left,probe,biased-switch,-1,-12,left,left,0.201
SAM1990WRNO,2020-01-27-12-01-45,7,38,0.606056453721612,left,both,biased-switch,63,-12,left,left,0.216
SAM1990WRNO,2020-01-27-12-01-45,7,39,0.6164897489838013,right,probe,biased-switch,-1,18,right,right,0.222
SAM1990WRNO,2020-01-27-12-01-45,7,40,0.5955920456397285,right,both,biased-switch,57,18,right,right,0.19
SAM1990WRNO,2020-01-27-12-01-45,7,41,0.6510894158781221,left,probe,biased-switch,-1,-6,left,left,0.237
SAM1990WRNO,2020-01-27-12-01-45,7,42,0.580249842271877,left,both,biased-switch,55,-6,left,left,0.215
SAM1990WRNO,2020-01-27-12-01-45,7,43,0.6575822683337699,left,probe,biased-switch,-1,12,left,left,0.219
SAM1990WRNO,2020-01-27-12-01-45,7,44,0.5209557551809588,left,both,biased-switch,63,12,left,left,0.159
SAM1990WRNO,2020-01-27-12-01-45,7,45,0.6649066744392482,left,probe,biased-switch,-1,24,left,left,0.192
SAM1990WRNO,2020-01-27-12-01-45,7,46,0.6125941328935267,left,both,biased-switch,60,24,left,left,0.278
SAM1990WRNO,2020-01-27-12-01-45,7,47,0.5745414383428177,left,probe,biased-switch,-1,-3,left,left,0.24
SAM1990WRNO,2020-01-27-12-01-45,7,48,0.6834394194738547,left,both,biased-switch,63,-3,left,left,0.256
SAM1990WRNO,2020-01-27-12-01-45,7,49,0.6743138231833115,right,probe,ambiguous-switch,-1,3,right,right,0.259
SAM1990WRNO,2020-01-27-12-01-45,7,50,0.6646468945519014,right,both,ambiguous-switch,65,3,right,right,0.248
SAM1990WRNO,2020-01-27-12-01-45,7,51,0.6443323727624023,right,probe,ambiguous-switch,-1,6,right,right,0.385
SAM1990WRNO,2020-01-27-12-01-45,7,52,0.6865241859893734,right,both,ambiguous-switch,54,6,right,right,0.214
SAM1990WRNO,2020-01-27-12-01-45,7,53,0.642751380594297,left,probe,ambiguous-switch,-1,18,left,left,0.213
SAM1990WRNO,2020-01-27-12-01-45,7,54,0.5413694305577199,left,both,ambiguous-switch,55,18,left,left,0.227
SAM1990WRNO,2020-01-27-12-01-45,7,55,0.6745030379359511,left,probe,ambiguous-switch,-1,-6,left,left,0.217
SAM1990WRNO,2020-01-27-12-01-45,7,56,0.6102047293314314,left,both,ambiguous-switch,65,-6,left,left,0.239
SAM1990WRNO,2020-01-27-12-01-45,7,57,0.5165465668175849,left,probe,ambiguous-switch,-1,12,left,left,0.208
SAM1990WRNO,2020-01-27-12-01-45,7,58,0.6800225770400026,left,both,ambiguous-switch,61,12,left,left,0.223
SAM1990WRNO,2020-01-27-12-01-45,7,59,0.647816131876299,right,probe,biased-switch,-1,-18,right,right,0.219
SAM1990WRNO,2020-01-27-12-01-45,7,60,0.6161753885831893,right,both,biased-switch,55,-18,right,right,0.242
SAM1990WRNO,2020-01-27-12-01-45,7,61,0.506305197618751,left,probe,biased-switch,-1,3,left,left,0.18
SAM1990WRNO,2020-01-27-12-01-45,7,62,0.6547511552528527,left,both,biased-switch,58,3,left,left,0.237
SAM1990WRNO,2020-01-27-12-01-45,7,63,0.5811740853492402,right,probe,biased-switch,-1,0,right,right,0.269
SAM1990WRNO,2020-01-27-12-01-45,7,64,0.5285962795920652,right,both,biased-switch,55,0,right,right,0.221
SAM1990WRNO,2020-01-27-12-01-45,7,65,0.5985451101117548,left,probe,ambiguous-switch,-1,-3,left,left,0.219
SAM1990WRNO,2020-01-27-12-01-45,7,66,0.6256954650871626,left,both,ambiguous-switch,66,-3,left,left,0.21
SAM1990WRNO,2020-01-27-12-01-45,7,67,0.5966869330456291,left,probe,ambiguous-switch,-1,24,left,left,0.257
SAM1990WRNO,2020-01-27-12-01-45,7,68,0.5864994375926487,left,both,ambiguous-switch,61,24,left,left,0.221
SAM1990WRNO,2020-01-27-12-01-45,7,69,0.6573918477655591,right,probe,ambiguous-switch,-1,-18,right,right,0.242
SAM1990WRNO,2020-01-27-12-01-45,7,70,0.6681763435467255,right,both,ambiguous-switch,65,-18,right,right,0.236
SAM1990WRNO,2020-01-27-12-01-45,7,71,0.5228130714678351,right,probe,ambiguous-switch,-1,-12,right,right,0.084
SAM1990WRNO,2020-01-27-12-01-45,7,72,0.5255475805226114,right,both,ambiguous-switch,64,-12,right,right,0.238
SAM1990WRNO,2020-01-27-12-01-45,7,73,0.6936910104502261,left,probe,ambiguous-switch,-1,0,left,left,0.203
SAM1990WRNO,2020-01-27-12-01-45,7,74,0.629188527966878,left,both,ambiguous-switch,63,0,left,left,0.195
SAM1990WRNO,2020-01-27-12-01-45,7,75,0.6878160449113844,left,probe,biased-switch,-1,6,left,left,0.185
SAM1990WRNO,2020-01-27-12-01-45,7,76,0.6294604070833586,left,both,biased-switch,64,6,left,left,0.073
SAM1990WRNO,2020-01-27-12-01-45,7,77,0.5730095510259946,left,probe,biased-switch,-1,-12,left,left,0.211
SAM1990WRNO,2020-01-27-12-01-45,7,78,0.5803572013787648,left,both,biased-switch,62,-12,left,left,0.056
SAM1990WRNO,2020-01-27-12-01-45,7,79,0.638466133677389,left,probe,biased-switch,-1,18,left,left,0.222
SAM1990WRNO,2020-01-27-12-01-45,7,80,0.5962405272544172,left,both,biased-switch,66,18,left,left,0.202
SAM1990WRNO,2020-01-27-12-01-45,8,1,0.5528707108214479,right,probe,ambiguous-switch,-1,24,right,right,0.22
SAM1990WRNO,2020-01-27-12-01-45,8,2,0.5620470246989344,right,both,ambiguous-switch,64,24,right,right,0.215
SAM1990WRNO,2020-01-27-12-01-45,8,3,0.5420953299906255,right,probe,biased-switch,-1,12,right,right,0.229
SAM1990WRNO,2020-01-27-12-01-45,8,4,0.5434424280743784,right,both,biased-switch,59,12,right,right,0.191
SAM1990WRNO,2020-01-27-12-01-45,8,5,0.5193248533092738,right,probe,biased-switch,-1,3,right,right,0.207
SAM1990WRNO,2020-01-27-12-01-45,8,6,0.5432837364649761,right,both,biased-switch,65,3,right,right,0.229
SAM1990WRNO,2020-01-27-12-01-45,8,7,0.5723879947602328,right,probe,biased-switch,-1,6,right,right,0.189
SAM1990WRNO,2020-01-27-12-01-45,8,8,0.6239869556376083,right,both,biased-switch,65,6,right,right,0.225
SAM1990WRNO,2020-01-27-12-01-45,8,9,0.5958883738826879,right,probe,biased-switch,-1,-6,right,right,0.247
SAM1990WRNO,2020-01-27-12-01-45,8,10,0.5016628148234801,right,both,biased-switch,64,-6,right,right,0.126
SAM1990WRNO,2020-01-27-12-01-45,8,11,0.6371611373311824,left,probe,ambiguous-switch,-1,-12,left,left,0.033
SAM1990WRNO,2020-01-27-12-01-45,8,12,0.6655298512763388,left,both,ambiguous-switch,64,-12,left,left,0.19
SAM1990WRNO,2020-01-27-12-01-45,8,13,0.596081148716343,right,probe,ambiguous-switch,-1,3,right,right,1.631
SAM1990WRNO,2020-01-27-12-01-45,8,14,0.6268471196828818,right,both,ambiguous-switch,61,3,right,right,0.263
SAM1990WRNO,2020-01-27-12-01-45,8,15,0.5445022880219997,right,probe,biased-switch,-1,-12,right,right,0.215
SAM1990WRNO,2020-01-27-12-01-45,8,16,0.643724800088057,right,both,biased-switch,54,-12,right,right,0.186
SAM1990WRNO,2020-01-27-12-01-45,8,17,0.6101449719941293,right,probe,ambiguous-switch,-1,12,right,right,0.137
SAM1990WRNO,2020-01-27-12-01-45,8,18,0.5802513573489247,right,both,ambiguous-switch,65,12,right,right,0.353
SAM1990WRNO,2020-01-27-12-01-45,8,19,0.5131162936114464,left,probe,ambiguous-switch,-1,18,left,left,0.204
SAM1990WRNO,2020-01-27-12-01-45,8,20,0.6332659268489166,left,both,ambiguous-switch,60,18,left,left,0.242
SAM1990WRNO,2020-01-27-12-01-45,8,21,0.5891232805686024,left,probe,biased-switch,-1,18,left,left,0.224
SAM1990WRNO,2020-01-27-12-01-45,8,22,0.5545581567042324,left,both,biased-switch,65,18,left,left,0.452
SAM1990WRNO,2020-01-27-12-01-45,8,23,0.5369899543939187,left,probe,ambiguous-switch,-1,0,left,left,0.383
SAM1990WRNO,2020-01-27-12-01-45,8,24,0.5592804231430976,left,both,ambiguous-switch,57,0,left,left,0.223
SAM1990WRNO,2020-01-27-12-01-45,8,25,0.6957676250291924,left,probe,ambiguous-switch,-1,-6,left,left,0.256
SAM1990WRNO,2020-01-27-12-01-45,8,26,0.5407273549019189,left,both,ambiguous-switch,58,-6,left,left,0.209
SAM1990WRNO,2020-01-27-12-01-45,8,27,0.6239235219693016,right,probe,ambiguous-switch,-1,-3,right,right,0.226
SAM1990WRNO,2020-01-27-12-01-45,8,28,0.6349905099728692,right,both,ambiguous-switch,62,-3,right,right,0.192
SAM1990WRNO,2020-01-27-12-01-45,8,29,0.6184604145612977,left,probe,biased-switch,-1,-18,left,left,0.264
SAM1990WRNO,2020-01-27-12-01-45,8,30,0.595681473810316,left,both,biased-switch,63,-18,left,left,0.096
SAM1990WRNO,2020-01-27-12-01-45,8,31,0.5342151897078133,left,probe,ambiguous-switch,-1,6,left,left,0.234
SAM1990WRNO,2020-01-27-12-01-45,8,32,0.5486001190828899,left,both,ambiguous-switch,64,6,left,left,0.026
SAM1990WRNO,2020-01-27-12-01-45,8,33,0.5414834862800235,right,probe,ambiguous-switch,-1,-18,right,right,0.345
SAM1990WRNO,2020-01-27-12-01-45,8,34,0.5212094659134799,right,both,ambiguous-switch,56,-18,right,right,0.195
SAM1990WRNO,2020-01-27-12-01-45,8,35,0.548560384017239,left,probe,biased-switch,-1,-3,left,left,0.224
SAM1990WRNO,2020-01-27-12-01-45,8,36,0.5670687792918117,left,both,biased-switch,65,-3,left,left,1.395
SAM1990WRNO,2020-01-27-12-01-45,8,37,0.6492680610830766,left,probe,biased-switch,-1,24,left,left,0.204
SAM1990WRNO,2020-01-27-12-01-45,8,38,0.6544128146829719,left,both,biased-switch,65,24,left,left,0.093
SAM1990WRNO,2020-01-27-12-01-45,8,39,0.516716925704016,right,probe,biased-switch,-1,0,right,right,0.29
SAM1990WRNO,2020-01-27-12-01-45,8,40,0.5799039129238831,right,both,biased-switch,59,0,right,right,0.22
SAM1990WRNO,2020-01-27-12-01-45,8,41,0.6989770456676635,right,probe,ambiguous-switch,-1,24,right,right,0.204
SAM1990WRNO,2020-01-27-12-01-45,8,42,0.6302266561994911,right,both,ambiguous-switch,61,24,right,right,0.223
SAM1990WRNO,2020-01-27-12-01-45,8,43,0.6665589788297338,left,probe,biased-switch,-1,12,left,left,0.018
SAM1990WRNO,2020-01-27-12-01-45,8,44,0.6334984214656407,left,both,biased-switch,56,12,left,left,0.234
SAM1990WRNO,2020-01-27-12-01-45,8,45,0.5342167904782431,right,probe,biased-switch,-1,3,right,right,0.282
SAM1990WRNO,2020-01-27-12-01-45,8,46,0.650093894068207,right,both,biased-switch,58,3,right,right,0.232
SAM1990WRNO,2020-01-27-12-01-45,8,47,0.6789459987027896,right,probe,biased-switch,-1,6,right,right,0.267
SAM1990WRNO,2020-01-27-12-01-45,8,48,0.6193425430850782,right,both,biased-switch,62,6,right,right,0.289
SAM1990WRNO,2020-01-27-12-01-45,8,49,0.6449858452017949,right,probe,biased-switch,-1,-6,right,right,0.239
SAM1990WRNO,2020-01-27-12-01-45,8,50,0.612242336294021,right,both,biased-switch,62,-6,right,right,0.244
SAM1990WRNO,2020-01-27-12-01-45,8,51,0.6878534607995429,left,probe,ambiguous-switch,-1,-12,left,left,0.317
SAM1990WRNO,2020-01-27-12-01-45,8,52,0.6244135215990894,left,both,ambiguous-switch,61,-12,left,left,0.239
SAM1990WRNO,2020-01-27-12-01-45,8,53,0.591357216528882,right,probe,ambiguous-switch,-1,3,right,right,0.231
SAM1990WRNO,2020-01-27-12-01-45,8,54,0.6021858015187527,right,both,ambiguous-switch,64,3,right,right,0.351
SAM1990WRNO,2020-01-27-12-01-45,8,55,0.6326564015477901,right,probe,biased-switch,-1,-12,right,right,0.336
SAM1990WRNO,2020-01-27-12-01-45,8,56,0.6185735054230471,right,both,biased-switch,63,-12,right,right,0.26
SAM1990WRNO,2020-01-27-12-01-45,8,57,0.536420665596634,right,probe,ambiguous-switch,-1,12,right,right,0.308
SAM1990WRNO,2020-01-27-12-01-45,8,58,0.5852703511106276,right,both,ambiguous-switch,63,12,right,right,0.173
SAM1990WRNO,2020-01-27-12-01-45,8,59,0.557317396951904,left,probe,ambiguous-switch,-1,18,left,left,0.268
SAM1990WRNO,2020-01-27-12-01-45,8,60,0.5796803894604049,left,both,ambiguous-switch,61,18,left,left,0.235
SAM1990WRNO,2020-01-27-12-01-45,8,61,0.6058430632878421,left,probe,biased-switch,-1,18,left,left,0.235
SAM1990WRNO,2020-01-27-12-01-45,8,62,0.5809300316939495,left,both,biased-switch,58,18,left,left,0.269
SAM1990WRNO,2020-01-27-12-01-45,8,63,0.621066940084437,right,probe,ambiguous-switch,-1,0,right,right,0.099
SAM1990WRNO,2020-01-27-12-01-45,8,64,0.5025612559862427,right,both,ambiguous-switch,61,0,right,right,0.322
SAM1990WRNO,2020-01-27-12-01-45,8,65,0.5243798820871649,right,probe,ambiguous-switch,-1,-6,right,right,0.34
SAM1990WRNO,2020-01-27-12-01-45,8,66,0.6308504886320944,right,both,ambiguous-switch,60,-6,right,right,0.209
SAM1990WRNO,2020-01-27-12-01-45,8,67,0.5963109932952935,left,probe,ambiguous-switch,-1,-3,left,left,0.286
SAM1990WRNO,2020-01-27-12-01-45,8,68,0.5022052009596724,left,both,ambiguous-switch,65,-3,left,left,0.217
SAM1990WRNO,2020-01-27-12-01-45,8,69,0.5571488272190429,right,probe,biased-switch,-1,-18,right,right,0.236
SAM1990WRNO,2020-01-27-12-01-45,8,70,0.6412073167958988,right,both,biased-switch,59,-18,right,right,0.244
SAM1990WRNO,2020-01-27-12-01-45,8,71,0.5679158054638626,right,probe,ambiguous-switch,-1,6,right,right,0.234
SAM1990WRNO,2020-01-27-12-01-45,8,72,0.6201557255459836,right,both,ambiguous-switch,64,6,right,right,0.222
SAM1990WRNO,2020-01-27-12-01-45,8,73,0.6484111787713984,right,probe,ambiguous-switch,-1,-18,right,right,0.332
SAM1990WRNO,2020-01-27-12-01-45,8,74,0.6088604507853828,right,both,ambiguous-switch,61,-18,right,right,0.429
SAM1990WRNO,2020-01-27-12-01-45,8,75,0.6916331061337799,left,probe,biased-switch,-1,-3,left,left,0.264
SAM1990WRNO,2020-01-27-12-01-45,8,76,0.5920747070394675,left,both,biased-switch,65,-3,left,left,0.197
SAM1990WRNO,2020-01-27-12-01-45,8,77,0.6432451178100839,left,probe,biased-switch,-1,24,left,left,0.195
SAM1990WRNO,2020-01-27-12-01-45,8,78,0.5264609539530483,left,both,biased-switch,58,24,left,left,0.254
SAM1990WRNO,2020-01-27-12-01-45,8,79,0.5307592446389426,right,probe,biased-switch,-1,0,right,right,0.213
SAM1990WRNO,2020-01-27-12-01-45,8,80,0.6473493951614347,right,both,biased-switch,64,0,right,right,0.185
SAM1990WRNO,2020-01-27-12-01-45,9,1,0.6540941268562291,right,probe,ambiguous-switch,-1,-6,right,right,0.344
SAM1990WRNO,2020-01-27-12-01-45,9,2,0.5753365194031376,right,both,ambiguous-switch,60,-6,right,right,0.285
SAM1990WRNO,2020-01-27-12-01-45,9,3,0.522385986021552,right,probe,ambiguous-switch,-1,0,right,right,0.222
SAM1990WRNO,2020-01-27-12-01-45,9,4,0.6427728589682298,right,both,ambiguous-switch,63,0,right,right,0.24
SAM1990WRNO,2020-01-27-12-01-45,9,5,0.6964624331645508,left,probe,biased-switch,-1,0,left,left,0.27
SAM1990WRNO,2020-01-27-12-01-45,9,6,0.547659121394647,left,both,biased-switch,59,0,left,left,0.246
SAM1990WRNO,2020-01-27-12-01-45,9,7,0.6480702377846439,left,probe,biased-switch,-1,-18,left,left,0.26
SAM1990WRNO,2020-01-27-12-01-45,9,8,0.6187098242299516,left,both,biased-switch,66,-18,left,left,0.271
SAM1990WRNO,2020-01-27-12-01-45,9,9,0.5307104029774304,left,probe,ambiguous-switch,-1,-3,left,left,0.491
SAM1990WRNO,2020-01-27-12-01-45,9,10,0.5097554328903886,left,both,ambiguous-switch,60,-3,left,left,0.29
SAM1990WRNO,2020-01-27-12-01-45,9,11,0.618328957944221,right,probe,biased-switch,-1,12,right,right,0.264
SAM1990WRNO,2020-01-27-12-01-45,9,12,0.6592322582162115,right,both,biased-switch,57,12,right,right,0.271
SAM1990WRNO,2020-01-27-12-01-45,9,13,0.5236972262492355,left,probe,biased-switch,-1,24,left,left,0.195
SAM1990WRNO,2020-01-27-12-01-45,9,14,0.5678160448850361,left,both,biased-switch,58,24,left,left,0.223
SAM1990WRNO,2020-01-27-12-01-45,9,15,0.6382143682714955,left,probe,ambiguous-switch,-1,-12,left,left,0.203
SAM1990WRNO,2020-01-27-12-01-45,9,16,0.698924380370276,left,both,ambiguous-switch,64,-12,left,left,0.185
SAM1990WRNO,2020-01-27-12-01-45,9,17,0.6421479824753134,right,probe,biased-switch,-1,6,right,right,0.218
SAM1990WRNO,2020-01-27-12-01-45,9,18,0.5984344537587781,right,both,biased-switch,60,6,right,right,0.213
SAM1990WRNO,2020-01-27-12-01-45,9,19,0.5866561826696399,left,probe,biased-switch,-1,3,left,left,0.22
SAM1990WRNO,2020-01-27-12-01-45,9,20,0.5095340889668473,left,both,biased-switch,56,3,left,left,0.261
SAM1990WRNO,2020-01-27-12-01-45,9,21,0.5478355804748962,left,probe,biased-switch,-1,-3,left,left,0.383
SAM1990WRNO,2020-01-27-12-01-45,9,22,0.5698844859888931,left,both,biased-switch,63,-3,left,left,0.217
SAM1990WRNO,2020-01-27-12-01-45,9,23,0.5636649605944555,right,probe,ambiguous-switch,-1,12,right,right,0.252
SAM1990WRNO,2020-01-27-12-01-45,9,24,0.579801093250559,right,both,ambiguous-switch,55,12,right,right,0.256
SAM1990WRNO,2020-01-27-12-01-45,9,25,0.6346161797819714,left,probe,ambiguous-switch,-1,6,left,left,0.263
SAM1990WRNO,2020-01-27-12-01-45,9,26,0.5049368561025461,left,both,ambiguous-switch,63,6,left,left,0.231
SAM1990WRNO,2020-01-27-12-01-45,9,27,0.6039986698896358,left,probe,biased-switch,-1,18,left,left,0.184
SAM1990WRNO,2020-01-27-12-01-45,9,28,0.5965949495950765,left,both,biased-switch,62,18,left,left,0.291
SAM1990WRNO,2020-01-27-12-01-45,9,29,0.6548255593372037,left,probe,ambiguous-switch,-1,3,left,left,0.091
SAM1990WRNO,2020-01-27-12-01-45,9,30,0.6646184922146094,left,both,ambiguous-switch,58,3,left,left,0.349
SAM1990WRNO,2020-01-27-12-01-45,9,31,0.6133783191750332,right,probe,biased-switch,-1,-12,right,right,0.192
SAM1990WRNO,2020-01-27-12-01-45,9,32,0.5510852795965351,right,both,biased-switch,62,-12,right,right,0.244
SAM1990WRNO,2020-01-27-12-01-45,9,33,0.6999599551542797,left,probe,biased-switch,-1,-6,left,left,0.217
SAM1990WRNO,2020-01-27-12-01-45,9,34,0.5765851954381043,left,both,biased-switch,62,-6,left,left,0.207
SAM1990WRNO,2020-01-27-12-01-45,9,35,0.5937776504275936,right,probe,ambiguous-switch,-1,24,right,right,0.205
SAM1990WRNO,2020-01-27-12-01-45,9,36,0.5302977346687161,right,both,ambiguous-switch,62,24,right,right,0.315
SAM1990WRNO,2020-01-27-12-01-45,9,37,0.5709355959740886,right,probe,ambiguous-switch,-1,18,right,right,0.341
SAM1990WRNO,2020-01-27-12-01-45,9,38,0.6793211435003147,right,both,ambiguous-switch,61,18,right,right,0.229
SAM1990WRNO,2020-01-27-12-01-45,9,39,0.6221429398049856,left,probe,ambiguous-switch,-1,-18,left,left,0.422
SAM1990WRNO,2020-01-27-12-01-45,9,40,0.6476162322233499,left,both,ambiguous-switch,58,-18,left,left,0.25
SAM1990WRNO,2020-01-27-12-01-45,9,41,0.5181469095122876,left,probe,ambiguous-switch,-1,-6,left,left,0.325
SAM1990WRNO,2020-01-27-12-01-45,9,42,0.6281233095693494,left,both,ambiguous-switch,62,-6,left,left,0.227
SAM1990WRNO,2020-01-27-12-01-45,9,43,0.5296807436100078,right,probe,ambiguous-switch,-1,0,right,right,0.219
SAM1990WRNO,2020-01-27-12-01-45,9,44,0.5941360381579436,right,both,ambiguous-switch,55,0,right,right,0.197
SAM1990WRNO,2020-01-27-12-01-45,9,45,0.6133146715708797,right,probe,biased-switch,-1,0,right,right,0.215
SAM1990WRNO,2020-01-27-12-01-45,9,46,0.6776618552516468,right,both,biased-switch,65,0,right,right,0.246
SAM1990WRNO,2020-01-27-12-01-45,9,47,0.566527813478954,right,probe,biased-switch,-1,-18,right,right,0.23
SAM1990WRNO,2020-01-27-12-01-45,9,48,0.5065072617939532,right,both,biased-switch,59,-18,right,right,0.291
SAM1990WRNO,2020-01-27-12-01-45,9,49,0.5347120987162173,left,probe,ambiguous-switch,-1,-3,left,left,0.258
SAM1990WRNO,2020-01-27-12-01-45,9,50,0.6330196091632765,left,both,ambiguous-switch,63,-3,left,left,0.189
SAM1990WRNO,2020-01-27-12-01-45,9,51,0.6450102658921829,left,probe,biased-switch,-1,12,left,left,0.313
SAM1990WRNO,2020-01-27-12-01-45,9,52,0.5220552492167051,left,both,biased-switch,59,12,left,left,0.177
SAM1990WRNO,2020-01-27-12-01-45,9,53,0.6926015668946444,left,probe,biased-switch,-1,24,left,left,0.279
SAM1990WRNO,2020-01-27-12-01-45,9,54,0.5585095403655757,left,both,biased-switch,61,24,left,left,0.161
SAM1990WRNO,2020-01-27-12-01-45,9,55,0.5161146680007861,right,probe,ambiguous-switch,-1,-12,right,right,0.194
SAM1990WRNO,2020-01-27-12-01-45,9,56,0.6376000000652803,right,both,ambiguous-switch,58,-12,right,right,0.192
SAM1990WRNO,2020-01-27-12-01-45,9,57,0.5504994892300992,left,probe,biased-switch,-1,6,left,left,0.241
SAM1990WRNO,2020-01-27-12-01-45,9,58,0.5337179261977594,left,both,biased-switch,58,6,left,left,0.192
SAM1990WRNO,2020-01-27-12-01-45,9,59,0.5791951934220873,right,probe,biased-switch,-1,3,right,right,0.141
SAM1990WRNO,2020-01-27-12-01-45,9,60,0.5161137980865311,right,both,biased-switch,54,3,right,right,0.077
SAM1990WRNO,2020-01-27-12-01-45,9,61,0.677318115334191,right,probe,biased-switch,-1,-3,right,right,0.176
SAM1990WRNO,2020-01-27-12-01-45,9,62,0.6019077213607051,right,both,biased-switch,60,-3,right,right,0.191
SAM1990WRNO,2020-01-27-12-01-45,9,63,0.6875313306035243,right,probe,ambiguous-switch,-1,12,right,right,0.251
SAM1990WRNO,2020-01-27-12-01-45,9,64,0.5341960817521455,right,both,ambiguous-switch,56,12,right,right,0.196
SAM1990WRNO,2020-01-27-12-01-45,9,65,0.6533406567367446,left,probe,ambiguous-switch,-1,6,left,left,0.052
SAM1990WRNO,2020-01-27-12-01-45,9,66,0.5403350698132384,left,both,ambiguous-switch,57,6,left,left,0.233
SAM1990WRNO,2020-01-27-12-01-45,9,67,0.66327254232996,left,probe,biased-switch,-1,18,left,left,0.238
SAM1990WRNO,2020-01-27-12-01-45,9,68,0.5702316799661657,left,both,biased-switch,55,18,left,left,1.102
SAM1990WRNO,2020-01-27-12-01-45,9,69,0.5880361295979627,right,probe,ambiguous-switch,-1,3,right,right,0.364
SAM1990WRNO,2020-01-27-12-01-45,9,70,0.5766459775557657,right,both,ambiguous-switch,62,3,right,right,0.185
SAM1990WRNO,2020-01-27-12-01-45,9,71,0.6806260313905219,right,probe,biased-switch,-1,-12,right,right,0.206
SAM1990WRNO,2020-01-27-12-01-45,9,72,0.6842992487674228,right,both,biased-switch,55,-12,right,right,0.238
SAM1990WRNO,2020-01-27-12-01-45,9,73,0.6747604350711998,right,probe,biased-switch,-1,-6,right,right,0.399
SAM1990WRNO,2020-01-27-12-01-45,9,74,0.5535389841484332,right,both,biased-switch,59,-6,right,right,0.232
SAM1990WRNO,2020-01-27-12-01-45,9,75,0.5838307802430199,left,probe,ambiguous-switch,-1,24,left,left,0.203
SAM1990WRNO,2020-01-27-12-01-45,9,76,0.5049327199749,left,both,ambiguous-switch,59,24,left,left,0.243
SAM1990WRNO,2020-01-27-12-01-45,9,77,0.5711197672164943,right,probe,ambiguous-switch,-1,18,right,right,0.188
SAM1990WRNO,2020-01-27-12-01-45,9,78,0.6060535760561847,right,both,ambiguous-switch,64,18,right,right,0.263
SAM1990WRNO,2020-01-27-12-01-45,9,79,0.6117035288549701,left,probe,ambiguous-switch,-1,-18,left,left,0.192
SAM1990WRNO,2020-01-27-12-01-45,9,80,0.6888220158831062,left,both,ambiguous-switch,59,-18,left,left,0.122
SAM1990WRNO,2020-01-27-12-01-45,10,1,0.5207076751968869,right,probe,ambiguous-switch,-1,3,right,right,0.234
SAM1990WRNO,2020-01-27-12-01-45,10,2,0.571912865599258,right,both,ambiguous-switch,62,3,right,right,0.205
SAM1990WRNO,2020-01-27-12-01-45,10,3,0.6102302418509535,left,probe,biased-switch,-1,24,left,left,0.185
SAM1990WRNO,2020-01-27-12-01-45,10,4,0.6941036265181995,left,both,biased-switch,65,24,left,left,0.201
SAM1990WRNO,2020-01-27-12-01-45,10,5,0.6544223652349004,right,probe,biased-switch,-1,0,right,right,0.186
SAM1990WRNO,2020-01-27-12-01-45,10,6,0.5534438150881356,right,both,biased-switch,65,0,right,right,0.173
SAM1990WRNO,2020-01-27-12-01-45,10,7,0.5535794245351715,right,probe,ambiguous-switch,-1,18,right,right,0.187
SAM1990WRNO,2020-01-27-12-01-45,10,8,0.6807499544070921,right,both,ambiguous-switch,64,18,right,right,0.015
SAM1990WRNO,2020-01-27-12-01-45,10,9,0.5492106915996361,left,probe,ambiguous-switch,-1,-12,left,left,0.272
SAM1990WRNO,2020-01-27-12-01-45,10,10,0.5736503732725979,left,both,ambiguous-switch,59,-12,left,left,0.16
SAM1990WRNO,2020-01-27-12-01-45,10,11,0.5600885875635053,right,probe,biased-switch,-1,18,right,right,0.22
SAM1990WRNO,2020-01-27-12-01-45,10,12,0.6825930483621163,right,both,biased-switch,56,18,right,right,0.206
SAM1990WRNO,2020-01-27-12-01-45,10,13,0.5656814143489043,left,probe,biased-switch,-1,-18,left,left,0.117
SAM1990WRNO,2020-01-27-12-01-45,10,14,0.5949335804011177,left,both,biased-switch,62,-18,left,left,0.186
SAM1990WRNO,2020-01-27-12-01-45,10,15,0.5195136401694138,left,probe,ambiguous-switch,-1,-18,left,left,0.185
SAM1990WRNO,2020-01-27-12-01-45,10,16,0.5288220397895387,left,both,ambiguous-switch,65,-18,left,left,0.381
SAM1990WRNO,2020-01-27-12-01-45,10,17,0.6792168008153607,left,probe,biased-switch,-1,3,left,left,0.209
SAM1990WRNO,2020-01-27-12-01-45,10,18,0.5853198336228872,left,both,biased-switch,60,3,left,left,0.232
SAM1990WRNO,2020-01-27-12-01-45,10,19,0.6225989877693611,right,probe,ambiguous-switch,-1,24,right,right,0.212
SAM1990WRNO,2020-01-27-12-01-45,10,20,0.577025130110639,right,both,ambiguous-switch,56,24,right,right,0.147
SAM1990WRNO,2020-01-27-12-01-45,10,21,0.6060587142695885,left,probe,ambiguous-switch,-1,12,left,left,0.199
SAM1990WRNO,2020-01-27-12-01-45,10,22,0.5202684942516286,left,both,ambiguous-switch,59,12,left,left,0.219
SAM1990WRNO,2020-01-27-12-01-45,10,23,0.5238954451835414,right,probe,ambiguous-switch,-1,0,right,right,0.418
SAM1990WRNO,2020-01-27-12-01-45,10,24,0.6850982417778867,right,both,ambiguous-switch,61,0,right,right,0.151
SAM1990WRNO,2020-01-27-12-01-45,10,25,0.6285998210433668,right,probe,ambiguous-switch,-1,-3,right,right,0.222
SAM1990WRNO,2020-01-27-12-01-45,10,26,0.6096433690146881,right,both,ambiguous-switch,59,-3,right,right,0.189
SAM1990WRNO,2020-01-27-12-01-45,10,27,0.5255373234397952,left,probe,biased-switch,-1,-12,left,left,0.224
SAM1990WRNO,2020-01-27-12-01-45,10,28,0.6045615442563133,left,both,biased-switch,57,-12,left,left,0.199
SAM1990WRNO,2020-01-27-12-01-45,10,29,0.660716441076184,left,probe,ambiguous-switch,-1,-6,left,left,0.202
SAM1990WRNO,2020-01-27-12-01-45,10,30,0.6698447235003212,left,both,ambiguous-switch,54,-6,left,left,0.216
SAM1990WRNO,2020-01-27-12-01-45,10,31,0.5258359532853828,right,probe,biased-switch,-1,-3,right,right,0.221
SAM1990WRNO,2020-01-27-12-01-45,10,32,0.5286950187842404,right,both,biased-switch,65,-3,right,right,0.189
SAM1990WRNO,2020-01-27-12-01-45,10,33,0.6133109532031983,right,probe,biased-switch,-1,6,right,right,0.097
SAM1990WRNO,2020-01-27-12-01-45,10,34,0.532316135372842,right,both,biased-switch,55,6,right,right,0.241
SAM1990WRNO,2020-01-27-12-01-45,10,35,0.6869712666498422,left,probe,biased-switch,-1,-6,left,left,0.212
SAM1990WRNO,2020-01-27-12-01-45,10,36,0.5702895736014081,left,both,biased-switch,62,-6,left,left,0.203
SAM1990WRNO,2020-01-27-12-01-45,10,37,0.6628972708120797,right,probe,ambiguous-switch,-1,6,right,right,0.203
SAM1990WRNO,2020-01-27-12-01-45,10,38,0.5784314406461268,right,both,ambiguous-switch,57,6,right,right,0.208
SAM1990WRNO,2020-01-27-12-01-45,10,39,0.5930154908964388,left,probe,biased-switch,-1,12,left,left,0.191
SAM1990WRNO,2020-01-27-12-01-45,10,40,0.6881038603544365,left,both,biased-switch,62,12,left,left,0.312
SAM1990WRNO,2020-01-27-12-01-45,10,41,0.6522834975278936,right,probe,ambiguous-switch,-1,3,right,right,0.183
SAM1990WRNO,2020-01-27-12-01-45,10,42,0.5715892729050043,right,both,ambiguous-switch,58,3,right,right,0.262
SAM1990WRNO,2020-01-27-12-01-45,10,43,0.5750555792250056,right,probe,biased-switch,-1,24,right,right,0.156
SAM1990WRNO,2020-01-27-12-01-45,10,44,0.5453859635878081,right,both,biased-switch,59,24,right,right,0.284
SAM1990WRNO,2020-01-27-12-01-45,10,45,0.6518403896649994,left,probe,biased-switch,-1,0,left,left,0.246
SAM1990WRNO,2020-01-27-12-01-45,10,46,0.6853959212911839,left,both,biased-switch,60,0,left,left,0.253
SAM1990WRNO,2020-01-27-12-01-45,10,47,0.5718657076748787,right,probe,ambiguous-switch,-1,18,right,right,0.194
SAM1990WRNO,2020-01-27-12-01-45,10,48,0.5998990593786876,right,both,ambiguous-switch,62,18,right,right,0.22
SAM1990WRNO,2020-01-27-12-01-45,10,49,0.6623607414180694,left,probe,ambiguous-switch,-1,-12,left,left,0.372
SAM1990WRNO,2020-01-27-12-01-45,10,50,0.5573506718674864,left,both,ambiguous-switch,54,-12,left,left,0.214
SAM1990WRNO,2020-01-27-12-01-45,10,51,0.5530868712054143,left,probe,biased-switch,-1,18,left,left,0.363
SAM1990WRNO,2020-01-27-12-01-45,10,52,0.5032510797628919,left,both,biased-switch,62,18,left,left,0.236
SAM1990WRNO,2020-01-27-12-01-45,10,53,0.5479726042311512,right,probe,biased-switch,-1,-18,right,right,0.205
SAM1990WRNO,2020-01-27-12-01-45,10,54,0.6426335692879973,right,both,biased-switch,57,-18,right,right,0.392
SAM1990WRNO,2020-01-27-12-01-45,10,55,0.5069233976060661,left,probe,ambiguous-switch,-1,-18,left,left,0.228
SAM1990WRNO,2020-01-27-12-01-45,10,56,0.6112856670485295,left,both,ambiguous-switch,62,-18,left,left,0.257
SAM1990WRNO,2020-01-27-12-01-45,10,57,0.6685611569112464,right,probe,biased-switch,-1,3,right,right,0.182
SAM1990WRNO,2020-01-27-12-01-45,10,58,0.5736272252316545,right,both,biased-switch,56,3,right,right,0.444
SAM1990WRNO,2020-01-27-12-01-45,10,59,0.5800976513517376,right,probe,ambiguous-switch,-1,24,right,right,0.431
SAM1990WRNO,2020-01-27-12-01-45,10,60,0.6438937758897023,right,both,ambiguous-switch,60,24,right,right,0.229
SAM1990WRNO,2020-01-27-12-01-45,10,61,0.6576555294198386,left,probe,ambiguous-switch,-1,12,left,left,0.182
SAM1990WRNO,2020-01-27-12-01-45,10,62,0.6657826071273607,left,both,ambiguous-switch,61,12,left,left,0.202
SAM1990WRNO,2020-01-27-12-01-45,10,63,0.6887739154668969,left,probe,ambiguous-switch,-1,0,left,left,0.203
SAM1990WRNO,2020-01-27-12-01-45,10,64,0.6700322902484673,left,both,ambiguous-switch,59,0,left,left,0.194
SAM1990WRNO,2020-01-27-12-01-45,10,65,0.627364983910007,left,probe,ambiguous-switch,-1,-3,left,left,0.218
SAM1990WRNO,2020-01-27-12-01-45,10,66,0.5939503621584293,left,both,ambiguous-switch,57,-3,left,left,0.224
SAM1990WRNO,2020-01-27-12-01-45,10,67,0.60734755895605,left,probe,biased-switch,-1,-12,left,left,0.224
SAM1990WRNO,2020-01-27-12-01-45,10,68,0.5165863436323099,left,both,biased-switch,59,-12,left,left,0.127
SAM1990WRNO,2020-01-27-12-01-45,10,69,0.569156357506174,left,probe,ambiguous-switch,-1,-6,left,left,0.215
SAM1990WRNO,2020-01-27-12-01-45,10,70,0.6450013876304878,left,both,ambiguous-switch,63,-6,left,left,0.252
SAM1990WRNO,2020-01-27-12-01-45,10,71,0.5250833981650643,left,probe,biased-switch,-1,-3,left,left,0.473
SAM1990WRNO,2020-01-27-12-01-45,10,72,0.6817398091712149,left,both,biased-switch,59,-3,left,left,0.184
SAM1990WRNO,2020-01-27-12-01-45,10,73,0.6879937979413243,left,probe,biased-switch,-1,6,left,left,0.18
SAM1990WRNO,2020-01-27-12-01-45,10,74,0.573289818317396,left,both,biased-switch,65,6,left,left,0.162
SAM1990WRNO,2020-01-27-12-01-45,10,75,0.5240302017506288,right,probe,biased-switch,-1,-6,right,right,0.194
SAM1990WRNO,2020-01-27-12-01-45,10,76,0.6018049874695981,right,both,biased-switch,59,-6,right,right,0.189
SAM1990WRNO,2020-01-27-12-01-45,10,77,0.6331553257943187,right,probe,ambiguous-switch,-1,6,right,right,0.234
SAM1990WRNO,2020-01-27-12-01-45,10,78,0.6481257897608451,right,both,ambiguous-switch,55,6,right,right,0.212
SAM1990WRNO,2020-01-27-12-01-45,10,79,0.56398657680288,left,probe,biased-switch,-1,12,left,left,0.206
SAM1990WRNO,2020-01-27-12-01-45,10,80,0.6718032861573363,left,both,biased-switch,64,12,left,left,0.245
