Participant,Session,Block,Trial,OnsetDelay,ProbeLocation,WhatIsReported,Condition,TriggerTime,ProbeSOA,PrimeDirection,Response,RT
HKG2000WRNO,2019-09-25-08-37-28,1,1,0.6423729955435041,left,probe,ambiguous-switch,-1,10,left,left,0.49
HKG2000WRNO,2019-09-25-08-37-28,1,2,0.6369992118921897,left,both,ambiguous-switch,92,10,left,left,0.592
HKG2000WRNO,2019-09-25-08-37-28,1,3,0.5352773988011233,right,probe,biased-switch,-1,-5,left,left,0.887
HKG2000WRNO,2019-09-25-08-37-28,1,4,0.6035952091300006,right,both,biased-switch,100,-5,left,left,0.749
HKG2000WRNO,2019-09-25-08-37-28,1,5,0.5777209492829642,left,probe,ambiguous-switch,-1,-5,left,left,0.919
HKG2000WRNO,2019-09-25-08-37-28,1,6,0.5520105172681891,left,both,ambiguous-switch,104,-5,left,left,0.501
HKG2000WRNO,2019-09-25-08-37-28,1,7,0.6784610680780596,left,probe,ambiguous-stable,-1,5,left,left,0.457
HKG2000WRNO,2019-09-25-08-37-28,1,8,0.5296007510810969,left,both,ambiguous-stable,107,5,right,left,0.337
HKG2000WRNO,2019-09-25-08-37-28,1,9,0.5447024841824586,right,probe,ambiguous-switch,-1,40,left,left,0.721
HKG2000WRNO,2019-09-25-08-37-28,1,10,0.5726753262938662,right,both,ambiguous-switch,104,40,left,left,0.49
HKG2000WRNO,2019-09-25-08-37-28,1,11,0.5753311143019048,left,probe,ambiguous-switch,-1,20,left,left,0.57
HKG2000WRNO,2019-09-25-08-37-28,1,12,0.6675988616432411,left,both,ambiguous-switch,104,20,left,right,0.197
HKG2000WRNO,2019-09-25-08-37-28,1,13,0.5412467156104324,right,probe,ambiguous-switch,-1,30,left,left,0.595
HKG2000WRNO,2019-09-25-08-37-28,1,14,0.6927179715477836,right,both,ambiguous-switch,101,30,left,left,0.108
HKG2000WRNO,2019-09-25-08-37-28,1,15,0.6567566575650144,left,probe,ambiguous-switch,-1,-20,left,left,0.666
HKG2000WRNO,2019-09-25-08-37-28,1,16,0.5224891162364511,left,both,ambiguous-switch,102,-20,left,left,0.126
HKG2000WRNO,2019-09-25-08-37-28,1,17,0.6845906334141186,right,probe,ambiguous-stable,-1,-10,left,left,0.563
HKG2000WRNO,2019-09-25-08-37-28,1,18,0.6956117963537414,right,both,ambiguous-stable,95,-10,right,left,0.285
HKG2000WRNO,2019-09-25-08-37-28,1,19,0.6603316459761569,right,probe,ambiguous-stable,-1,40,left,left,0.475
HKG2000WRNO,2019-09-25-08-37-28,1,20,0.6001481091652788,right,both,ambiguous-stable,106,40,right,left,0.258
HKG2000WRNO,2019-09-25-08-37-28,1,21,0.5416204916320133,left,probe,biased-switch,-1,20,left,left,0.533
HKG2000WRNO,2019-09-25-08-37-28,1,22,0.633754575646885,left,both,biased-switch,91,20,left,right,0.008
HKG2000WRNO,2019-09-25-08-37-28,1,23,0.6934426595823964,right,probe,ambiguous-switch,-1,5,left,left,0.287
HKG2000WRNO,2019-09-25-08-37-28,1,24,0.6682616294498106,right,both,ambiguous-switch,109,5,left,left,2.082
HKG2000WRNO,2019-09-25-08-37-28,1,25,0.5926028206460723,left,probe,ambiguous-stable,-1,-20,left,left,0.541
HKG2000WRNO,2019-09-25-08-37-28,1,26,0.5524576505155369,left,both,ambiguous-stable,93,-20,right,right,0.071
HKG2000WRNO,2019-09-25-08-37-28,1,27,0.6982189870736127,right,probe,ambiguous-stable,-1,-5,left,left,0.312
HKG2000WRNO,2019-09-25-08-37-28,1,28,0.6147140255855811,right,both,ambiguous-stable,96,-5,right,left,0.009
HKG2000WRNO,2019-09-25-08-37-28,1,29,0.5757212218999435,right,probe,biased-switch,-1,10,left,left,0.431
HKG2000WRNO,2019-09-25-08-37-28,1,30,0.6554122720021529,right,both,biased-switch,93,10,left,left,0.098
HKG2000WRNO,2019-09-25-08-37-28,1,31,0.6328356111385585,right,probe,biased-switch,-1,-30,left,left,0.284
HKG2000WRNO,2019-09-25-08-37-28,1,32,0.5745914714887718,right,both,biased-switch,110,-30,left,left,0.239
HKG2000WRNO,2019-09-25-08-37-28,1,33,0.5178392846267598,left,probe,ambiguous-switch,-1,-10,right,right,0.392
HKG2000WRNO,2019-09-25-08-37-28,1,34,0.6660555596753653,left,both,ambiguous-switch,109,-10,right,right,1.496
HKG2000WRNO,2019-09-25-08-37-28,1,35,0.6904925588537902,right,probe,biased-switch,-1,30,left,left,0.316
HKG2000WRNO,2019-09-25-08-37-28,1,36,0.5336327040686397,right,both,biased-switch,106,30,left,left,1.362
HKG2000WRNO,2019-09-25-08-37-28,1,37,0.6171160324698609,right,probe,ambiguous-stable,-1,10,left,left,0.438
HKG2000WRNO,2019-09-25-08-37-28,1,38,0.5492083500768477,right,both,ambiguous-stable,103,10,right,left,0.161
HKG2000WRNO,2019-09-25-08-37-28,1,39,0.5314486430578382,right,probe,ambiguous-stable,-1,20,left,left,0.233
HKG2000WRNO,2019-09-25-08-37-28,1,40,0.500154849458489,right,both,ambiguous-stable,97,20,right,left,0.18
HKG2000WRNO,2019-09-25-08-37-28,1,41,0.5335095245429621,right,probe,ambiguous-stable,-1,30,left,left,0.318
HKG2000WRNO,2019-09-25-08-37-28,1,42,0.5366525542761752,right,both,ambiguous-stable,102,30,right,left,0.239
HKG2000WRNO,2019-09-25-08-37-28,1,43,0.5069375515307952,right,probe,ambiguous-stable,-1,-30,left,left,0.488
HKG2000WRNO,2019-09-25-08-37-28,1,44,0.671712296467255,right,both,ambiguous-stable,92,-30,right,left,0.231
HKG2000WRNO,2019-09-25-08-37-28,1,45,0.602042864245643,right,probe,biased-switch,-1,40,right,right,0.529
HKG2000WRNO,2019-09-25-08-37-28,1,46,0.6882525713347375,right,both,biased-switch,100,40,right,left,0.611
HKG2000WRNO,2019-09-25-08-37-28,1,47,0.6989120092054515,left,probe,biased-switch,-1,0,right,right,0.366
HKG2000WRNO,2019-09-25-08-37-28,1,48,0.6740542394769102,left,both,biased-switch,102,0,right,left,0.097
HKG2000WRNO,2019-09-25-08-37-28,1,49,0.5051174706009804,left,probe,ambiguous-stable,-1,0,right,right,0.336
HKG2000WRNO,2019-09-25-08-37-28,1,50,0.6019872519265878,left,both,ambiguous-stable,96,0,left,right,0.219
HKG2000WRNO,2019-09-25-08-37-28,1,51,0.5433973526353744,right,probe,ambiguous-switch,-1,-30,left,left,0.3
HKG2000WRNO,2019-09-25-08-37-28,1,52,0.5616858945336181,right,both,ambiguous-switch,96,-30,left,left,1.139
HKG2000WRNO,2019-09-25-08-37-28,1,53,0.6941705147695905,right,probe,biased-switch,-1,5,right,right,0.774
HKG2000WRNO,2019-09-25-08-37-28,1,54,0.5879115314067198,right,both,biased-switch,106,5,right,left,0.323
HKG2000WRNO,2019-09-25-08-37-28,1,55,0.6559587147035538,left,probe,ambiguous-switch,-1,0,right,right,0.121
HKG2000WRNO,2019-09-25-08-37-28,1,56,0.5112664869422311,left,both,ambiguous-switch,109,0,right,right,1.13
HKG2000WRNO,2019-09-25-08-37-28,1,57,0.5545190845903359,left,probe,biased-switch,-1,-20,right,right,0.462
HKG2000WRNO,2019-09-25-08-37-28,1,58,0.5455118584226895,left,both,biased-switch,103,-20,right,right,0.223
HKG2000WRNO,2019-09-25-08-37-28,1,59,0.5254332090981073,right,probe,biased-switch,-1,-10,left,left,0.438
HKG2000WRNO,2019-09-25-08-37-28,1,60,0.5187422320194353,right,both,biased-switch,106,-10,left,left,0.326
HKG2000WRNO,2019-09-25-08-37-28,2,1,0.6297831671573346,right,probe,biased-switch,-1,30,left,left,0.432
HKG2000WRNO,2019-09-25-08-37-28,2,2,0.6437928177978632,right,both,biased-switch,109,30,left,right,0.261
HKG2000WRNO,2019-09-25-08-37-28,2,3,0.5868423862162108,left,probe,ambiguous-switch,-1,-20,right,right,0.288
HKG2000WRNO,2019-09-25-08-37-28,2,4,0.6352298230969998,left,both,ambiguous-switch,94,-20,right,right,0.128
HKG2000WRNO,2019-09-25-08-37-28,2,5,0.6976341906502872,left,probe,ambiguous-stable,-1,-10,right,right,0.299
HKG2000WRNO,2019-09-25-08-37-28,2,6,0.6636425953099161,left,both,ambiguous-stable,104,-10,left,right,0.251
HKG2000WRNO,2019-09-25-08-37-28,2,7,0.6828893114571843,left,probe,biased-switch,-1,-30,right,right,0.424
HKG2000WRNO,2019-09-25-08-37-28,2,8,0.5229464244934976,left,both,biased-switch,93,-30,right,right,0.23
HKG2000WRNO,2019-09-25-08-37-28,2,9,0.6196379643804211,right,probe,ambiguous-stable,-1,-30,right,right,0.316
HKG2000WRNO,2019-09-25-08-37-28,2,10,0.6755607262883637,right,both,ambiguous-stable,110,-30,left,right,0.003
HKG2000WRNO,2019-09-25-08-37-28,2,11,0.6388463630457,right,probe,ambiguous-stable,-1,0,right,right,0.209
HKG2000WRNO,2019-09-25-08-37-28,2,12,0.6011325392421151,right,both,ambiguous-stable,91,0,left,right,0.244
HKG2000WRNO,2019-09-25-08-37-28,2,13,0.509848783247814,left,probe,ambiguous-switch,-1,30,right,right,0.224
HKG2000WRNO,2019-09-25-08-37-28,2,14,0.5195840124521817,left,both,ambiguous-switch,99,30,right,right,0.055
HKG2000WRNO,2019-09-25-08-37-28,2,15,0.6695040764245084,right,probe,ambiguous-switch,-1,-10,right,right,0.437
HKG2000WRNO,2019-09-25-08-37-28,2,16,0.6574984509415539,right,both,ambiguous-switch,100,-10,right,right,0.329
HKG2000WRNO,2019-09-25-08-37-28,2,17,0.5868922574652506,left,probe,biased-switch,-1,-10,right,right,0.526
HKG2000WRNO,2019-09-25-08-37-28,2,18,0.6999558016206557,left,both,biased-switch,92,-10,right,right,0.239
HKG2000WRNO,2019-09-25-08-37-28,2,19,0.6467261719803862,right,probe,biased-switch,-1,0,right,right,0.367
HKG2000WRNO,2019-09-25-08-37-28,2,20,0.5839267354521553,right,both,biased-switch,95,0,right,left,0.211
HKG2000WRNO,2019-09-25-08-37-28,2,21,0.6868035190567681,left,probe,ambiguous-switch,-1,0,right,right,0.267
HKG2000WRNO,2019-09-25-08-37-28,2,22,0.5946676048579614,left,both,ambiguous-switch,97,0,right,right,0.347
HKG2000WRNO,2019-09-25-08-37-28,2,23,0.6836990038385906,left,probe,ambiguous-stable,-1,20,right,right,0.209
HKG2000WRNO,2019-09-25-08-37-28,2,24,0.5528144914002127,left,both,ambiguous-stable,101,20,left,right,0.183
HKG2000WRNO,2019-09-25-08-37-28,2,25,0.6172193925862429,right,probe,ambiguous-stable,-1,5,right,right,0.222
HKG2000WRNO,2019-09-25-08-37-28,2,26,0.6079846228365959,right,both,ambiguous-stable,103,5,left,right,1.49
HKG2000WRNO,2019-09-25-08-37-28,2,27,0.5185138114123501,right,probe,biased-switch,-1,40,right,right,0.225
HKG2000WRNO,2019-09-25-08-37-28,2,28,0.6268183559263567,right,both,biased-switch,110,40,right,right,2.081
HKG2000WRNO,2019-09-25-08-37-28,2,29,0.6887762394719188,right,probe,biased-switch,-1,5,right,right,0.552
HKG2000WRNO,2019-09-25-08-37-28,2,30,0.6102180720649146,right,both,biased-switch,96,5,right,left,0.241
HKG2000WRNO,2019-09-25-08-37-28,2,31,0.5537317165933903,right,probe,biased-switch,-1,10,right,right,0.301
HKG2000WRNO,2019-09-25-08-37-28,2,32,0.5079179326487036,right,both,biased-switch,97,10,right,left,0.227
HKG2000WRNO,2019-09-25-08-37-28,2,33,0.5715842185063393,right,probe,ambiguous-stable,-1,-20,right,right,0.218
HKG2000WRNO,2019-09-25-08-37-28,2,34,0.666632241916116,right,both,ambiguous-stable,91,-20,left,left,0.229
HKG2000WRNO,2019-09-25-08-37-28,2,35,0.6127120997038276,right,probe,ambiguous-stable,-1,-5,right,right,0.301
HKG2000WRNO,2019-09-25-08-37-28,2,36,0.6697509430936734,right,both,ambiguous-stable,90,-5,left,left,0.239
HKG2000WRNO,2019-09-25-08-37-28,2,37,0.549995594983898,right,probe,biased-switch,-1,-20,right,right,0.341
HKG2000WRNO,2019-09-25-08-37-28,2,38,0.699126840648177,right,both,biased-switch,97,-20,right,left,0.192
HKG2000WRNO,2019-09-25-08-37-28,2,39,0.5627023153884823,right,probe,biased-switch,-1,-5,left,left,0.302
HKG2000WRNO,2019-09-25-08-37-28,2,40,0.5872310826846381,right,both,biased-switch,110,-5,left,right,0.245
HKG2000WRNO,2019-09-25-08-37-28,2,41,0.5758910668214157,right,probe,ambiguous-switch,-1,10,right,right,0.613
HKG2000WRNO,2019-09-25-08-37-28,2,42,0.5259225314484265,right,both,ambiguous-switch,95,10,right,left,0.196
HKG2000WRNO,2019-09-25-08-37-28,2,43,0.5581750014936276,left,probe,ambiguous-stable,-1,40,right,right,0.479
HKG2000WRNO,2019-09-25-08-37-28,2,44,0.6646184535095172,left,both,ambiguous-stable,108,40,left,right,0.824
HKG2000WRNO,2019-09-25-08-37-28,2,45,0.6380723770117194,right,probe,biased-switch,-1,20,left,left,0.267
HKG2000WRNO,2019-09-25-08-37-28,2,46,0.5251966257011916,right,both,biased-switch,105,20,left,right,0.146
HKG2000WRNO,2019-09-25-08-37-28,2,47,0.6331102552068069,right,probe,ambiguous-switch,-1,5,left,left,0.259
HKG2000WRNO,2019-09-25-08-37-28,2,48,0.5902869678171646,right,both,ambiguous-switch,110,5,left,left,2.752
HKG2000WRNO,2019-09-25-08-37-28,2,49,0.6582733008051447,left,probe,ambiguous-switch,-1,-5,left,left,0.24
HKG2000WRNO,2019-09-25-08-37-28,2,50,0.5301394296143865,left,both,ambiguous-switch,104,-5,left,right,0.404
HKG2000WRNO,2019-09-25-08-37-28,2,51,0.5878485757865275,left,probe,ambiguous-stable,-1,30,left,left,1.043
HKG2000WRNO,2019-09-25-08-37-28,2,52,0.6426518523907001,left,both,ambiguous-stable,110,30,right,left,0.233
HKG2000WRNO,2019-09-25-08-37-28,2,53,0.5438864039428541,right,probe,ambiguous-switch,-1,20,left,left,0.206
HKG2000WRNO,2019-09-25-08-37-28,2,54,0.6383958580241575,right,both,ambiguous-switch,100,20,left,left,0.218
HKG2000WRNO,2019-09-25-08-37-28,2,55,0.5903776197744409,left,probe,ambiguous-switch,-1,-30,left,left,0.284
HKG2000WRNO,2019-09-25-08-37-28,2,56,0.638981500076986,left,both,ambiguous-switch,95,-30,left,left,0.244
HKG2000WRNO,2019-09-25-08-37-28,2,57,0.5418836413298606,left,probe,ambiguous-switch,-1,40,left,left,0.313
HKG2000WRNO,2019-09-25-08-37-28,2,58,0.501404585939863,left,both,ambiguous-switch,100,40,left,left,0.236
HKG2000WRNO,2019-09-25-08-37-28,2,59,0.5394154907760124,right,probe,ambiguous-stable,-1,10,left,left,0.495
HKG2000WRNO,2019-09-25-08-37-28,2,60,0.5314921363595447,right,both,ambiguous-stable,91,10,right,left,0.252
HKG2000WRNO,2019-09-25-08-37-28,3,1,0.6683040052575854,left,probe,biased-switch,-1,5,left,left,0.233
HKG2000WRNO,2019-09-25-08-37-28,3,2,0.5270047418654357,left,both,biased-switch,93,5,left,right,0.196
HKG2000WRNO,2019-09-25-08-37-28,3,3,0.5336181609706249,right,probe,ambiguous-switch,-1,10,left,left,0.29
HKG2000WRNO,2019-09-25-08-37-28,3,4,0.6475249379583874,right,both,ambiguous-switch,97,10,left,right,0.252
HKG2000WRNO,2019-09-25-08-37-28,3,5,0.6897935985825785,right,probe,ambiguous-stable,-1,30,left,left,0.268
HKG2000WRNO,2019-09-25-08-37-28,3,6,0.5165537872990109,right,both,ambiguous-stable,98,30,right,left,0.253
HKG2000WRNO,2019-09-25-08-37-28,3,7,0.5444988540407169,right,probe,biased-switch,-1,20,left,left,0.349
HKG2000WRNO,2019-09-25-08-37-28,3,8,0.637461883640773,right,both,biased-switch,102,20,left,left,0.095
HKG2000WRNO,2019-09-25-08-37-28,3,9,0.6591269782710247,left,probe,ambiguous-switch,-1,40,left,left,0.26
HKG2000WRNO,2019-09-25-08-37-28,3,10,0.6538751013651967,left,both,ambiguous-switch,104,40,left,right,0.268
HKG2000WRNO,2019-09-25-08-37-28,3,11,0.5200909011220128,right,probe,ambiguous-switch,-1,5,left,left,0.299
HKG2000WRNO,2019-09-25-08-37-28,3,12,0.6268046612096256,right,both,ambiguous-switch,106,5,left,left,0.242
HKG2000WRNO,2019-09-25-08-37-28,3,13,0.6403721752392533,right,probe,ambiguous-switch,-1,-10,left,left,0.124
HKG2000WRNO,2019-09-25-08-37-28,3,14,0.6290497988444987,right,both,ambiguous-switch,99,-10,left,left,0.21
HKG2000WRNO,2019-09-25-08-37-28,3,15,0.540078645314789,left,probe,biased-switch,-1,30,left,left,0.194
HKG2000WRNO,2019-09-25-08-37-28,3,16,0.6714077306427138,left,both,biased-switch,96,30,left,left,0.089
HKG2000WRNO,2019-09-25-08-37-28,3,17,0.6944304965532394,left,probe,ambiguous-stable,-1,0,left,left,0.357
HKG2000WRNO,2019-09-25-08-37-28,3,18,0.5551093908954541,left,both,ambiguous-stable,99,0,right,left,3.004
HKG2000WRNO,2019-09-25-08-37-28,3,19,0.5336963369059247,right,probe,ambiguous-switch,-1,0,left,left,0.423
HKG2000WRNO,2019-09-25-08-37-28,3,20,0.6937578526602268,right,both,ambiguous-switch,101,0,left,left,0.311
HKG2000WRNO,2019-09-25-08-37-28,3,21,0.5841417255675029,left,probe,biased-switch,-1,-10,left,left,0.418
HKG2000WRNO,2019-09-25-08-37-28,3,22,0.656303402452689,left,both,biased-switch,107,-10,left,left,0.228
HKG2000WRNO,2019-09-25-08-37-28,3,23,0.5956665701441559,right,probe,ambiguous-stable,-1,10,left,left,0.255
HKG2000WRNO,2019-09-25-08-37-28,3,24,0.5756550873802856,right,both,ambiguous-stable,103,10,right,left,0.147
HKG2000WRNO,2019-09-25-08-37-28,3,25,0.6674430972937192,right,probe,ambiguous-switch,-1,-5,left,left,1.745
HKG2000WRNO,2019-09-25-08-37-28,3,26,0.5104313726988651,right,both,ambiguous-switch,97,-5,left,left,0.374
HKG2000WRNO,2019-09-25-08-37-28,3,27,0.6798998367727633,left,probe,biased-switch,-1,-5,left,left,0.593
HKG2000WRNO,2019-09-25-08-37-28,3,28,0.5283019767501146,left,both,biased-switch,92,-5,left,right,0.304
HKG2000WRNO,2019-09-25-08-37-28,3,29,0.5363063219086008,right,probe,ambiguous-stable,-1,-30,left,left,0.244
HKG2000WRNO,2019-09-25-08-37-28,3,30,0.5644962977086299,right,both,ambiguous-stable,108,-30,right,left,0.232
HKG2000WRNO,2019-09-25-08-37-28,3,31,0.5318065292007896,left,probe,ambiguous-stable,-1,5,right,right,0.235
HKG2000WRNO,2019-09-25-08-37-28,3,32,0.6116364326611738,left,both,ambiguous-stable,108,5,left,right,0.232
HKG2000WRNO,2019-09-25-08-37-28,3,33,0.5645529367043709,right,probe,biased-switch,-1,0,left,left,0.406
HKG2000WRNO,2019-09-25-08-37-28,3,34,0.6577552764509469,right,both,biased-switch,100,0,left,right,0.242
HKG2000WRNO,2019-09-25-08-37-28,3,35,0.564205041530271,left,probe,ambiguous-stable,-1,-10,left,left,0.426
HKG2000WRNO,2019-09-25-08-37-28,3,36,0.6164651540786986,left,both,ambiguous-stable,92,-10,right,right,0.083
HKG2000WRNO,2019-09-25-08-37-28,3,37,0.6648492397577879,right,probe,ambiguous-stable,-1,-5,left,left,0.194
HKG2000WRNO,2019-09-25-08-37-28,3,38,0.5375535620967234,right,both,ambiguous-stable,107,-5,right,right,1.857
HKG2000WRNO,2019-09-25-08-37-28,3,39,0.6184699578065596,right,probe,biased-switch,-1,-30,left,left,0.12
HKG2000WRNO,2019-09-25-08-37-28,3,40,0.5253883504857317,right,both,biased-switch,101,-30,left,left,0.129
HKG2000WRNO,2019-09-25-08-37-28,3,41,0.6404409593453138,right,probe,ambiguous-switch,-1,20,left,left,1.612
HKG2000WRNO,2019-09-25-08-37-28,3,42,0.5199133045573772,right,both,ambiguous-switch,93,20,left,left,2.297
HKG2000WRNO,2019-09-25-08-37-28,3,43,0.6305264453967174,left,probe,ambiguous-stable,-1,40,right,right,0.129
HKG2000WRNO,2019-09-25-08-37-28,3,44,0.5101025537955403,left,both,ambiguous-stable,110,40,left,right,1.438
HKG2000WRNO,2019-09-25-08-37-28,3,45,0.6367677642317762,left,probe,ambiguous-stable,-1,-20,left,left,0.219
HKG2000WRNO,2019-09-25-08-37-28,3,46,0.5867827820797323,left,both,ambiguous-stable,107,-20,right,right,0.167
HKG2000WRNO,2019-09-25-08-37-28,3,47,0.6412999536032551,left,probe,ambiguous-stable,-1,20,right,right,0.296
HKG2000WRNO,2019-09-25-08-37-28,3,48,0.6751330022481785,left,both,ambiguous-stable,94,20,left,right,2.215
HKG2000WRNO,2019-09-25-08-37-28,3,49,0.5092161002740621,left,probe,ambiguous-switch,-1,30,right,right,0.343
HKG2000WRNO,2019-09-25-08-37-28,3,50,0.5278111447791062,left,both,ambiguous-switch,109,30,right,left,0.203
HKG2000WRNO,2019-09-25-08-37-28,3,51,0.5041384917595068,left,probe,ambiguous-switch,-1,-30,left,left,0.28
HKG2000WRNO,2019-09-25-08-37-28,3,52,0.5052040183547782,left,both,ambiguous-switch,97,-30,left,right,0.079
HKG2000WRNO,2019-09-25-08-37-28,3,53,0.6826470120572437,right,probe,biased-switch,-1,-20,left,left,0.423
HKG2000WRNO,2019-09-25-08-37-28,3,54,0.5462788771558466,right,both,biased-switch,102,-20,left,right,0.638
HKG2000WRNO,2019-09-25-08-37-28,3,55,0.628154593482297,left,probe,biased-switch,-1,40,right,right,0.216
HKG2000WRNO,2019-09-25-08-37-28,3,56,0.5352223391397742,left,both,biased-switch,92,40,right,left,2.341
HKG2000WRNO,2019-09-25-08-37-28,3,57,0.5726489510772566,right,probe,ambiguous-switch,-1,-20,left,left,0.563
HKG2000WRNO,2019-09-25-08-37-28,3,58,0.5083002976206203,right,both,ambiguous-switch,91,-20,left,left,0.158
HKG2000WRNO,2019-09-25-08-37-28,3,59,0.6275414847481322,right,probe,biased-switch,-1,10,right,right,0.278
HKG2000WRNO,2019-09-25-08-37-28,3,60,0.6828143224564728,right,both,biased-switch,99,10,right,right,0.215
HKG2000WRNO,2019-09-25-08-37-28,4,1,0.6002527210461417,right,probe,ambiguous-switch,-1,0,left,left,0.252
HKG2000WRNO,2019-09-25-08-37-28,4,2,0.6617219954492641,right,both,ambiguous-switch,97,0,left,left,0.142
HKG2000WRNO,2019-09-25-08-37-28,4,3,0.5739034746996454,right,probe,ambiguous-stable,-1,-30,left,left,1.479
HKG2000WRNO,2019-09-25-08-37-28,4,4,0.6107519155226908,right,both,ambiguous-stable,101,-30,right,left,0.798
HKG2000WRNO,2019-09-25-08-37-28,4,5,0.6350864221955932,left,probe,ambiguous-switch,-1,40,left,left,0.408
HKG2000WRNO,2019-09-25-08-37-28,4,6,0.6538216673464458,left,both,ambiguous-switch,100,40,left,right,2.329
HKG2000WRNO,2019-09-25-08-37-28,4,7,0.6034626690376078,right,probe,biased-switch,-1,0,left,left,0.268
HKG2000WRNO,2019-09-25-08-37-28,4,8,0.6113973370827114,right,both,biased-switch,90,0,left,right,0.231
HKG2000WRNO,2019-09-25-08-37-28,4,9,0.6582774285875385,left,probe,biased-switch,-1,-30,right,right,2.412
HKG2000WRNO,2019-09-25-08-37-28,4,10,0.6317859037420808,left,both,biased-switch,104,-30,right,right,1.347
HKG2000WRNO,2019-09-25-08-37-28,4,11,0.6667326436910554,left,probe,ambiguous-stable,-1,40,right,right,0.191
HKG2000WRNO,2019-09-25-08-37-28,4,12,0.651895223846295,left,both,ambiguous-stable,92,40,left,right,2.012
HKG2000WRNO,2019-09-25-08-37-28,4,13,0.6001178264993065,right,probe,ambiguous-switch,-1,5,left,left,0.234
HKG2000WRNO,2019-09-25-08-37-28,4,14,0.5406844233263043,right,both,ambiguous-switch,98,5,left,left,2.658
HKG2000WRNO,2019-09-25-08-37-28,4,15,0.5250583349468751,right,probe,ambiguous-stable,-1,10,left,left,0.397
HKG2000WRNO,2019-09-25-08-37-28,4,16,0.5046722344536839,right,both,ambiguous-stable,92,10,right,left,0.592
HKG2000WRNO,2019-09-25-08-37-28,4,17,0.6456734132541204,left,probe,biased-switch,-1,30,right,right,0.233
HKG2000WRNO,2019-09-25-08-37-28,4,18,0.5200846171988357,left,both,biased-switch,96,30,right,right,0.394
HKG2000WRNO,2019-09-25-08-37-28,4,19,0.6440579688451131,right,probe,biased-switch,-1,-10,left,left,0.376
HKG2000WRNO,2019-09-25-08-37-28,4,20,0.6030059465823349,right,both,biased-switch,109,-10,left,right,0.436
HKG2000WRNO,2019-09-25-08-37-28,4,21,0.6964939256827198,right,probe,ambiguous-switch,-1,10,left,left,2.25
HKG2000WRNO,2019-09-25-08-37-28,4,22,0.6438328909848707,right,both,ambiguous-switch,97,10,left,left,0.482
HKG2000WRNO,2019-09-25-08-37-28,4,23,0.5400216561619947,right,probe,ambiguous-stable,-1,20,left,left,0.725
HKG2000WRNO,2019-09-25-08-37-28,4,24,0.5801254992088322,right,both,ambiguous-stable,108,20,right,left,3.72
HKG2000WRNO,2019-09-25-08-37-28,4,25,0.6867990590350348,left,probe,ambiguous-switch,-1,20,right,right,0.145
HKG2000WRNO,2019-09-25-08-37-28,4,26,0.6958882322049242,left,both,ambiguous-switch,91,20,right,left,0.228
HKG2000WRNO,2019-09-25-08-37-28,4,27,0.549369188249323,left,probe,ambiguous-stable,-1,-20,left,left,0.434
HKG2000WRNO,2019-09-25-08-37-28,4,28,0.521867432967041,left,both,ambiguous-stable,100,-20,right,right,0.476
HKG2000WRNO,2019-09-25-08-37-28,4,29,0.5262331092863848,left,probe,ambiguous-stable,-1,30,right,right,0.255
HKG2000WRNO,2019-09-25-08-37-28,4,30,0.5349818403033582,left,both,ambiguous-stable,109,30,left,right,0.383
HKG2000WRNO,2019-09-25-08-37-28,4,31,0.547264304711898,left,probe,ambiguous-switch,-1,-20,right,right,0.529
HKG2000WRNO,2019-09-25-08-37-28,4,32,0.5136941388311707,left,both,ambiguous-switch,106,-20,right,right,0.477
HKG2000WRNO,2019-09-25-08-37-28,4,33,0.5814172556735306,left,probe,biased-switch,-1,-5,right,right,0.546
HKG2000WRNO,2019-09-25-08-37-28,4,34,0.5549198548669617,left,both,biased-switch,97,-5,right,right,0.277
HKG2000WRNO,2019-09-25-08-37-28,4,35,0.58863834342168,right,probe,ambiguous-stable,-1,-5,right,right,0.356
HKG2000WRNO,2019-09-25-08-37-28,4,36,0.6417136638181398,right,both,ambiguous-stable,99,-5,left,left,0.917
HKG2000WRNO,2019-09-25-08-37-28,4,37,0.6084747664162939,left,probe,biased-switch,-1,10,right,right,0.373
HKG2000WRNO,2019-09-25-08-37-28,4,38,0.6761633481726312,left,both,biased-switch,100,10,right,left,3.258
HKG2000WRNO,2019-09-25-08-37-28,4,39,0.5003997282633671,right,probe,ambiguous-stable,-1,-10,left,left,0.4
HKG2000WRNO,2019-09-25-08-37-28,4,40,0.6235690008821121,right,both,ambiguous-stable,108,-10,right,left,0.254
HKG2000WRNO,2019-09-25-08-37-28,4,41,0.5149339525459344,right,probe,biased-switch,-1,-20,left,left,0.333
HKG2000WRNO,2019-09-25-08-37-28,4,42,0.5520574653713226,right,both,biased-switch,104,-20,left,left,0.235
HKG2000WRNO,2019-09-25-08-37-28,4,43,0.5005767406382079,right,probe,ambiguous-stable,-1,5,left,left,0.464
HKG2000WRNO,2019-09-25-08-37-28,4,44,0.6968434781555346,right,both,ambiguous-stable,100,5,right,left,0.253
HKG2000WRNO,2019-09-25-08-37-28,4,45,0.5738860479588066,left,probe,biased-switch,-1,40,left,left,0.342
HKG2000WRNO,2019-09-25-08-37-28,4,46,0.6773521819304009,left,both,biased-switch,99,40,left,right,0.289
HKG2000WRNO,2019-09-25-08-37-28,4,47,0.5599506675572876,right,probe,ambiguous-switch,-1,-30,left,left,0.319
HKG2000WRNO,2019-09-25-08-37-28,4,48,0.5391561116805795,right,both,ambiguous-switch,103,-30,left,left,0.226
HKG2000WRNO,2019-09-25-08-37-28,4,49,0.666967036197804,left,probe,ambiguous-switch,-1,-5,left,left,0.396
HKG2000WRNO,2019-09-25-08-37-28,4,50,0.6949586346055493,left,both,ambiguous-switch,99,-5,left,right,0.305
HKG2000WRNO,2019-09-25-08-37-28,4,51,0.5729209212617591,right,probe,ambiguous-stable,-1,0,left,left,0.393
HKG2000WRNO,2019-09-25-08-37-28,4,52,0.6296363000299647,right,both,ambiguous-stable,103,0,right,right,0.274
HKG2000WRNO,2019-09-25-08-37-28,4,53,0.6659647512226881,right,probe,ambiguous-switch,-1,30,right,right,0.365
HKG2000WRNO,2019-09-25-08-37-28,4,54,0.5863211006640733,right,both,ambiguous-switch,96,30,right,right,3.332
HKG2000WRNO,2019-09-25-08-37-28,4,55,0.685741987566434,left,probe,biased-switch,-1,20,right,right,0.261
HKG2000WRNO,2019-09-25-08-37-28,4,56,0.674112472891353,left,both,biased-switch,107,20,right,right,1.447
HKG2000WRNO,2019-09-25-08-37-28,4,57,0.621781432184011,right,probe,ambiguous-switch,-1,-10,right,right,0.41
HKG2000WRNO,2019-09-25-08-37-28,4,58,0.6710507345363449,right,both,ambiguous-switch,91,-10,right,right,0.289
HKG2000WRNO,2019-09-25-08-37-28,4,59,0.5693780541200085,left,probe,biased-switch,-1,5,right,right,0.457
HKG2000WRNO,2019-09-25-08-37-28,4,60,0.6744229963759583,left,both,biased-switch,107,5,right,right,0.116
HKG2000WRNO,2019-09-25-08-37-28,5,1,0.5106193134140645,left,probe,ambiguous-switch,-1,30,right,right,0.326
HKG2000WRNO,2019-09-25-08-37-28,5,2,0.6116296423777383,left,both,ambiguous-switch,99,30,right,left,1.191
HKG2000WRNO,2019-09-25-08-37-28,5,3,0.563910039137123,right,probe,biased-switch,-1,10,left,left,0.527
HKG2000WRNO,2019-09-25-08-37-28,5,4,0.5362166666794219,right,both,biased-switch,104,10,left,left,0.227
HKG2000WRNO,2019-09-25-08-37-28,5,5,0.5441746140700314,right,probe,biased-switch,-1,-5,left,left,0.228
HKG2000WRNO,2019-09-25-08-37-28,5,6,0.6332727514871994,right,both,biased-switch,104,-5,left,left,0.268
HKG2000WRNO,2019-09-25-08-37-28,5,7,0.6173104420228959,right,probe,ambiguous-stable,-1,0,left,left,0.321
HKG2000WRNO,2019-09-25-08-37-28,5,8,0.5282084914962248,right,both,ambiguous-stable,105,0,right,left,0.233
HKG2000WRNO,2019-09-25-08-37-28,5,9,0.650360864320322,left,probe,ambiguous-stable,-1,20,left,left,0.256
HKG2000WRNO,2019-09-25-08-37-28,5,10,0.6265361966448749,left,both,ambiguous-stable,101,20,right,left,0.26
HKG2000WRNO,2019-09-25-08-37-28,5,11,0.6186049823113552,right,probe,ambiguous-switch,-1,40,left,left,0.579
HKG2000WRNO,2019-09-25-08-37-28,5,12,0.5939811576122376,right,both,ambiguous-switch,92,40,left,left,0.272
HKG2000WRNO,2019-09-25-08-37-28,5,13,0.5363840471228007,left,probe,biased-switch,-1,20,left,left,0.394
HKG2000WRNO,2019-09-25-08-37-28,5,14,0.6935478109301167,left,both,biased-switch,98,20,left,right,0.293
HKG2000WRNO,2019-09-25-08-37-28,5,15,0.6012000687147216,right,probe,ambiguous-switch,-1,-30,left,left,0.31
HKG2000WRNO,2019-09-25-08-37-28,5,16,0.6992189147292679,right,both,ambiguous-switch,105,-30,left,left,0.638
HKG2000WRNO,2019-09-25-08-37-28,5,17,0.692605942208386,left,probe,biased-switch,-1,-20,left,left,0.228
HKG2000WRNO,2019-09-25-08-37-28,5,18,0.5579942042755495,left,both,biased-switch,98,-20,left,left,0.213
HKG2000WRNO,2019-09-25-08-37-28,5,19,0.5400034780609213,right,probe,ambiguous-stable,-1,30,left,left,0.171
HKG2000WRNO,2019-09-25-08-37-28,5,20,0.6234190340221186,right,both,ambiguous-stable,109,30,right,left,3.311
HKG2000WRNO,2019-09-25-08-37-28,5,21,0.6692313200141831,left,probe,biased-switch,-1,-10,left,left,0.233
HKG2000WRNO,2019-09-25-08-37-28,5,22,0.6437442471496827,left,both,biased-switch,92,-10,left,right,0.299
HKG2000WRNO,2019-09-25-08-37-28,5,23,0.5943682950742757,left,probe,biased-switch,-1,5,left,left,0.257
HKG2000WRNO,2019-09-25-08-37-28,5,24,0.5249450433509809,left,both,biased-switch,91,5,left,right,0.157
HKG2000WRNO,2019-09-25-08-37-28,5,25,0.6795042273572591,right,probe,biased-switch,-1,0,left,left,0.235
HKG2000WRNO,2019-09-25-08-37-28,5,26,0.5251744537521452,right,both,biased-switch,96,0,left,right,2.226
HKG2000WRNO,2019-09-25-08-37-28,5,27,0.536932967618139,right,probe,biased-switch,-1,40,left,left,0.245
HKG2000WRNO,2019-09-25-08-37-28,5,28,0.6475831298962857,right,both,biased-switch,102,40,left,left,0.234
HKG2000WRNO,2019-09-25-08-37-28,5,29,0.5480786980710668,left,probe,ambiguous-stable,-1,10,left,left,0.393
HKG2000WRNO,2019-09-25-08-37-28,5,30,0.5693219410971162,left,both,ambiguous-stable,92,10,right,left,3.102
HKG2000WRNO,2019-09-25-08-37-28,5,31,0.5952386951781213,left,probe,ambiguous-switch,-1,-10,left,left,0.387
HKG2000WRNO,2019-09-25-08-37-28,5,32,0.6584124061711351,left,both,ambiguous-switch,95,-10,left,left,0.221
HKG2000WRNO,2019-09-25-08-37-28,5,33,0.509657053538123,right,probe,ambiguous-switch,-1,10,left,left,0.269
HKG2000WRNO,2019-09-25-08-37-28,5,34,0.6670706991453234,right,both,ambiguous-switch,91,10,left,left,0.368
HKG2000WRNO,2019-09-25-08-37-28,5,35,0.5692585578402375,left,probe,ambiguous-switch,-1,0,left,left,0.321
HKG2000WRNO,2019-09-25-08-37-28,5,36,0.6853438905557957,left,both,ambiguous-switch,106,0,left,left,0.305
HKG2000WRNO,2019-09-25-08-37-28,5,37,0.5172880681322898,right,probe,ambiguous-switch,-1,5,left,left,0.307
HKG2000WRNO,2019-09-25-08-37-28,5,38,0.578697295617333,right,both,ambiguous-switch,95,5,left,right,0.487
HKG2000WRNO,2019-09-25-08-37-28,5,39,0.6603146467731609,left,probe,ambiguous-stable,-1,-20,left,left,0.491
HKG2000WRNO,2019-09-25-08-37-28,5,40,0.5087043501428875,left,both,ambiguous-stable,109,-20,right,left,0.085
HKG2000WRNO,2019-09-25-08-37-28,5,41,0.6810941124573429,right,probe,ambiguous-stable,-1,-30,right,right,0.192
HKG2000WRNO,2019-09-25-08-37-28,5,42,0.5056303100818905,right,both,ambiguous-stable,109,-30,left,right,0.871
HKG2000WRNO,2019-09-25-08-37-28,5,43,0.5602939721040834,right,probe,ambiguous-stable,-1,5,right,right,0.298
HKG2000WRNO,2019-09-25-08-37-28,5,44,0.5766417211654342,right,both,ambiguous-stable,108,5,left,right,0.194
HKG2000WRNO,2019-09-25-08-37-28,5,45,0.5146454327866573,right,probe,ambiguous-stable,-1,-5,right,right,0.283
HKG2000WRNO,2019-09-25-08-37-28,5,46,0.6694454809056392,right,both,ambiguous-stable,106,-5,left,right,1.147
HKG2000WRNO,2019-09-25-08-37-28,5,47,0.5042216463151479,right,probe,ambiguous-switch,-1,-20,right,right,0.415
HKG2000WRNO,2019-09-25-08-37-28,5,48,0.6181822102788144,right,both,ambiguous-switch,99,-20,right,right,0.382
HKG2000WRNO,2019-09-25-08-37-28,5,49,0.5874543063468357,left,probe,ambiguous-stable,-1,40,right,right,0.225
HKG2000WRNO,2019-09-25-08-37-28,5,50,0.5629175984549737,left,both,ambiguous-stable,109,40,left,right,0.031
HKG2000WRNO,2019-09-25-08-37-28,5,51,0.6236020869362856,right,probe,ambiguous-switch,-1,20,right,right,0.281
HKG2000WRNO,2019-09-25-08-37-28,5,52,0.5260250505682745,right,both,ambiguous-switch,97,20,right,right,0.299
HKG2000WRNO,2019-09-25-08-37-28,5,53,0.6535898842313277,right,probe,biased-switch,-1,-30,right,right,0.446
HKG2000WRNO,2019-09-25-08-37-28,5,54,0.6957302957832554,right,both,biased-switch,95,-30,right,right,0.071
HKG2000WRNO,2019-09-25-08-37-28,5,55,0.6798399482089172,left,probe,ambiguous-stable,-1,-10,right,right,0.267
HKG2000WRNO,2019-09-25-08-37-28,5,56,0.6366300886755507,left,both,ambiguous-stable,108,-10,left,right,2.324
HKG2000WRNO,2019-09-25-08-37-28,5,57,0.6338146353423688,right,probe,biased-switch,-1,30,right,right,0.507
HKG2000WRNO,2019-09-25-08-37-28,5,58,0.6623839375766557,right,both,biased-switch,109,30,right,right,0.22
HKG2000WRNO,2019-09-25-08-37-28,5,59,0.5542184727120194,right,probe,ambiguous-switch,-1,-5,right,right,0.265
HKG2000WRNO,2019-09-25-08-37-28,5,60,0.6084821280837708,right,both,ambiguous-switch,109,-5,right,right,0.237
HKG2000WRNO,2019-09-25-08-37-28,6,1,0.6266009297823703,right,probe,ambiguous-stable,-1,20,right,right,0.193
HKG2000WRNO,2019-09-25-08-37-28,6,2,0.5412124459294668,right,both,ambiguous-stable,104,20,left,right,0.269
HKG2000WRNO,2019-09-25-08-37-28,6,3,0.5273543461622985,left,probe,biased-switch,-1,-5,right,right,0.289
HKG2000WRNO,2019-09-25-08-37-28,6,4,0.6133434573824527,left,both,biased-switch,104,-5,right,right,0.151
HKG2000WRNO,2019-09-25-08-37-28,6,5,0.5695379589710421,left,probe,ambiguous-switch,-1,-10,right,right,0.139
HKG2000WRNO,2019-09-25-08-37-28,6,6,0.5853424550363312,left,both,ambiguous-switch,101,-10,right,right,2.448
HKG2000WRNO,2019-09-25-08-37-28,6,7,0.5646876860032244,right,probe,ambiguous-switch,-1,40,right,right,0.39
HKG2000WRNO,2019-09-25-08-37-28,6,8,0.6622236394330455,right,both,ambiguous-switch,103,40,right,right,0.471
HKG2000WRNO,2019-09-25-08-37-28,6,9,0.5458621060936483,left,probe,ambiguous-switch,-1,0,right,right,0.477
HKG2000WRNO,2019-09-25-08-37-28,6,10,0.6317082767137783,left,both,ambiguous-switch,93,0,right,right,0.17
HKG2000WRNO,2019-09-25-08-37-28,6,11,0.6995129855334534,left,probe,ambiguous-switch,-1,-5,right,right,0.299
HKG2000WRNO,2019-09-25-08-37-28,6,12,0.604638236735827,left,both,ambiguous-switch,102,-5,right,right,0.236
HKG2000WRNO,2019-09-25-08-37-28,6,13,0.5569564604382022,right,probe,ambiguous-stable,-1,40,right,right,0.412
HKG2000WRNO,2019-09-25-08-37-28,6,14,0.6639417995661514,right,both,ambiguous-stable,100,40,left,right,1.841
HKG2000WRNO,2019-09-25-08-37-28,6,15,0.650999210405837,right,probe,ambiguous-stable,-1,5,right,right,0.361
HKG2000WRNO,2019-09-25-08-37-28,6,16,0.5183890763188626,right,both,ambiguous-stable,98,5,left,right,0.287
HKG2000WRNO,2019-09-25-08-37-28,6,17,0.6920209029142105,right,probe,ambiguous-stable,-1,-10,right,right,0.269
HKG2000WRNO,2019-09-25-08-37-28,6,18,0.6068984630742992,right,both,ambiguous-stable,105,-10,left,right,0.251
HKG2000WRNO,2019-09-25-08-37-28,6,19,0.5797456646873907,right,probe,ambiguous-stable,-1,-30,right,right,0.317
HKG2000WRNO,2019-09-25-08-37-28,6,20,0.5680578104696351,right,both,ambiguous-stable,105,-30,left,right,0.521
HKG2000WRNO,2019-09-25-08-37-28,6,21,0.5583970106021173,right,probe,ambiguous-switch,-1,5,right,right,0.412
HKG2000WRNO,2019-09-25-08-37-28,6,22,0.6543578367056271,right,both,ambiguous-switch,97,5,right,right,0.299
HKG2000WRNO,2019-09-25-08-37-28,6,23,0.5419842608009354,right,probe,biased-switch,-1,40,right,right,0.741
HKG2000WRNO,2019-09-25-08-37-28,6,24,0.6135921774622335,right,both,biased-switch,93,40,right,right,0.264
HKG2000WRNO,2019-09-25-08-37-28,6,25,0.6756079269261657,right,probe,biased-switch,-1,0,right,right,0.261
HKG2000WRNO,2019-09-25-08-37-28,6,26,0.6707527165807728,right,both,biased-switch,106,0,right,right,0.335
HKG2000WRNO,2019-09-25-08-37-28,6,27,0.5130671610055022,right,probe,biased-switch,-1,-10,right,right,0.474
HKG2000WRNO,2019-09-25-08-37-28,6,28,0.5104672798224331,right,both,biased-switch,99,-10,right,right,0.241
HKG2000WRNO,2019-09-25-08-37-28,6,29,0.5955809789993576,left,probe,ambiguous-stable,-1,-20,right,right,0.254
HKG2000WRNO,2019-09-25-08-37-28,6,30,0.549137278087884,left,both,ambiguous-stable,97,-20,left,right,0.196
HKG2000WRNO,2019-09-25-08-37-28,6,31,0.5802853403762679,right,probe,ambiguous-switch,-1,20,right,right,0.219
HKG2000WRNO,2019-09-25-08-37-28,6,32,0.5113301232909869,right,both,ambiguous-switch,110,20,right,left,0.275
HKG2000WRNO,2019-09-25-08-37-28,6,33,0.6956539997373312,right,probe,biased-switch,-1,20,right,right,0.214
HKG2000WRNO,2019-09-25-08-37-28,6,34,0.6071369808957857,right,both,biased-switch,106,20,right,right,1.693
HKG2000WRNO,2019-09-25-08-37-28,6,35,0.6576352176451165,left,probe,biased-switch,-1,5,right,right,0.345
HKG2000WRNO,2019-09-25-08-37-28,6,36,0.6991123962892037,left,both,biased-switch,94,5,right,left,0.483
HKG2000WRNO,2019-09-25-08-37-28,6,37,0.688659292301129,right,probe,ambiguous-stable,-1,30,right,right,1.02
HKG2000WRNO,2019-09-25-08-37-28,6,38,0.6471200101485682,right,both,ambiguous-stable,101,30,left,right,0.221
HKG2000WRNO,2019-09-25-08-37-28,6,39,0.6953106938657766,left,probe,ambiguous-switch,-1,-30,left,left,0.848
HKG2000WRNO,2019-09-25-08-37-28,6,40,0.6030766242076988,left,both,ambiguous-switch,96,-30,left,left,0.329
HKG2000WRNO,2019-09-25-08-37-28,6,41,0.6428619480735568,left,probe,ambiguous-switch,-1,30,left,left,0.308
HKG2000WRNO,2019-09-25-08-37-28,6,42,0.6063337992633918,left,both,ambiguous-switch,98,30,left,right,0.303
HKG2000WRNO,2019-09-25-08-37-28,6,43,0.6190308321262573,left,probe,ambiguous-stable,-1,0,left,left,0.386
HKG2000WRNO,2019-09-25-08-37-28,6,44,0.6903144796937816,left,both,ambiguous-stable,97,0,right,right,0.283
HKG2000WRNO,2019-09-25-08-37-28,6,45,0.6465248640470362,right,probe,ambiguous-switch,-1,-20,right,right,0.204
HKG2000WRNO,2019-09-25-08-37-28,6,46,0.5783445302548773,right,both,ambiguous-switch,96,-20,right,right,0.238
HKG2000WRNO,2019-09-25-08-37-28,6,47,0.55358484602414,right,probe,biased-switch,-1,10,right,right,0.5
HKG2000WRNO,2019-09-25-08-37-28,6,48,0.5028885086072993,right,both,biased-switch,98,10,right,left,0.32
HKG2000WRNO,2019-09-25-08-37-28,6,49,0.6780774695051248,right,probe,ambiguous-stable,-1,10,left,left,0.305
HKG2000WRNO,2019-09-25-08-37-28,6,50,0.6700064520111332,right,both,ambiguous-stable,109,10,right,left,1.369
HKG2000WRNO,2019-09-25-08-37-28,6,51,0.5693140199896021,left,probe,biased-switch,-1,30,left,left,0.421
HKG2000WRNO,2019-09-25-08-37-28,6,52,0.6178310308983266,left,both,biased-switch,101,30,left,left,0.233
HKG2000WRNO,2019-09-25-08-37-28,6,53,0.5418847175597927,left,probe,biased-switch,-1,-20,left,left,0.237
HKG2000WRNO,2019-09-25-08-37-28,6,54,0.5416764265067646,left,both,biased-switch,90,-20,left,left,0.223
HKG2000WRNO,2019-09-25-08-37-28,6,55,0.6125040897431179,right,probe,ambiguous-stable,-1,-5,left,left,0.51
HKG2000WRNO,2019-09-25-08-37-28,6,56,0.5160430462295589,right,both,ambiguous-stable,102,-5,right,left,0.34
HKG2000WRNO,2019-09-25-08-37-28,6,57,0.5510446860289128,right,probe,biased-switch,-1,-30,left,left,0.399
HKG2000WRNO,2019-09-25-08-37-28,6,58,0.6006573262145456,right,both,biased-switch,97,-30,left,left,0.327
HKG2000WRNO,2019-09-25-08-37-28,6,59,0.6880706891111577,right,probe,ambiguous-switch,-1,10,left,left,0.547
HKG2000WRNO,2019-09-25-08-37-28,6,60,0.6481907881781301,right,both,ambiguous-switch,95,10,left,left,0.316
HKG2000WRNO,2019-09-25-08-37-28,7,1,0.6648855622507888,right,probe,ambiguous-switch,-1,10,left,left,0.503
HKG2000WRNO,2019-09-25-08-37-28,7,2,0.5971814704431809,right,both,ambiguous-switch,91,10,left,left,0.216
HKG2000WRNO,2019-09-25-08-37-28,7,3,0.6391496423989347,left,probe,ambiguous-stable,-1,40,left,left,0.434
HKG2000WRNO,2019-09-25-08-37-28,7,4,0.5319420252057495,left,both,ambiguous-stable,100,40,right,left,3.468
HKG2000WRNO,2019-09-25-08-37-28,7,5,0.6822116708742991,left,probe,ambiguous-switch,-1,-5,left,left,0.885
HKG2000WRNO,2019-09-25-08-37-28,7,6,0.5269021631627253,left,both,ambiguous-switch,100,-5,left,left,0.035
HKG2000WRNO,2019-09-25-08-37-28,7,7,0.5658561275759398,left,probe,ambiguous-switch,-1,40,left,left,0.414
HKG2000WRNO,2019-09-25-08-37-28,7,8,0.6508287695801656,left,both,ambiguous-switch,103,40,left,left,0.226
HKG2000WRNO,2019-09-25-08-37-28,7,9,0.6147098472846664,right,probe,ambiguous-stable,-1,0,left,left,0.315
HKG2000WRNO,2019-09-25-08-37-28,7,10,0.6046876417324035,right,both,ambiguous-stable,93,0,right,left,0.239
HKG2000WRNO,2019-09-25-08-37-28,7,11,0.673967676799508,right,probe,ambiguous-switch,-1,30,left,left,0.574
HKG2000WRNO,2019-09-25-08-37-28,7,12,0.6130566032011019,right,both,ambiguous-switch,107,30,left,left,0.312
HKG2000WRNO,2019-09-25-08-37-28,7,13,0.6160202193404699,left,probe,biased-switch,-1,0,left,left,0.517
HKG2000WRNO,2019-09-25-08-37-28,7,14,0.5037611928158638,left,both,biased-switch,101,0,left,left,0.322
HKG2000WRNO,2019-09-25-08-37-28,7,15,0.6523152125059801,left,probe,biased-switch,-1,20,left,left,0.732
HKG2000WRNO,2019-09-25-08-37-28,7,16,0.6564711787220524,left,both,biased-switch,106,20,left,left,0.459
HKG2000WRNO,2019-09-25-08-37-28,7,17,0.5011414389331357,left,probe,ambiguous-stable,-1,5,left,left,0.286
HKG2000WRNO,2019-09-25-08-37-28,7,18,0.5821783303105176,left,both,ambiguous-stable,108,5,right,left,0.359
HKG2000WRNO,2019-09-25-08-37-28,7,19,0.5071900310085229,right,probe,ambiguous-stable,-1,10,left,left,0.371
HKG2000WRNO,2019-09-25-08-37-28,7,20,0.6384382036181055,right,both,ambiguous-stable,109,10,right,left,0.277
HKG2000WRNO,2019-09-25-08-37-28,7,21,0.5260181150823563,right,probe,biased-switch,-1,-20,left,left,0.637
HKG2000WRNO,2019-09-25-08-37-28,7,22,0.5127080911108803,right,both,biased-switch,105,-20,left,left,0.762
HKG2000WRNO,2019-09-25-08-37-28,7,23,0.6610249122486476,right,probe,ambiguous-switch,-1,-10,left,left,0.505
HKG2000WRNO,2019-09-25-08-37-28,7,24,0.5901123373260421,right,both,ambiguous-switch,106,-10,left,left,0.344
HKG2000WRNO,2019-09-25-08-37-28,7,25,0.5173037380862116,right,probe,ambiguous-switch,-1,0,left,left,0.241
HKG2000WRNO,2019-09-25-08-37-28,7,26,0.5218174760964043,right,both,ambiguous-switch,94,0,left,left,0.36
HKG2000WRNO,2019-09-25-08-37-28,7,27,0.5293655585720933,right,probe,ambiguous-stable,-1,-10,left,left,0.255
HKG2000WRNO,2019-09-25-08-37-28,7,28,0.6173606889267046,right,both,ambiguous-stable,107,-10,right,left,0.232
HKG2000WRNO,2019-09-25-08-37-28,7,29,0.5244440556158164,right,probe,biased-switch,-1,10,left,left,0.517
HKG2000WRNO,2019-09-25-08-37-28,7,30,0.6400561889008356,right,both,biased-switch,104,10,left,left,0.318
HKG2000WRNO,2019-09-25-08-37-28,7,31,0.6165323486278694,right,probe,ambiguous-switch,-1,-20,left,left,0.711
HKG2000WRNO,2019-09-25-08-37-28,7,32,0.6250565677819497,right,both,ambiguous-switch,93,-20,left,left,0.249
HKG2000WRNO,2019-09-25-08-37-28,7,33,0.6875195010272177,left,probe,biased-switch,-1,5,left,left,0.319
HKG2000WRNO,2019-09-25-08-37-28,7,34,0.5619018374522514,left,both,biased-switch,100,5,left,right,0.206
HKG2000WRNO,2019-09-25-08-37-28,7,35,0.6475186433054647,left,probe,ambiguous-stable,-1,20,left,left,0.217
HKG2000WRNO,2019-09-25-08-37-28,7,36,0.5384843228802177,left,both,ambiguous-stable,104,20,right,left,0.25
HKG2000WRNO,2019-09-25-08-37-28,7,37,0.5545991892285962,right,probe,biased-switch,-1,-10,left,left,0.433
HKG2000WRNO,2019-09-25-08-37-28,7,38,0.5976337834990977,right,both,biased-switch,91,-10,left,left,0.218
HKG2000WRNO,2019-09-25-08-37-28,7,39,0.6003939157040271,left,probe,ambiguous-switch,-1,20,left,left,0.188
HKG2000WRNO,2019-09-25-08-37-28,7,40,0.6910205929960846,left,both,ambiguous-switch,109,20,left,right,0.253
HKG2000WRNO,2019-09-25-08-37-28,7,41,0.5032606808203516,right,probe,biased-switch,-1,-30,left,left,0.246
HKG2000WRNO,2019-09-25-08-37-28,7,42,0.6964237410383824,right,both,biased-switch,96,-30,left,left,0.257
HKG2000WRNO,2019-09-25-08-37-28,7,43,0.5393275482900929,left,probe,ambiguous-switch,-1,-30,left,left,0.424
HKG2000WRNO,2019-09-25-08-37-28,7,44,0.5050434010266803,left,both,ambiguous-switch,99,-30,left,right,0.252
HKG2000WRNO,2019-09-25-08-37-28,7,45,0.5665664357559036,left,probe,ambiguous-stable,-1,-20,left,left,0.325
HKG2000WRNO,2019-09-25-08-37-28,7,46,0.5912872265072392,left,both,ambiguous-stable,107,-20,right,left,0.21
HKG2000WRNO,2019-09-25-08-37-28,7,47,0.559686661388358,right,probe,ambiguous-stable,-1,-30,left,left,0.261
HKG2000WRNO,2019-09-25-08-37-28,7,48,0.6860978568322211,right,both,ambiguous-stable,95,-30,right,left,0.259
HKG2000WRNO,2019-09-25-08-37-28,7,49,0.6803942439432906,left,probe,biased-switch,-1,30,right,right,0.215
HKG2000WRNO,2019-09-25-08-37-28,7,50,0.578771478229823,left,both,biased-switch,103,30,right,left,0.247
HKG2000WRNO,2019-09-25-08-37-28,7,51,0.586726385135732,right,probe,ambiguous-stable,-1,30,left,left,0.41
HKG2000WRNO,2019-09-25-08-37-28,7,52,0.5340860010131767,right,both,ambiguous-stable,109,30,right,left,0.281
HKG2000WRNO,2019-09-25-08-37-28,7,53,0.6498508922008109,left,probe,ambiguous-switch,-1,5,left,left,0.244
HKG2000WRNO,2019-09-25-08-37-28,7,54,0.591473303057997,left,both,ambiguous-switch,94,5,left,right,0.259
HKG2000WRNO,2019-09-25-08-37-28,7,55,0.62746871605747,right,probe,biased-switch,-1,40,left,left,0.237
HKG2000WRNO,2019-09-25-08-37-28,7,56,0.6153396928501818,right,both,biased-switch,91,40,left,left,0.246
HKG2000WRNO,2019-09-25-08-37-28,7,57,0.6435296696985489,right,probe,biased-switch,-1,-5,left,left,0.278
HKG2000WRNO,2019-09-25-08-37-28,7,58,0.5513666582885721,right,both,biased-switch,93,-5,left,left,1.007
HKG2000WRNO,2019-09-25-08-37-28,7,59,0.5930916381060996,left,probe,ambiguous-stable,-1,-5,left,left,0.552
HKG2000WRNO,2019-09-25-08-37-28,7,60,0.6571433641264846,left,both,ambiguous-stable,103,-5,right,right,0.26
HKG2000WRNO,2019-09-25-08-37-28,8,1,0.6323334137468348,left,probe,ambiguous-stable,-1,-30,left,left,0.247
HKG2000WRNO,2019-09-25-08-37-28,8,2,0.6776067355959572,left,both,ambiguous-stable,91,-30,right,right,0.619
HKG2000WRNO,2019-09-25-08-37-28,8,3,0.5021568478335404,right,probe,ambiguous-stable,-1,20,left,left,0.298
HKG2000WRNO,2019-09-25-08-37-28,8,4,0.6702634396269467,right,both,ambiguous-stable,103,20,right,left,1.375
HKG2000WRNO,2019-09-25-08-37-28,8,5,0.6694285332073704,right,probe,biased-switch,-1,-20,left,left,0.312
HKG2000WRNO,2019-09-25-08-37-28,8,6,0.5831721216830652,right,both,biased-switch,98,-20,left,left,0.278
HKG2000WRNO,2019-09-25-08-37-28,8,7,0.6901407220053251,left,probe,ambiguous-stable,-1,-10,right,right,0.24
HKG2000WRNO,2019-09-25-08-37-28,8,8,0.6930961045192761,left,both,ambiguous-stable,94,-10,left,right,0.025
HKG2000WRNO,2019-09-25-08-37-28,8,9,0.6969496399304553,left,probe,ambiguous-stable,-1,-20,right,right,0.41
HKG2000WRNO,2019-09-25-08-37-28,8,10,0.5742378466557378,left,both,ambiguous-stable,99,-20,left,right,0.014
HKG2000WRNO,2019-09-25-08-37-28,8,11,0.5481935788012884,left,probe,biased-switch,-1,0,right,right,0.301
HKG2000WRNO,2019-09-25-08-37-28,8,12,0.6311750125368679,left,both,biased-switch,100,0,right,right,0.222
HKG2000WRNO,2019-09-25-08-37-28,8,13,0.5062621176214922,left,probe,ambiguous-stable,-1,10,right,right,0.269
HKG2000WRNO,2019-09-25-08-37-28,8,14,0.5381091546781939,left,both,ambiguous-stable,90,10,left,right,0.221
HKG2000WRNO,2019-09-25-08-37-28,8,15,0.6426781281207459,left,probe,ambiguous-switch,-1,-10,right,right,0.201
HKG2000WRNO,2019-09-25-08-37-28,8,16,0.6700081307684717,left,both,ambiguous-switch,105,-10,right,right,0.051
HKG2000WRNO,2019-09-25-08-37-28,8,17,0.523503310143538,right,probe,ambiguous-stable,-1,30,left,left,0.253
HKG2000WRNO,2019-09-25-08-37-28,8,18,0.5206687405533147,right,both,ambiguous-stable,100,30,right,left,0.439
HKG2000WRNO,2019-09-25-08-37-28,8,19,0.5873549950221699,right,probe,ambiguous-switch,-1,0,left,left,0.207
HKG2000WRNO,2019-09-25-08-37-28,8,20,0.5590960999373559,right,both,ambiguous-switch,97,0,left,left,0.254
HKG2000WRNO,2019-09-25-08-37-28,8,21,0.5348105516359893,left,probe,ambiguous-stable,-1,-5,left,left,0.67
HKG2000WRNO,2019-09-25-08-37-28,8,22,0.6412705426863738,left,both,ambiguous-stable,101,-5,right,right,0.207
HKG2000WRNO,2019-09-25-08-37-28,8,23,0.581221931739095,right,probe,biased-switch,-1,30,left,left,0.29
HKG2000WRNO,2019-09-25-08-37-28,8,24,0.6492215928193433,right,both,biased-switch,103,30,left,left,0.395
HKG2000WRNO,2019-09-25-08-37-28,8,25,0.5462833243973171,left,probe,biased-switch,-1,5,right,right,0.212
HKG2000WRNO,2019-09-25-08-37-28,8,26,0.5443011645018386,left,both,biased-switch,92,5,right,left,0.29
HKG2000WRNO,2019-09-25-08-37-28,8,27,0.6330754762368447,left,probe,ambiguous-stable,-1,5,left,left,0.224
HKG2000WRNO,2019-09-25-08-37-28,8,28,0.6481589568687961,left,both,ambiguous-stable,102,5,right,left,0.026
HKG2000WRNO,2019-09-25-08-37-28,8,29,0.5432561234239104,left,probe,ambiguous-switch,-1,-5,left,left,0.134
HKG2000WRNO,2019-09-25-08-37-28,8,30,0.6708083812598443,left,both,ambiguous-switch,99,-5,left,left,0.072
HKG2000WRNO,2019-09-25-08-37-28,8,31,0.5904142720088738,right,probe,biased-switch,-1,-5,left,left,0.27
HKG2000WRNO,2019-09-25-08-37-28,8,32,0.5586636198965571,right,both,biased-switch,90,-5,left,left,2.791
HKG2000WRNO,2019-09-25-08-37-28,8,33,0.6133788589182115,left,probe,ambiguous-stable,-1,40,left,left,0.197
HKG2000WRNO,2019-09-25-08-37-28,8,34,0.562297878449677,left,both,ambiguous-stable,102,40,right,left,1.403
HKG2000WRNO,2019-09-25-08-37-28,8,35,0.6174677329829624,left,probe,biased-switch,-1,40,left,left,0.568
HKG2000WRNO,2019-09-25-08-37-28,8,36,0.6291093544524355,left,both,biased-switch,105,40,left,left,0.355
HKG2000WRNO,2019-09-25-08-37-28,8,37,0.6050953569382799,left,probe,biased-switch,-1,-30,left,left,0.689
HKG2000WRNO,2019-09-25-08-37-28,8,38,0.5499415912504091,left,both,biased-switch,94,-30,left,left,0.257
HKG2000WRNO,2019-09-25-08-37-28,8,39,0.6142555562994961,left,probe,biased-switch,-1,20,left,left,0.269
HKG2000WRNO,2019-09-25-08-37-28,8,40,0.5679781057581313,left,both,biased-switch,110,20,left,right,0.222
HKG2000WRNO,2019-09-25-08-37-28,8,41,0.6599745819011921,left,probe,ambiguous-switch,-1,20,left,left,0.21
HKG2000WRNO,2019-09-25-08-37-28,8,42,0.5343022839489431,left,both,ambiguous-switch,102,20,left,left,0.214
HKG2000WRNO,2019-09-25-08-37-28,8,43,0.6746843196706668,right,probe,ambiguous-switch,-1,-20,left,left,0.253
HKG2000WRNO,2019-09-25-08-37-28,8,44,0.6838245887296858,right,both,ambiguous-switch,94,-20,left,left,0.938
HKG2000WRNO,2019-09-25-08-37-28,8,45,0.657940695778589,right,probe,ambiguous-switch,-1,30,left,left,0.391
HKG2000WRNO,2019-09-25-08-37-28,8,46,0.646686369442882,right,both,ambiguous-switch,102,30,left,right,0.328
HKG2000WRNO,2019-09-25-08-37-28,8,47,0.5465885512698998,right,probe,ambiguous-switch,-1,10,left,left,0.423
HKG2000WRNO,2019-09-25-08-37-28,8,48,0.5928598069807782,right,both,ambiguous-switch,92,10,left,right,0.188
HKG2000WRNO,2019-09-25-08-37-28,8,49,0.609198593611094,left,probe,ambiguous-switch,-1,40,left,left,0.235
HKG2000WRNO,2019-09-25-08-37-28,8,50,0.5357029871703155,left,both,ambiguous-switch,91,40,left,left,0.189
HKG2000WRNO,2019-09-25-08-37-28,8,51,0.6560374887585658,left,probe,ambiguous-switch,-1,5,left,left,0.472
HKG2000WRNO,2019-09-25-08-37-28,8,52,0.6426250478862134,left,both,ambiguous-switch,95,5,left,left,0.301
HKG2000WRNO,2019-09-25-08-37-28,8,53,0.6439448051150628,left,probe,biased-switch,-1,10,right,right,0.306
HKG2000WRNO,2019-09-25-08-37-28,8,54,0.6744326535987778,left,both,biased-switch,102,10,right,left,0.252
HKG2000WRNO,2019-09-25-08-37-28,8,55,0.5165617723061318,right,probe,ambiguous-stable,-1,0,right,right,0.256
HKG2000WRNO,2019-09-25-08-37-28,8,56,0.678034922389993,right,both,ambiguous-stable,98,0,left,right,0.229
HKG2000WRNO,2019-09-25-08-37-28,8,57,0.59167672591598,left,probe,biased-switch,-1,-10,left,left,0.259
HKG2000WRNO,2019-09-25-08-37-28,8,58,0.5466020453143171,left,both,biased-switch,107,-10,left,right,1.601
HKG2000WRNO,2019-09-25-08-37-28,8,59,0.5310139374474351,left,probe,ambiguous-switch,-1,-30,right,right,0.218
HKG2000WRNO,2019-09-25-08-37-28,8,60,0.611712862304229,left,both,ambiguous-switch,98,-30,right,right,0.121
HKG2000WRNO,2019-09-25-08-37-28,9,1,0.5650878614967026,left,probe,ambiguous-stable,-1,0,right,right,0.238
HKG2000WRNO,2019-09-25-08-37-28,9,2,0.6600025786193817,left,both,ambiguous-stable,99,0,left,right,3.022
HKG2000WRNO,2019-09-25-08-37-28,9,3,0.5144337871487845,left,probe,ambiguous-stable,-1,5,right,right,0.278
HKG2000WRNO,2019-09-25-08-37-28,9,4,0.5686826811640552,left,both,ambiguous-stable,97,5,left,right,1.639
HKG2000WRNO,2019-09-25-08-37-28,9,5,0.5979937302433396,right,probe,biased-switch,-1,-10,right,right,0.252
HKG2000WRNO,2019-09-25-08-37-28,9,6,0.5622014785073544,right,both,biased-switch,95,-10,right,left,0.166
HKG2000WRNO,2019-09-25-08-37-28,9,7,0.5612261475497797,left,probe,biased-switch,-1,5,right,right,0.23
HKG2000WRNO,2019-09-25-08-37-28,9,8,0.6723233064497559,left,both,biased-switch,102,5,right,right,0.238
HKG2000WRNO,2019-09-25-08-37-28,9,9,0.6468111504164651,right,probe,biased-switch,-1,-5,left,left,0.351
HKG2000WRNO,2019-09-25-08-37-28,9,10,0.5737798435309409,right,both,biased-switch,106,-5,left,right,0.23
HKG2000WRNO,2019-09-25-08-37-28,9,11,0.5126874861663108,left,probe,biased-switch,-1,10,right,right,0.246
HKG2000WRNO,2019-09-25-08-37-28,9,12,0.6100566143592943,left,both,biased-switch,103,10,right,left,0.266
HKG2000WRNO,2019-09-25-08-37-28,9,13,0.6910517249211183,left,probe,biased-switch,-1,30,right,right,0.304
HKG2000WRNO,2019-09-25-08-37-28,9,14,0.6704944706154089,left,both,biased-switch,91,30,right,left,0.238
HKG2000WRNO,2019-09-25-08-37-28,9,15,0.6459577575653803,right,probe,ambiguous-switch,-1,-10,right,right,0.484
HKG2000WRNO,2019-09-25-08-37-28,9,16,0.5627183770471703,right,both,ambiguous-switch,101,-10,right,right,0.216
HKG2000WRNO,2019-09-25-08-37-28,9,17,0.6761608169969395,left,probe,ambiguous-switch,-1,40,right,right,0.349
HKG2000WRNO,2019-09-25-08-37-28,9,18,0.6808183113250039,left,both,ambiguous-switch,92,40,right,right,3.476
HKG2000WRNO,2019-09-25-08-37-28,9,19,0.6873408577769795,right,probe,biased-switch,-1,-30,right,right,0.248
HKG2000WRNO,2019-09-25-08-37-28,9,20,0.6415672179992241,right,both,biased-switch,101,-30,right,right,0.449
HKG2000WRNO,2019-09-25-08-37-28,9,21,0.5698225027733584,right,probe,ambiguous-switch,-1,-5,right,right,0.617
HKG2000WRNO,2019-09-25-08-37-28,9,22,0.5806069498841844,right,both,ambiguous-switch,106,-5,right,right,2.05
HKG2000WRNO,2019-09-25-08-37-28,9,23,0.6126177284469606,left,probe,ambiguous-switch,-1,5,right,right,0.353
HKG2000WRNO,2019-09-25-08-37-28,9,24,0.545815232486272,left,both,ambiguous-switch,104,5,right,left,0.467
HKG2000WRNO,2019-09-25-08-37-28,9,25,0.6357991808202601,left,probe,ambiguous-stable,-1,30,left,left,0.498
HKG2000WRNO,2019-09-25-08-37-28,9,26,0.6046107226979825,left,both,ambiguous-stable,108,30,right,left,0.172
HKG2000WRNO,2019-09-25-08-37-28,9,27,0.6313524067380878,right,probe,biased-switch,-1,20,left,left,1.003
HKG2000WRNO,2019-09-25-08-37-28,9,28,0.688906362316257,right,both,biased-switch,106,20,left,right,0.343
HKG2000WRNO,2019-09-25-08-37-28,9,29,0.5023935929746183,left,probe,ambiguous-switch,-1,0,right,right,0.259
HKG2000WRNO,2019-09-25-08-37-28,9,30,0.6384976580157976,left,both,ambiguous-switch,96,0,right,left,2.949
HKG2000WRNO,2019-09-25-08-37-28,9,31,0.5469775285074173,right,probe,ambiguous-stable,-1,-30,right,right,0.243
HKG2000WRNO,2019-09-25-08-37-28,9,32,0.6624063883728744,right,both,ambiguous-stable,96,-30,left,right,0.323
HKG2000WRNO,2019-09-25-08-37-28,9,33,0.5735969563285597,left,probe,ambiguous-switch,-1,30,left,left,0.311
HKG2000WRNO,2019-09-25-08-37-28,9,34,0.6171128161646859,left,both,ambiguous-switch,107,30,left,left,0.258
HKG2000WRNO,2019-09-25-08-37-28,9,35,0.6781177392917948,left,probe,ambiguous-stable,-1,-10,left,left,0.457
HKG2000WRNO,2019-09-25-08-37-28,9,36,0.5919601701368251,left,both,ambiguous-stable,101,-10,right,left,0.187
HKG2000WRNO,2019-09-25-08-37-28,9,37,0.6428290731004646,left,probe,ambiguous-stable,-1,40,left,left,0.262
HKG2000WRNO,2019-09-25-08-37-28,9,38,0.6836817255050596,left,both,ambiguous-stable,110,40,right,left,0.238
HKG2000WRNO,2019-09-25-08-37-28,9,39,0.6939854586592585,right,probe,biased-switch,-1,40,right,right,0.299
HKG2000WRNO,2019-09-25-08-37-28,9,40,0.6086498272743064,right,both,biased-switch,110,40,right,right,1.188
HKG2000WRNO,2019-09-25-08-37-28,9,41,0.5644452123260946,right,probe,ambiguous-stable,-1,10,right,right,0.282
HKG2000WRNO,2019-09-25-08-37-28,9,42,0.5082781713745417,right,both,ambiguous-stable,104,10,left,right,0.379
HKG2000WRNO,2019-09-25-08-37-28,9,43,0.5181129155982908,right,probe,ambiguous-switch,-1,20,right,right,0.383
HKG2000WRNO,2019-09-25-08-37-28,9,44,0.622872747318973,right,both,ambiguous-switch,106,20,right,right,0.329
HKG2000WRNO,2019-09-25-08-37-28,9,45,0.6914033896719713,left,probe,ambiguous-stable,-1,-20,right,right,0.24
HKG2000WRNO,2019-09-25-08-37-28,9,46,0.5988009951556547,left,both,ambiguous-stable,107,-20,left,right,0.28
HKG2000WRNO,2019-09-25-08-37-28,9,47,0.6528219275560929,right,probe,ambiguous-stable,-1,20,right,right,0.427
HKG2000WRNO,2019-09-25-08-37-28,9,48,0.5044890054012334,right,both,ambiguous-stable,95,20,left,right,0.254
HKG2000WRNO,2019-09-25-08-37-28,9,49,0.5386452828644916,right,probe,ambiguous-switch,-1,-20,right,right,0.267
HKG2000WRNO,2019-09-25-08-37-28,9,50,0.5572579756457173,right,both,ambiguous-switch,91,-20,right,right,0.012
HKG2000WRNO,2019-09-25-08-37-28,9,51,0.532090572074814,left,probe,ambiguous-switch,-1,-30,right,right,0.322
HKG2000WRNO,2019-09-25-08-37-28,9,52,0.6648683719812536,left,both,ambiguous-switch,108,-30,right,right,0.372
HKG2000WRNO,2019-09-25-08-37-28,9,53,0.6173952149492362,right,probe,biased-switch,-1,-20,right,right,0.297
HKG2000WRNO,2019-09-25-08-37-28,9,54,0.5368577959384755,right,both,biased-switch,98,-20,right,left,0.206
HKG2000WRNO,2019-09-25-08-37-28,9,55,0.549122240355314,right,probe,ambiguous-switch,-1,10,right,right,0.358
HKG2000WRNO,2019-09-25-08-37-28,9,56,0.5782569453681602,right,both,ambiguous-switch,91,10,right,right,0.312
HKG2000WRNO,2019-09-25-08-37-28,9,57,0.520086771875379,right,probe,ambiguous-stable,-1,-5,right,right,0.484
HKG2000WRNO,2019-09-25-08-37-28,9,58,0.584213054346536,right,both,ambiguous-stable,101,-5,left,left,0.208
HKG2000WRNO,2019-09-25-08-37-28,9,59,0.5555655520200333,left,probe,biased-switch,-1,0,left,left,0.257
HKG2000WRNO,2019-09-25-08-37-28,9,60,0.5568796465091336,left,both,biased-switch,107,0,left,right,0.289
HKG2000WRNO,2019-09-25-08-37-28,10,1,0.6222753559559862,right,probe,ambiguous-switch,-1,30,left,left,3.305
HKG2000WRNO,2019-09-25-08-37-28,10,2,0.6484487301696551,right,both,ambiguous-switch,108,30,left,left,0.328
HKG2000WRNO,2019-09-25-08-37-28,10,3,0.6813393847851682,right,probe,ambiguous-switch,-1,20,left,left,0.334
HKG2000WRNO,2019-09-25-08-37-28,10,4,0.6918938096931937,right,both,ambiguous-switch,97,20,left,left,0.211
HKG2000WRNO,2019-09-25-08-37-28,10,5,0.5921452828314747,right,probe,ambiguous-stable,-1,0,left,left,0.314
HKG2000WRNO,2019-09-25-08-37-28,10,6,0.6434262673342988,right,both,ambiguous-stable,102,0,right,left,0.183
HKG2000WRNO,2019-09-25-08-37-28,10,7,0.6070884952140339,right,probe,biased-switch,-1,5,left,left,0.32
HKG2000WRNO,2019-09-25-08-37-28,10,8,0.6016807017280397,right,both,biased-switch,106,5,left,left,0.28
HKG2000WRNO,2019-09-25-08-37-28,10,9,0.5694287809103481,left,probe,ambiguous-switch,-1,-5,left,left,0.272
HKG2000WRNO,2019-09-25-08-37-28,10,10,0.5862846593474054,left,both,ambiguous-switch,91,-5,left,right,0.189
HKG2000WRNO,2019-09-25-08-37-28,10,11,0.5113315066943613,left,probe,biased-switch,-1,40,left,left,0.254
HKG2000WRNO,2019-09-25-08-37-28,10,12,0.6213889058747929,left,both,biased-switch,96,40,left,left,0.291
HKG2000WRNO,2019-09-25-08-37-28,10,13,0.5674626433175713,right,probe,ambiguous-switch,-1,-10,left,left,0.313
HKG2000WRNO,2019-09-25-08-37-28,10,14,0.5255050567578692,right,both,ambiguous-switch,96,-10,left,left,0.155
HKG2000WRNO,2019-09-25-08-37-28,10,15,0.5349250921383677,right,probe,ambiguous-stable,-1,-5,left,left,0.233
HKG2000WRNO,2019-09-25-08-37-28,10,16,0.6181688306509582,right,both,ambiguous-stable,101,-5,right,left,0.351
HKG2000WRNO,2019-09-25-08-37-28,10,17,0.5520753717248525,left,probe,ambiguous-switch,-1,5,right,right,0.363
HKG2000WRNO,2019-09-25-08-37-28,10,18,0.5478928773596851,left,both,ambiguous-switch,102,5,right,left,0.242
HKG2000WRNO,2019-09-25-08-37-28,10,19,0.5440973268762352,right,probe,biased-switch,-1,20,left,left,0.187
HKG2000WRNO,2019-09-25-08-37-28,10,20,0.6333473651103443,right,both,biased-switch,96,20,left,left,0.328
HKG2000WRNO,2019-09-25-08-37-28,10,21,0.6300662412591087,left,probe,biased-switch,-1,0,left,left,0.257
HKG2000WRNO,2019-09-25-08-37-28,10,22,0.6135804112394793,left,both,biased-switch,108,0,left,right,0.784
HKG2000WRNO,2019-09-25-08-37-28,10,23,0.526550827196122,left,probe,ambiguous-switch,-1,0,left,left,0.269
HKG2000WRNO,2019-09-25-08-37-28,10,24,0.6865458718210573,left,both,ambiguous-switch,95,0,left,right,0.204
HKG2000WRNO,2019-09-25-08-37-28,10,25,0.5308873675316265,right,probe,ambiguous-switch,-1,-20,left,left,0.393
HKG2000WRNO,2019-09-25-08-37-28,10,26,0.6236036932731489,right,both,ambiguous-switch,103,-20,left,left,0.299
HKG2000WRNO,2019-09-25-08-37-28,10,27,0.5078671706815077,left,probe,biased-switch,-1,10,left,left,0.011
HKG2000WRNO,2019-09-25-08-37-28,10,28,0.5936001981557395,left,both,biased-switch,96,10,left,right,0.214
HKG2000WRNO,2019-09-25-08-37-28,10,29,0.5270995270023867,right,probe,biased-switch,-1,-30,left,left,0.622
HKG2000WRNO,2019-09-25-08-37-28,10,30,0.5038430827340605,right,both,biased-switch,98,-30,left,left,0.296
HKG2000WRNO,2019-09-25-08-37-28,10,31,0.625589890157662,right,probe,ambiguous-switch,-1,10,left,left,2.03
HKG2000WRNO,2019-09-25-08-37-28,10,32,0.5669978230573397,right,both,ambiguous-switch,99,10,left,left,1.896
HKG2000WRNO,2019-09-25-08-37-28,10,33,0.5510382687253563,right,probe,biased-switch,-1,-20,left,left,0.416
HKG2000WRNO,2019-09-25-08-37-28,10,34,0.6230506065725754,right,both,biased-switch,102,-20,left,left,1.528
HKG2000WRNO,2019-09-25-08-37-28,10,35,0.6801165361139971,left,probe,biased-switch,-1,-5,left,left,0.247
HKG2000WRNO,2019-09-25-08-37-28,10,36,0.5450478612361841,left,both,biased-switch,110,-5,left,left,0.311
HKG2000WRNO,2019-09-25-08-37-28,10,37,0.6788106336693925,right,probe,ambiguous-stable,-1,10,left,left,0.26
HKG2000WRNO,2019-09-25-08-37-28,10,38,0.5925568300733868,right,both,ambiguous-stable,94,10,right,left,0.308
HKG2000WRNO,2019-09-25-08-37-28,10,39,0.577983679878542,right,probe,biased-switch,-1,-10,left,left,0.122
HKG2000WRNO,2019-09-25-08-37-28,10,40,0.5629584544680225,right,both,biased-switch,101,-10,left,left,0.663
HKG2000WRNO,2019-09-25-08-37-28,10,41,0.5265274978898232,left,probe,ambiguous-stable,-1,40,left,left,0.245
HKG2000WRNO,2019-09-25-08-37-28,10,42,0.5965804206249096,left,both,ambiguous-stable,103,40,right,left,0.24
HKG2000WRNO,2019-09-25-08-37-28,10,43,0.6052893678710277,left,probe,ambiguous-stable,-1,-20,left,left,0.225
HKG2000WRNO,2019-09-25-08-37-28,10,44,0.6011439606254444,left,both,ambiguous-stable,97,-20,right,left,0.729
HKG2000WRNO,2019-09-25-08-37-28,10,45,0.6508868922643589,left,probe,ambiguous-stable,-1,-30,left,left,0.332
HKG2000WRNO,2019-09-25-08-37-28,10,46,0.6869710827466232,left,both,ambiguous-stable,92,-30,right,left,0.279
HKG2000WRNO,2019-09-25-08-37-28,10,47,0.6891162875655295,right,probe,ambiguous-switch,-1,40,left,left,0.287
HKG2000WRNO,2019-09-25-08-37-28,10,48,0.5364160543776644,right,both,ambiguous-switch,96,40,left,left,0.152
HKG2000WRNO,2019-09-25-08-37-28,10,49,0.6764306993885943,right,probe,ambiguous-stable,-1,5,left,left,0.742
HKG2000WRNO,2019-09-25-08-37-28,10,50,0.671053406890362,right,both,ambiguous-stable,94,5,right,left,0.196
HKG2000WRNO,2019-09-25-08-37-28,10,51,0.6603577135566205,left,probe,ambiguous-switch,-1,-30,left,left,0.855
HKG2000WRNO,2019-09-25-08-37-28,10,52,0.6804756081820571,left,both,ambiguous-switch,103,-30,left,left,0.1
HKG2000WRNO,2019-09-25-08-37-28,10,53,0.6173220223520433,left,probe,ambiguous-stable,-1,-10,left,left,0.215
HKG2000WRNO,2019-09-25-08-37-28,10,54,0.5925302374247652,left,both,ambiguous-stable,96,-10,right,left,0.206
HKG2000WRNO,2019-09-25-08-37-28,10,55,0.5028386929667761,left,probe,ambiguous-stable,-1,20,left,left,0.204
HKG2000WRNO,2019-09-25-08-37-28,10,56,0.6304412190707667,left,both,ambiguous-stable,101,20,right,left,0.071
HKG2000WRNO,2019-09-25-08-37-28,10,57,0.559904486529416,right,probe,ambiguous-stable,-1,30,left,left,0.243
HKG2000WRNO,2019-09-25-08-37-28,10,58,0.5159265646555465,right,both,ambiguous-stable,94,30,right,left,0.347
HKG2000WRNO,2019-09-25-08-37-28,10,59,0.5092912506279468,left,probe,biased-switch,-1,30,left,left,0.372
HKG2000WRNO,2019-09-25-08-37-28,10,60,0.5831120924565559,left,both,biased-switch,106,30,left,left,0.239
