Participant,Session,Block,Trial,OnsetDelay,ProbeLocation,WhatIsReported,Condition,TriggerTime,ProbeSOA,PrimeDirection,Response,RT
SKL1994WRNO,2019-09-17-12-04-47,1,1,0.6503911636153119,right,probe,ambiguous-stable,-1,0,right,right,0.626
SKL1994WRNO,2019-09-17-12-04-47,1,2,0.5624111241886879,right,both,ambiguous-stable,96,0,left,right,0.413
SKL1994WRNO,2019-09-17-12-04-47,1,3,0.6258241226861958,right,probe,ambiguous-switch,-1,20,right,right,0.327
SKL1994WRNO,2019-09-17-12-04-47,1,4,0.5921697058240892,right,both,ambiguous-switch,97,20,right,right,0.224
SKL1994WRNO,2019-09-17-12-04-47,1,5,0.5905350904010157,left,probe,ambiguous-stable,-1,40,right,right,0.171
SKL1994WRNO,2019-09-17-12-04-47,1,6,0.6116960645029671,left,both,ambiguous-stable,108,40,left,right,0.232
SKL1994WRNO,2019-09-17-12-04-47,1,7,0.5144539042794793,right,probe,biased-switch,-1,-5,right,right,0.559
SKL1994WRNO,2019-09-17-12-04-47,1,8,0.6933139237482546,right,both,biased-switch,94,-5,right,right,0.254
SKL1994WRNO,2019-09-17-12-04-47,1,9,0.5686843181540533,left,probe,biased-switch,-1,-10,right,right,0.438
SKL1994WRNO,2019-09-17-12-04-47,1,10,0.6480650343269067,left,both,biased-switch,94,-10,right,right,0.303
SKL1994WRNO,2019-09-17-12-04-47,1,11,0.5478722142703547,right,probe,ambiguous-stable,-1,10,right,right,0.35
SKL1994WRNO,2019-09-17-12-04-47,1,12,0.6233061933224434,right,both,ambiguous-stable,92,10,left,right,0.23
SKL1994WRNO,2019-09-17-12-04-47,1,13,0.5812291763782609,left,probe,ambiguous-stable,-1,-5,right,right,0.314
SKL1994WRNO,2019-09-17-12-04-47,1,14,0.5094276276797108,left,both,ambiguous-stable,99,-5,left,right,0.215
SKL1994WRNO,2019-09-17-12-04-47,1,15,0.695102414659683,right,probe,biased-switch,-1,30,right,right,0.204
SKL1994WRNO,2019-09-17-12-04-47,1,16,0.653119267044588,right,both,biased-switch,101,30,right,right,0.045
SKL1994WRNO,2019-09-17-12-04-47,1,17,0.5817602005926155,right,probe,biased-switch,-1,40,right,right,0.227
SKL1994WRNO,2019-09-17-12-04-47,1,18,0.5446006703121483,right,both,biased-switch,96,40,right,right,0.199
SKL1994WRNO,2019-09-17-12-04-47,1,19,0.5717852036067184,left,probe,ambiguous-stable,-1,30,right,right,0.205
SKL1994WRNO,2019-09-17-12-04-47,1,20,0.5823728150480393,left,both,ambiguous-stable,95,30,left,right,0.311
SKL1994WRNO,2019-09-17-12-04-47,1,21,0.6756026895136402,left,probe,biased-switch,-1,0,right,right,0.378
SKL1994WRNO,2019-09-17-12-04-47,1,22,0.5021511462313513,left,both,biased-switch,92,0,right,right,0.188
SKL1994WRNO,2019-09-17-12-04-47,1,23,0.6644146688377119,right,probe,ambiguous-stable,-1,-10,right,right,0.332
SKL1994WRNO,2019-09-17-12-04-47,1,24,0.583206940529571,right,both,ambiguous-stable,95,-10,left,right,0.241
SKL1994WRNO,2019-09-17-12-04-47,1,25,0.622736212032131,left,probe,ambiguous-switch,-1,-5,right,right,0.228
SKL1994WRNO,2019-09-17-12-04-47,1,26,0.6345396411364441,left,both,ambiguous-switch,92,-5,right,right,0.281
SKL1994WRNO,2019-09-17-12-04-47,1,27,0.6240103108397674,left,probe,ambiguous-switch,-1,5,right,right,0.207
SKL1994WRNO,2019-09-17-12-04-47,1,28,0.5718524156962528,left,both,ambiguous-switch,92,5,right,right,0.172
SKL1994WRNO,2019-09-17-12-04-47,1,29,0.6379604295644578,right,probe,ambiguous-stable,-1,-20,right,right,0.293
SKL1994WRNO,2019-09-17-12-04-47,1,30,0.5287904727941788,right,both,ambiguous-stable,106,-20,left,right,0.208
SKL1994WRNO,2019-09-17-12-04-47,1,31,0.554875498384674,left,probe,biased-switch,-1,5,right,right,0.193
SKL1994WRNO,2019-09-17-12-04-47,1,32,0.6150030231678827,left,both,biased-switch,106,5,right,right,0.118
SKL1994WRNO,2019-09-17-12-04-47,1,33,0.5651171897610886,left,probe,ambiguous-switch,-1,-30,right,right,0.192
SKL1994WRNO,2019-09-17-12-04-47,1,34,0.6243465683447359,left,both,ambiguous-switch,94,-30,right,right,0.242
SKL1994WRNO,2019-09-17-12-04-47,1,35,0.6203974918426148,left,probe,ambiguous-switch,-1,0,right,right,0.193
SKL1994WRNO,2019-09-17-12-04-47,1,36,0.5956961081478797,left,both,ambiguous-switch,94,0,right,right,0.172
SKL1994WRNO,2019-09-17-12-04-47,1,37,0.6427318608934395,right,probe,biased-switch,-1,-30,right,right,0.059
SKL1994WRNO,2019-09-17-12-04-47,1,38,0.6986017600239773,right,both,biased-switch,102,-30,right,right,0.216
SKL1994WRNO,2019-09-17-12-04-47,1,39,0.5794400323354827,left,probe,ambiguous-switch,-1,10,right,right,0.185
SKL1994WRNO,2019-09-17-12-04-47,1,40,0.5440493836694811,left,both,ambiguous-switch,107,10,right,right,0.131
SKL1994WRNO,2019-09-17-12-04-47,1,41,0.6471576640207197,right,probe,biased-switch,-1,-20,right,right,0.197
SKL1994WRNO,2019-09-17-12-04-47,1,42,0.5857337446012212,right,both,biased-switch,100,-20,right,right,0.176
SKL1994WRNO,2019-09-17-12-04-47,1,43,0.5997886534267756,left,probe,ambiguous-stable,-1,5,right,right,0.212
SKL1994WRNO,2019-09-17-12-04-47,1,44,0.5436919678915547,left,both,ambiguous-stable,92,5,left,right,0.059
SKL1994WRNO,2019-09-17-12-04-47,1,45,0.5831399890157791,right,probe,biased-switch,-1,10,right,right,0.174
SKL1994WRNO,2019-09-17-12-04-47,1,46,0.5686443893887178,right,both,biased-switch,106,10,right,right,0.194
SKL1994WRNO,2019-09-17-12-04-47,1,47,0.5781769833925139,right,probe,ambiguous-switch,-1,40,right,right,0.19
SKL1994WRNO,2019-09-17-12-04-47,1,48,0.5553697901287487,right,both,ambiguous-switch,101,40,right,right,0.232
SKL1994WRNO,2019-09-17-12-04-47,1,49,0.5727001006605963,right,probe,biased-switch,-1,20,right,right,0.183
SKL1994WRNO,2019-09-17-12-04-47,1,50,0.6330150631412503,right,both,biased-switch,105,20,right,right,0.219
SKL1994WRNO,2019-09-17-12-04-47,1,51,0.6215549893468804,right,probe,ambiguous-switch,-1,-10,right,right,0.235
SKL1994WRNO,2019-09-17-12-04-47,1,52,0.5475397847484895,right,both,ambiguous-switch,102,-10,right,right,0.188
SKL1994WRNO,2019-09-17-12-04-47,1,53,0.6940592645070034,left,probe,ambiguous-stable,-1,20,right,right,0.141
SKL1994WRNO,2019-09-17-12-04-47,1,54,0.5389926299382904,left,both,ambiguous-stable,101,20,left,right,0.654
SKL1994WRNO,2019-09-17-12-04-47,1,55,0.6629604631273445,right,probe,ambiguous-switch,-1,30,right,right,0.294
SKL1994WRNO,2019-09-17-12-04-47,1,56,0.5704457672350665,right,both,ambiguous-switch,97,30,right,right,0.235
SKL1994WRNO,2019-09-17-12-04-47,1,57,0.5852113383381778,right,probe,ambiguous-switch,-1,-20,right,right,0.251
SKL1994WRNO,2019-09-17-12-04-47,1,58,0.6683739648887043,right,both,ambiguous-switch,98,-20,right,right,0.203
SKL1994WRNO,2019-09-17-12-04-47,1,59,0.5144924525096566,right,probe,ambiguous-stable,-1,-30,right,right,0.182
SKL1994WRNO,2019-09-17-12-04-47,1,60,0.6135504533819739,right,both,ambiguous-stable,107,-30,left,right,0.195
SKL1994WRNO,2019-09-17-12-04-47,2,1,0.652315808860978,left,probe,biased-switch,-1,-5,right,right,0.186
SKL1994WRNO,2019-09-17-12-04-47,2,2,0.565970710292035,left,both,biased-switch,102,-5,right,right,2.065
SKL1994WRNO,2019-09-17-12-04-47,2,3,0.5207957676757559,left,probe,ambiguous-stable,-1,40,right,right,0.239
SKL1994WRNO,2019-09-17-12-04-47,2,4,0.5229136971482901,left,both,ambiguous-stable,93,40,left,right,0.343
SKL1994WRNO,2019-09-17-12-04-47,2,5,0.6708594455908393,right,probe,ambiguous-stable,-1,10,right,right,0.46
SKL1994WRNO,2019-09-17-12-04-47,2,6,0.640309301255722,right,both,ambiguous-stable,104,10,left,right,0.237
SKL1994WRNO,2019-09-17-12-04-47,2,7,0.6765151913567033,right,probe,ambiguous-stable,-1,5,right,right,0.27
SKL1994WRNO,2019-09-17-12-04-47,2,8,0.6559803563305742,right,both,ambiguous-stable,92,5,left,right,0.189
SKL1994WRNO,2019-09-17-12-04-47,2,9,0.6201184064974489,left,probe,ambiguous-stable,-1,-5,right,right,0.226
SKL1994WRNO,2019-09-17-12-04-47,2,10,0.5103233137164841,left,both,ambiguous-stable,103,-5,left,right,0.246
SKL1994WRNO,2019-09-17-12-04-47,2,11,0.5642437535754193,right,probe,biased-switch,-1,10,right,right,0.191
SKL1994WRNO,2019-09-17-12-04-47,2,12,0.5726196344955411,right,both,biased-switch,98,10,right,right,0.217
SKL1994WRNO,2019-09-17-12-04-47,2,13,0.6218820800354308,right,probe,ambiguous-switch,-1,-5,right,right,0.219
SKL1994WRNO,2019-09-17-12-04-47,2,14,0.6821690077598082,right,both,ambiguous-switch,93,-5,right,right,0.208
SKL1994WRNO,2019-09-17-12-04-47,2,15,0.6439906339618586,right,probe,ambiguous-switch,-1,-30,right,right,0.221
SKL1994WRNO,2019-09-17-12-04-47,2,16,0.643730397169695,right,both,ambiguous-switch,107,-30,right,right,0.213
SKL1994WRNO,2019-09-17-12-04-47,2,17,0.6004831950110264,left,probe,ambiguous-switch,-1,10,right,right,0.254
SKL1994WRNO,2019-09-17-12-04-47,2,18,0.6738142114603558,left,both,ambiguous-switch,92,10,right,left,0.067
SKL1994WRNO,2019-09-17-12-04-47,2,19,0.6688995951537373,left,probe,ambiguous-stable,-1,-10,right,right,0.172
SKL1994WRNO,2019-09-17-12-04-47,2,20,0.6100316345911327,left,both,ambiguous-stable,106,-10,left,right,0.182
SKL1994WRNO,2019-09-17-12-04-47,2,21,0.6024299323484017,right,probe,biased-switch,-1,5,right,right,0.133
SKL1994WRNO,2019-09-17-12-04-47,2,22,0.675847837249053,right,both,biased-switch,103,5,right,left,0.231
SKL1994WRNO,2019-09-17-12-04-47,2,23,0.57577580799499,right,probe,biased-switch,-1,-20,right,right,0.173
SKL1994WRNO,2019-09-17-12-04-47,2,24,0.5776144976337929,right,both,biased-switch,103,-20,right,right,0.205
SKL1994WRNO,2019-09-17-12-04-47,2,25,0.6110728243776858,left,probe,ambiguous-switch,-1,0,right,right,0.134
SKL1994WRNO,2019-09-17-12-04-47,2,26,0.6911132602654744,left,both,ambiguous-switch,103,0,right,right,0.059
SKL1994WRNO,2019-09-17-12-04-47,2,27,0.568216460589301,left,probe,biased-switch,-1,20,right,right,0.102
SKL1994WRNO,2019-09-17-12-04-47,2,28,0.5513140412594577,left,both,biased-switch,93,20,right,left,0.245
SKL1994WRNO,2019-09-17-12-04-47,2,29,0.5458458894349044,left,probe,ambiguous-stable,-1,20,right,right,0.236
SKL1994WRNO,2019-09-17-12-04-47,2,30,0.560888824699974,left,both,ambiguous-stable,101,20,left,left,0.214
SKL1994WRNO,2019-09-17-12-04-47,2,31,0.5871088381422721,left,probe,biased-switch,-1,0,left,left,0.25
SKL1994WRNO,2019-09-17-12-04-47,2,32,0.50864069513266,left,both,biased-switch,102,0,left,right,0.195
SKL1994WRNO,2019-09-17-12-04-47,2,33,0.5768730023208828,left,probe,biased-switch,-1,-30,right,right,0.21
SKL1994WRNO,2019-09-17-12-04-47,2,34,0.547293327449466,left,both,biased-switch,104,-30,right,right,0.236
SKL1994WRNO,2019-09-17-12-04-47,2,35,0.645592980669787,left,probe,ambiguous-stable,-1,0,right,right,0.219
SKL1994WRNO,2019-09-17-12-04-47,2,36,0.5946248274844174,left,both,ambiguous-stable,91,0,left,right,0.197
SKL1994WRNO,2019-09-17-12-04-47,2,37,0.5265671147149691,right,probe,ambiguous-switch,-1,-10,left,left,0.287
SKL1994WRNO,2019-09-17-12-04-47,2,38,0.6591743059910464,right,both,ambiguous-switch,91,-10,left,right,0.272
SKL1994WRNO,2019-09-17-12-04-47,2,39,0.5816383746248316,right,probe,ambiguous-switch,-1,40,left,left,0.198
SKL1994WRNO,2019-09-17-12-04-47,2,40,0.6897470869538279,right,both,ambiguous-switch,100,40,left,right,0.043
SKL1994WRNO,2019-09-17-12-04-47,2,41,0.6215382005525035,left,probe,ambiguous-switch,-1,30,right,right,0.027
SKL1994WRNO,2019-09-17-12-04-47,2,42,0.5019619099547472,left,both,ambiguous-switch,110,30,right,right,0.307
SKL1994WRNO,2019-09-17-12-04-47,2,43,0.5425488637157522,right,probe,ambiguous-switch,-1,20,left,left,0.353
SKL1994WRNO,2019-09-17-12-04-47,2,44,0.5509954005968432,right,both,ambiguous-switch,102,20,left,left,0.294
SKL1994WRNO,2019-09-17-12-04-47,2,45,0.5140557215322815,left,probe,biased-switch,-1,40,left,left,0.355
SKL1994WRNO,2019-09-17-12-04-47,2,46,0.534617863384481,left,both,biased-switch,105,40,left,right,0.285
SKL1994WRNO,2019-09-17-12-04-47,2,47,0.565118771993958,left,probe,ambiguous-switch,-1,5,right,right,0.253
SKL1994WRNO,2019-09-17-12-04-47,2,48,0.6539446289199417,left,both,ambiguous-switch,94,5,right,left,0.216
SKL1994WRNO,2019-09-17-12-04-47,2,49,0.6432036111608805,right,probe,ambiguous-switch,-1,-20,left,left,0.322
SKL1994WRNO,2019-09-17-12-04-47,2,50,0.6726854899602355,right,both,ambiguous-switch,97,-20,left,left,0.22
SKL1994WRNO,2019-09-17-12-04-47,2,51,0.5121066031315054,left,probe,ambiguous-stable,-1,-30,left,left,0.317
SKL1994WRNO,2019-09-17-12-04-47,2,52,0.6891209729141496,left,both,ambiguous-stable,100,-30,right,right,0.5
SKL1994WRNO,2019-09-17-12-04-47,2,53,0.5223084301539807,right,probe,ambiguous-stable,-1,-20,left,left,0.308
SKL1994WRNO,2019-09-17-12-04-47,2,54,0.5624758077887624,right,both,ambiguous-stable,93,-20,right,left,0.203
SKL1994WRNO,2019-09-17-12-04-47,2,55,0.5447609316275244,right,probe,ambiguous-stable,-1,30,left,left,0.27
SKL1994WRNO,2019-09-17-12-04-47,2,56,0.6540694830710548,right,both,ambiguous-stable,92,30,right,left,0.205
SKL1994WRNO,2019-09-17-12-04-47,2,57,0.5444369148948633,left,probe,biased-switch,-1,-10,right,right,0.466
SKL1994WRNO,2019-09-17-12-04-47,2,58,0.5616575408556019,left,both,biased-switch,95,-10,right,right,0.267
SKL1994WRNO,2019-09-17-12-04-47,2,59,0.5146960865082213,left,probe,biased-switch,-1,30,right,right,0.272
SKL1994WRNO,2019-09-17-12-04-47,2,60,0.5741518812244666,left,both,biased-switch,99,30,right,right,0.177
SKL1994WRNO,2019-09-17-12-04-47,3,1,0.5083879512779718,right,probe,ambiguous-stable,-1,5,right,right,0.218
SKL1994WRNO,2019-09-17-12-04-47,3,2,0.6851908942426841,right,both,ambiguous-stable,108,5,left,left,0.217
SKL1994WRNO,2019-09-17-12-04-47,3,3,0.568761303452702,right,probe,ambiguous-switch,-1,10,left,left,0.273
SKL1994WRNO,2019-09-17-12-04-47,3,4,0.699867234990849,right,both,ambiguous-switch,102,10,left,left,0.171
SKL1994WRNO,2019-09-17-12-04-47,3,5,0.5676271163957779,right,probe,ambiguous-switch,-1,5,left,left,0.265
SKL1994WRNO,2019-09-17-12-04-47,3,6,0.6365885010324309,right,both,ambiguous-switch,106,5,left,left,0.213
SKL1994WRNO,2019-09-17-12-04-47,3,7,0.5442067300091427,left,probe,biased-switch,-1,0,left,left,0.235
SKL1994WRNO,2019-09-17-12-04-47,3,8,0.6408471383580525,left,both,biased-switch,106,0,left,right,0.207
SKL1994WRNO,2019-09-17-12-04-47,3,9,0.5559023696053528,right,probe,biased-switch,-1,-30,left,left,0.159
SKL1994WRNO,2019-09-17-12-04-47,3,10,0.618701749679745,right,both,biased-switch,105,-30,left,left,1.282
SKL1994WRNO,2019-09-17-12-04-47,3,11,0.6612510148617599,left,probe,biased-switch,-1,-10,right,right,0.293
SKL1994WRNO,2019-09-17-12-04-47,3,12,0.6055348104417517,left,both,biased-switch,109,-10,right,left,0.217
SKL1994WRNO,2019-09-17-12-04-47,3,13,0.6629309662588801,right,probe,ambiguous-switch,-1,40,left,left,0.244
SKL1994WRNO,2019-09-17-12-04-47,3,14,0.6792417822968575,right,both,ambiguous-switch,97,40,left,left,0.273
SKL1994WRNO,2019-09-17-12-04-47,3,15,0.5253568181271033,left,probe,biased-switch,-1,-20,left,left,0.274
SKL1994WRNO,2019-09-17-12-04-47,3,16,0.5542324460771632,left,both,biased-switch,102,-20,left,left,2.778
SKL1994WRNO,2019-09-17-12-04-47,3,17,0.5659545630898167,left,probe,ambiguous-stable,-1,-5,left,left,0.249
SKL1994WRNO,2019-09-17-12-04-47,3,18,0.6776197530078163,left,both,ambiguous-stable,108,-5,right,right,0.254
SKL1994WRNO,2019-09-17-12-04-47,3,19,0.5028079925830464,left,probe,ambiguous-stable,-1,10,right,right,0.252
SKL1994WRNO,2019-09-17-12-04-47,3,20,0.6395811117853709,left,both,ambiguous-stable,100,10,left,left,0.271
SKL1994WRNO,2019-09-17-12-04-47,3,21,0.6174557984402332,left,probe,ambiguous-switch,-1,30,left,left,0.304
SKL1994WRNO,2019-09-17-12-04-47,3,22,0.6377171333673768,left,both,ambiguous-switch,95,30,left,left,0.25
SKL1994WRNO,2019-09-17-12-04-47,3,23,0.6332361580321175,right,probe,ambiguous-stable,-1,30,left,left,0.228
SKL1994WRNO,2019-09-17-12-04-47,3,24,0.6939638506835248,right,both,ambiguous-stable,105,30,right,left,0.265
SKL1994WRNO,2019-09-17-12-04-47,3,25,0.6522582466949284,right,probe,biased-switch,-1,10,left,left,0.356
SKL1994WRNO,2019-09-17-12-04-47,3,26,0.571012873590521,right,both,biased-switch,106,10,left,right,0.406
SKL1994WRNO,2019-09-17-12-04-47,3,27,0.5268164621883008,left,probe,ambiguous-switch,-1,-5,right,right,0.323
SKL1994WRNO,2019-09-17-12-04-47,3,28,0.5470120159102768,left,both,ambiguous-switch,102,-5,right,right,0.208
SKL1994WRNO,2019-09-17-12-04-47,3,29,0.6491810012900394,left,probe,biased-switch,-1,5,right,right,0.292
SKL1994WRNO,2019-09-17-12-04-47,3,30,0.5707391085920865,left,both,biased-switch,97,5,right,left,0.249
SKL1994WRNO,2019-09-17-12-04-47,3,31,0.5932562686884638,left,probe,biased-switch,-1,20,left,left,0.282
SKL1994WRNO,2019-09-17-12-04-47,3,32,0.5496048537593058,left,both,biased-switch,97,20,left,right,0.236
SKL1994WRNO,2019-09-17-12-04-47,3,33,0.6852606931471548,left,probe,biased-switch,-1,40,right,right,0.331
SKL1994WRNO,2019-09-17-12-04-47,3,34,0.676840037390351,left,both,biased-switch,105,40,right,right,0.243
SKL1994WRNO,2019-09-17-12-04-47,3,35,0.5882113759226928,right,probe,biased-switch,-1,-5,right,right,0.357
SKL1994WRNO,2019-09-17-12-04-47,3,36,0.6362007612143866,right,both,biased-switch,102,-5,right,right,0.209
SKL1994WRNO,2019-09-17-12-04-47,3,37,0.692798668351279,left,probe,ambiguous-stable,-1,-20,right,right,0.426
SKL1994WRNO,2019-09-17-12-04-47,3,38,0.5072328861214547,left,both,ambiguous-stable,108,-20,left,left,0.272
SKL1994WRNO,2019-09-17-12-04-47,3,39,0.5790433181851846,right,probe,ambiguous-switch,-1,-30,left,left,0.369
SKL1994WRNO,2019-09-17-12-04-47,3,40,0.5043251165055032,right,both,ambiguous-switch,97,-30,left,left,0.211
SKL1994WRNO,2019-09-17-12-04-47,3,41,0.527882260475381,right,probe,ambiguous-stable,-1,20,left,left,0.378
SKL1994WRNO,2019-09-17-12-04-47,3,42,0.557518986832942,right,both,ambiguous-stable,99,20,right,right,0.301
SKL1994WRNO,2019-09-17-12-04-47,3,43,0.5010960377662201,left,probe,ambiguous-stable,-1,-30,right,right,0.546
SKL1994WRNO,2019-09-17-12-04-47,3,44,0.6572216700577663,left,both,ambiguous-stable,101,-30,left,right,0.228
SKL1994WRNO,2019-09-17-12-04-47,3,45,0.5036564766493379,left,probe,ambiguous-stable,-1,40,right,right,0.344
SKL1994WRNO,2019-09-17-12-04-47,3,46,0.6749053075233601,left,both,ambiguous-stable,95,40,left,right,0.2
SKL1994WRNO,2019-09-17-12-04-47,3,47,0.6202100260727094,left,probe,ambiguous-switch,-1,0,right,right,0.4
SKL1994WRNO,2019-09-17-12-04-47,3,48,0.5560406634036335,left,both,ambiguous-switch,100,0,right,right,0.292
SKL1994WRNO,2019-09-17-12-04-47,3,49,0.6865398570554833,right,probe,ambiguous-stable,-1,-10,right,right,0.203
SKL1994WRNO,2019-09-17-12-04-47,3,50,0.6708931115636532,right,both,ambiguous-stable,107,-10,left,right,0.212
SKL1994WRNO,2019-09-17-12-04-47,3,51,0.6904280148433333,left,probe,ambiguous-switch,-1,20,right,right,0.273
SKL1994WRNO,2019-09-17-12-04-47,3,52,0.6756264327083598,left,both,ambiguous-switch,91,20,right,right,0.2
SKL1994WRNO,2019-09-17-12-04-47,3,53,0.5695644606482311,right,probe,ambiguous-switch,-1,-10,right,right,0.308
SKL1994WRNO,2019-09-17-12-04-47,3,54,0.6899917320946178,right,both,ambiguous-switch,101,-10,right,right,0.188
SKL1994WRNO,2019-09-17-12-04-47,3,55,0.5547369020495946,right,probe,ambiguous-switch,-1,-20,right,right,0.353
SKL1994WRNO,2019-09-17-12-04-47,3,56,0.5260043064953577,right,both,ambiguous-switch,104,-20,right,right,0.359
SKL1994WRNO,2019-09-17-12-04-47,3,57,0.5713070661295727,left,probe,ambiguous-stable,-1,0,right,right,0.355
SKL1994WRNO,2019-09-17-12-04-47,3,58,0.6425685139707842,left,both,ambiguous-stable,110,0,left,right,0.255
SKL1994WRNO,2019-09-17-12-04-47,3,59,0.5653090943732281,right,probe,biased-switch,-1,30,right,right,0.275
SKL1994WRNO,2019-09-17-12-04-47,3,60,0.6032076686152987,right,both,biased-switch,99,30,right,right,0.161
SKL1994WRNO,2019-09-17-12-04-47,4,1,0.596836513062441,left,probe,biased-switch,-1,-30,right,right,0.233
SKL1994WRNO,2019-09-17-12-04-47,4,2,0.5693259306751679,left,both,biased-switch,104,-30,right,right,0.227
SKL1994WRNO,2019-09-17-12-04-47,4,3,0.6781283310522734,right,probe,biased-switch,-1,5,right,right,0.231
SKL1994WRNO,2019-09-17-12-04-47,4,4,0.5598188631420774,right,both,biased-switch,98,5,right,left,0.204
SKL1994WRNO,2019-09-17-12-04-47,4,5,0.5727160825749823,right,probe,ambiguous-stable,-1,5,right,right,0.232
SKL1994WRNO,2019-09-17-12-04-47,4,6,0.5271152328070631,right,both,ambiguous-stable,91,5,left,right,0.281
SKL1994WRNO,2019-09-17-12-04-47,4,7,0.6280265222952208,left,probe,ambiguous-stable,-1,-30,right,right,0.192
SKL1994WRNO,2019-09-17-12-04-47,4,8,0.620354973943651,left,both,ambiguous-stable,104,-30,left,right,0.231
SKL1994WRNO,2019-09-17-12-04-47,4,9,0.6318480858364177,right,probe,ambiguous-stable,-1,30,right,right,0.242
SKL1994WRNO,2019-09-17-12-04-47,4,10,0.6105292383329743,right,both,ambiguous-stable,98,30,left,right,0.206
SKL1994WRNO,2019-09-17-12-04-47,4,11,0.6084905618508814,left,probe,ambiguous-stable,-1,10,right,right,0.235
SKL1994WRNO,2019-09-17-12-04-47,4,12,0.5274307641419789,left,both,ambiguous-stable,98,10,left,right,0.26
SKL1994WRNO,2019-09-17-12-04-47,4,13,0.5962960638719904,left,probe,biased-switch,-1,-5,right,right,0.221
SKL1994WRNO,2019-09-17-12-04-47,4,14,0.5473884953174253,left,both,biased-switch,103,-5,right,left,0.223
SKL1994WRNO,2019-09-17-12-04-47,4,15,0.6770847128504897,left,probe,ambiguous-stable,-1,-5,right,right,0.263
SKL1994WRNO,2019-09-17-12-04-47,4,16,0.6126873489028332,left,both,ambiguous-stable,104,-5,left,right,0.215
SKL1994WRNO,2019-09-17-12-04-47,4,17,0.6794039157164418,left,probe,biased-switch,-1,30,right,right,0.202
SKL1994WRNO,2019-09-17-12-04-47,4,18,0.5417537493378767,left,both,biased-switch,100,30,right,right,0.213
SKL1994WRNO,2019-09-17-12-04-47,4,19,0.6468670807677783,right,probe,ambiguous-switch,-1,-20,right,right,0.233
SKL1994WRNO,2019-09-17-12-04-47,4,20,0.6747222389070149,right,both,ambiguous-switch,106,-20,right,right,0.208
SKL1994WRNO,2019-09-17-12-04-47,4,21,0.5968789997510312,left,probe,ambiguous-stable,-1,-20,right,right,0.284
SKL1994WRNO,2019-09-17-12-04-47,4,22,0.6772995650420575,left,both,ambiguous-stable,95,-20,left,right,0.227
SKL1994WRNO,2019-09-17-12-04-47,4,23,0.5690359423360456,left,probe,ambiguous-stable,-1,0,right,right,0.198
SKL1994WRNO,2019-09-17-12-04-47,4,24,0.589437973845026,left,both,ambiguous-stable,104,0,left,right,0.223
SKL1994WRNO,2019-09-17-12-04-47,4,25,0.6477077703444414,left,probe,ambiguous-stable,-1,40,right,right,0.168
SKL1994WRNO,2019-09-17-12-04-47,4,26,0.5563073040796485,left,both,ambiguous-stable,103,40,left,right,0.174
SKL1994WRNO,2019-09-17-12-04-47,4,27,0.5531839013417599,left,probe,ambiguous-switch,-1,30,right,right,0.218
SKL1994WRNO,2019-09-17-12-04-47,4,28,0.6289601550394618,left,both,ambiguous-switch,110,30,right,right,0.254
SKL1994WRNO,2019-09-17-12-04-47,4,29,0.5639600144023407,left,probe,biased-switch,-1,40,right,right,0.279
SKL1994WRNO,2019-09-17-12-04-47,4,30,0.5491198883272344,left,both,biased-switch,102,40,right,right,0.213
SKL1994WRNO,2019-09-17-12-04-47,4,31,0.5535277125729118,left,probe,ambiguous-stable,-1,20,right,right,0.273
SKL1994WRNO,2019-09-17-12-04-47,4,32,0.5026241749680408,left,both,ambiguous-stable,93,20,left,right,0.237
SKL1994WRNO,2019-09-17-12-04-47,4,33,0.5495169277698855,left,probe,ambiguous-switch,-1,20,right,right,0.358
SKL1994WRNO,2019-09-17-12-04-47,4,34,0.5147915903772737,left,both,ambiguous-switch,103,20,right,right,0.196
SKL1994WRNO,2019-09-17-12-04-47,4,35,0.6812647428231007,right,probe,ambiguous-switch,-1,5,right,right,0.219
SKL1994WRNO,2019-09-17-12-04-47,4,36,0.6565914867789959,right,both,ambiguous-switch,91,5,right,right,0.339
SKL1994WRNO,2019-09-17-12-04-47,4,37,0.6662484727214067,left,probe,biased-switch,-1,-10,right,right,0.296
SKL1994WRNO,2019-09-17-12-04-47,4,38,0.5728023213906432,left,both,biased-switch,90,-10,right,right,0.19
SKL1994WRNO,2019-09-17-12-04-47,4,39,0.5542252132147027,right,probe,biased-switch,-1,-20,right,right,0.216
SKL1994WRNO,2019-09-17-12-04-47,4,40,0.6640244413954755,right,both,biased-switch,105,-20,right,right,0.192
SKL1994WRNO,2019-09-17-12-04-47,4,41,0.5400186116629848,left,probe,ambiguous-switch,-1,40,right,right,0.209
SKL1994WRNO,2019-09-17-12-04-47,4,42,0.5986490022525691,left,both,ambiguous-switch,92,40,right,right,0.121
SKL1994WRNO,2019-09-17-12-04-47,4,43,0.614441521469892,right,probe,ambiguous-switch,-1,-5,right,right,0.209
SKL1994WRNO,2019-09-17-12-04-47,4,44,0.561243805909166,right,both,ambiguous-switch,105,-5,right,right,0.231
SKL1994WRNO,2019-09-17-12-04-47,4,45,0.6845137322550485,right,probe,ambiguous-switch,-1,0,right,right,0.24
SKL1994WRNO,2019-09-17-12-04-47,4,46,0.5597397262082452,right,both,ambiguous-switch,103,0,right,right,0.211
SKL1994WRNO,2019-09-17-12-04-47,4,47,0.61432618749708,right,probe,biased-switch,-1,20,right,right,0.262
SKL1994WRNO,2019-09-17-12-04-47,4,48,0.5350848782207893,right,both,biased-switch,100,20,right,right,0.106
SKL1994WRNO,2019-09-17-12-04-47,4,49,0.6226844463529398,left,probe,biased-switch,-1,0,right,right,0.265
SKL1994WRNO,2019-09-17-12-04-47,4,50,0.5061476647616038,left,both,biased-switch,103,0,right,left,0.237
SKL1994WRNO,2019-09-17-12-04-47,4,51,0.5683677195755175,right,probe,ambiguous-switch,-1,-30,right,right,0.319
SKL1994WRNO,2019-09-17-12-04-47,4,52,0.5597313616184922,right,both,ambiguous-switch,101,-30,right,right,0.234
SKL1994WRNO,2019-09-17-12-04-47,4,53,0.629401517233819,left,probe,ambiguous-switch,-1,10,right,right,0.214
SKL1994WRNO,2019-09-17-12-04-47,4,54,0.5624191217184468,left,both,ambiguous-switch,98,10,right,left,0.248
SKL1994WRNO,2019-09-17-12-04-47,4,55,0.6246002756341502,left,probe,biased-switch,-1,10,left,left,0.264
SKL1994WRNO,2019-09-17-12-04-47,4,56,0.545651453609767,left,both,biased-switch,101,10,left,right,0.239
SKL1994WRNO,2019-09-17-12-04-47,4,57,0.6348649114963654,right,probe,ambiguous-stable,-1,-10,right,right,0.221
SKL1994WRNO,2019-09-17-12-04-47,4,58,0.6335113473412974,right,both,ambiguous-stable,94,-10,left,right,0.277
SKL1994WRNO,2019-09-17-12-04-47,4,59,0.6525169166410373,left,probe,ambiguous-switch,-1,-10,left,left,0.257
SKL1994WRNO,2019-09-17-12-04-47,4,60,0.5507457932854806,left,both,ambiguous-switch,98,-10,left,left,0.237
SKL1994WRNO,2019-09-17-12-04-47,5,1,0.6411716921461585,right,probe,ambiguous-stable,-1,40,right,right,0.258
SKL1994WRNO,2019-09-17-12-04-47,5,2,0.6551150004397475,right,both,ambiguous-stable,105,40,left,right,0.205
SKL1994WRNO,2019-09-17-12-04-47,5,3,0.643900659587422,right,probe,ambiguous-switch,-1,-10,right,right,0.272
SKL1994WRNO,2019-09-17-12-04-47,5,4,0.5329988310677617,right,both,ambiguous-switch,94,-10,right,right,0.285
SKL1994WRNO,2019-09-17-12-04-47,5,5,0.5761023079134643,left,probe,ambiguous-stable,-1,0,right,right,0.214
SKL1994WRNO,2019-09-17-12-04-47,5,6,0.6621268634767166,left,both,ambiguous-stable,92,0,left,left,0.229
SKL1994WRNO,2019-09-17-12-04-47,5,7,0.6252741877108411,left,probe,biased-switch,-1,5,left,left,0.214
SKL1994WRNO,2019-09-17-12-04-47,5,8,0.5684064145074346,left,both,biased-switch,107,5,left,right,0.204
SKL1994WRNO,2019-09-17-12-04-47,5,9,0.5812926465719045,right,probe,ambiguous-stable,-1,5,right,right,0.142
SKL1994WRNO,2019-09-17-12-04-47,5,10,0.5199231957644488,right,both,ambiguous-stable,92,5,left,right,0.206
SKL1994WRNO,2019-09-17-12-04-47,5,11,0.5558619831246349,right,probe,biased-switch,-1,-10,right,right,0.159
SKL1994WRNO,2019-09-17-12-04-47,5,12,0.633358606498393,right,both,biased-switch,110,-10,right,right,0.186
SKL1994WRNO,2019-09-17-12-04-47,5,13,0.6411719757711942,right,probe,ambiguous-switch,-1,-30,right,right,0.183
SKL1994WRNO,2019-09-17-12-04-47,5,14,0.5284970733345643,right,both,ambiguous-switch,92,-30,right,right,0.207
SKL1994WRNO,2019-09-17-12-04-47,5,15,0.5593097046684421,right,probe,ambiguous-stable,-1,-10,right,right,0.267
SKL1994WRNO,2019-09-17-12-04-47,5,16,0.6360928767751963,right,both,ambiguous-stable,99,-10,left,right,0.219
SKL1994WRNO,2019-09-17-12-04-47,5,17,0.6450065399604034,left,probe,ambiguous-stable,-1,-20,left,left,0.2
SKL1994WRNO,2019-09-17-12-04-47,5,18,0.6562528281068268,left,both,ambiguous-stable,108,-20,right,right,0.115
SKL1994WRNO,2019-09-17-12-04-47,5,19,0.5615512439515553,right,probe,ambiguous-stable,-1,30,right,right,0.188
SKL1994WRNO,2019-09-17-12-04-47,5,20,0.6644672031062349,right,both,ambiguous-stable,106,30,left,right,0.241
SKL1994WRNO,2019-09-17-12-04-47,5,21,0.6467564732296103,left,probe,biased-switch,-1,30,left,left,0.212
SKL1994WRNO,2019-09-17-12-04-47,5,22,0.6119110924309221,left,both,biased-switch,103,30,left,left,0.268
SKL1994WRNO,2019-09-17-12-04-47,5,23,0.5266720705887912,left,probe,biased-switch,-1,-5,left,left,0.232
SKL1994WRNO,2019-09-17-12-04-47,5,24,0.6432083557354531,left,both,biased-switch,97,-5,left,left,0.233
SKL1994WRNO,2019-09-17-12-04-47,5,25,0.5776656294979188,right,probe,ambiguous-switch,-1,-5,right,right,0.11
SKL1994WRNO,2019-09-17-12-04-47,5,26,0.5780128873464151,right,both,ambiguous-switch,107,-5,right,right,0.274
SKL1994WRNO,2019-09-17-12-04-47,5,27,0.6946377722886916,right,probe,ambiguous-switch,-1,0,right,right,0.243
SKL1994WRNO,2019-09-17-12-04-47,5,28,0.5134362781456628,right,both,ambiguous-switch,92,0,right,right,0.229
SKL1994WRNO,2019-09-17-12-04-47,5,29,0.6745705185280361,left,probe,biased-switch,-1,-30,right,right,0.328
SKL1994WRNO,2019-09-17-12-04-47,5,30,0.6005916246209579,left,both,biased-switch,92,-30,right,right,0.222
SKL1994WRNO,2019-09-17-12-04-47,5,31,0.6298684915479605,left,probe,ambiguous-stable,-1,10,right,right,0.177
SKL1994WRNO,2019-09-17-12-04-47,5,32,0.559551573928908,left,both,ambiguous-stable,102,10,left,left,0.221
SKL1994WRNO,2019-09-17-12-04-47,5,33,0.5227362469787185,right,probe,ambiguous-switch,-1,30,right,right,0.263
SKL1994WRNO,2019-09-17-12-04-47,5,34,0.5606873316417419,right,both,ambiguous-switch,92,30,right,right,0.193
SKL1994WRNO,2019-09-17-12-04-47,5,35,0.5699892828650682,left,probe,biased-switch,-1,0,right,right,0.172
SKL1994WRNO,2019-09-17-12-04-47,5,36,0.5331869581631234,left,both,biased-switch,104,0,right,left,0.216
SKL1994WRNO,2019-09-17-12-04-47,5,37,0.6450002883921813,right,probe,ambiguous-stable,-1,-5,right,right,0.2
SKL1994WRNO,2019-09-17-12-04-47,5,38,0.5939680780305183,right,both,ambiguous-stable,107,-5,left,right,0.234
SKL1994WRNO,2019-09-17-12-04-47,5,39,0.5235325288375503,right,probe,ambiguous-switch,-1,20,right,right,0.243
SKL1994WRNO,2019-09-17-12-04-47,5,40,0.6591945048474818,right,both,ambiguous-switch,91,20,right,right,0.18
SKL1994WRNO,2019-09-17-12-04-47,5,41,0.649427304850541,right,probe,biased-switch,-1,10,right,right,0.454
SKL1994WRNO,2019-09-17-12-04-47,5,42,0.6317092805966247,right,both,biased-switch,100,10,right,right,0.168
SKL1994WRNO,2019-09-17-12-04-47,5,43,0.6278735002666787,right,probe,ambiguous-switch,-1,10,right,right,0.5
SKL1994WRNO,2019-09-17-12-04-47,5,44,0.5844514006194176,right,both,ambiguous-switch,100,10,right,right,0.274
SKL1994WRNO,2019-09-17-12-04-47,5,45,0.6228017343230419,right,probe,ambiguous-stable,-1,20,right,right,0.23
SKL1994WRNO,2019-09-17-12-04-47,5,46,0.5992874300188953,right,both,ambiguous-stable,95,20,left,right,0.24
SKL1994WRNO,2019-09-17-12-04-47,5,47,0.6060162959337592,left,probe,ambiguous-switch,-1,-20,right,right,0.401
SKL1994WRNO,2019-09-17-12-04-47,5,48,0.6545371885968969,left,both,ambiguous-switch,94,-20,right,right,0.951
SKL1994WRNO,2019-09-17-12-04-47,5,49,0.6652726855816605,left,probe,biased-switch,-1,40,right,right,0.284
SKL1994WRNO,2019-09-17-12-04-47,5,50,0.6320669120564488,left,both,biased-switch,106,40,right,right,0.207
SKL1994WRNO,2019-09-17-12-04-47,5,51,0.6748665114994706,right,probe,biased-switch,-1,-20,right,right,0.232
SKL1994WRNO,2019-09-17-12-04-47,5,52,0.5327720828605428,right,both,biased-switch,98,-20,right,right,0.202
SKL1994WRNO,2019-09-17-12-04-47,5,53,0.536187677353626,left,probe,ambiguous-stable,-1,-30,right,right,0.233
SKL1994WRNO,2019-09-17-12-04-47,5,54,0.528770372481369,left,both,ambiguous-stable,97,-30,left,right,0.226
SKL1994WRNO,2019-09-17-12-04-47,5,55,0.5042677983205259,left,probe,biased-switch,-1,20,right,right,0.192
SKL1994WRNO,2019-09-17-12-04-47,5,56,0.6497235911635738,left,both,biased-switch,101,20,right,left,0.206
SKL1994WRNO,2019-09-17-12-04-47,5,57,0.6310117600034351,right,probe,ambiguous-switch,-1,5,right,right,0.189
SKL1994WRNO,2019-09-17-12-04-47,5,58,0.515110397409372,right,both,ambiguous-switch,99,5,right,right,0.138
SKL1994WRNO,2019-09-17-12-04-47,5,59,0.6007062362356158,right,probe,ambiguous-switch,-1,40,right,right,0.206
SKL1994WRNO,2019-09-17-12-04-47,5,60,0.598609272569734,right,both,ambiguous-switch,108,40,right,right,0.362
SKL1994WRNO,2019-09-17-12-04-47,6,1,0.5252057498709541,left,probe,ambiguous-stable,-1,-5,right,right,0.427
SKL1994WRNO,2019-09-17-12-04-47,6,2,0.5758755608087076,left,both,ambiguous-stable,93,-5,left,right,0.216
SKL1994WRNO,2019-09-17-12-04-47,6,3,0.5895901452826605,right,probe,ambiguous-stable,-1,20,right,right,0.2
SKL1994WRNO,2019-09-17-12-04-47,6,4,0.6954282131993045,right,both,ambiguous-stable,98,20,left,right,0.176
SKL1994WRNO,2019-09-17-12-04-47,6,5,0.5727181541393878,right,probe,biased-switch,-1,-5,right,right,0.197
SKL1994WRNO,2019-09-17-12-04-47,6,6,0.696333610751404,right,both,biased-switch,106,-5,right,left,0.277
SKL1994WRNO,2019-09-17-12-04-47,6,7,0.5897593083543384,right,probe,biased-switch,-1,-20,right,right,0.191
SKL1994WRNO,2019-09-17-12-04-47,6,8,0.6389397307956747,right,both,biased-switch,102,-20,right,right,0.219
SKL1994WRNO,2019-09-17-12-04-47,6,9,0.5759426331128372,right,probe,biased-switch,-1,10,right,right,0.192
SKL1994WRNO,2019-09-17-12-04-47,6,10,0.5742937945041652,right,both,biased-switch,109,10,right,right,0.193
SKL1994WRNO,2019-09-17-12-04-47,6,11,0.6171716766428452,left,probe,biased-switch,-1,40,right,right,0.222
SKL1994WRNO,2019-09-17-12-04-47,6,12,0.5192372921338841,left,both,biased-switch,95,40,right,right,0.219
SKL1994WRNO,2019-09-17-12-04-47,6,13,0.5541785226929259,left,probe,ambiguous-switch,-1,10,right,right,0.202
SKL1994WRNO,2019-09-17-12-04-47,6,14,0.6830660960896623,left,both,ambiguous-switch,107,10,right,left,0.229
SKL1994WRNO,2019-09-17-12-04-47,6,15,0.5052060150051072,left,probe,ambiguous-stable,-1,40,right,right,0.107
SKL1994WRNO,2019-09-17-12-04-47,6,16,0.6303727464048253,left,both,ambiguous-stable,100,40,left,right,0.192
SKL1994WRNO,2019-09-17-12-04-47,6,17,0.5333681163707216,left,probe,ambiguous-switch,-1,0,right,right,0.226
SKL1994WRNO,2019-09-17-12-04-47,6,18,0.6963838341855857,left,both,ambiguous-switch,103,0,right,right,0.191
SKL1994WRNO,2019-09-17-12-04-47,6,19,0.5071464505886177,right,probe,ambiguous-switch,-1,20,right,right,0.249
SKL1994WRNO,2019-09-17-12-04-47,6,20,0.514395112896562,right,both,ambiguous-switch,91,20,right,left,0.218
SKL1994WRNO,2019-09-17-12-04-47,6,21,0.5193530212047844,left,probe,ambiguous-stable,-1,0,right,right,0.143
SKL1994WRNO,2019-09-17-12-04-47,6,22,0.5859345060675799,left,both,ambiguous-stable,98,0,left,right,0.225
SKL1994WRNO,2019-09-17-12-04-47,6,23,0.522600838355222,right,probe,biased-switch,-1,-10,left,left,0.231
SKL1994WRNO,2019-09-17-12-04-47,6,24,0.5607978481860624,right,both,biased-switch,105,-10,left,left,0.2
SKL1994WRNO,2019-09-17-12-04-47,6,25,0.5016745729479841,left,probe,ambiguous-stable,-1,5,right,right,0.16
SKL1994WRNO,2019-09-17-12-04-47,6,26,0.5387184113603546,left,both,ambiguous-stable,92,5,left,right,0.196
SKL1994WRNO,2019-09-17-12-04-47,6,27,0.5794425765553919,right,probe,ambiguous-switch,-1,40,left,left,0.183
SKL1994WRNO,2019-09-17-12-04-47,6,28,0.6308261638491058,right,both,ambiguous-switch,109,40,left,left,0.152
SKL1994WRNO,2019-09-17-12-04-47,6,29,0.6139330049268198,left,probe,ambiguous-switch,-1,30,right,right,0.068
SKL1994WRNO,2019-09-17-12-04-47,6,30,0.6234318938939197,left,both,ambiguous-switch,98,30,right,right,0.208
SKL1994WRNO,2019-09-17-12-04-47,6,31,0.6001402686082645,left,probe,ambiguous-switch,-1,-20,right,right,0.062
SKL1994WRNO,2019-09-17-12-04-47,6,32,0.6699548029818245,left,both,ambiguous-switch,96,-20,right,right,0.27
SKL1994WRNO,2019-09-17-12-04-47,6,33,0.6761969570174924,right,probe,biased-switch,-1,-30,right,right,0.242
SKL1994WRNO,2019-09-17-12-04-47,6,34,0.5074251833233473,right,both,biased-switch,91,-30,right,left,0.248
SKL1994WRNO,2019-09-17-12-04-47,6,35,0.518637454267946,left,probe,ambiguous-switch,-1,-5,right,right,0.49
SKL1994WRNO,2019-09-17-12-04-47,6,36,0.5415898378350659,left,both,ambiguous-switch,97,-5,right,right,0.17
SKL1994WRNO,2019-09-17-12-04-47,6,37,0.5333829663612174,right,probe,ambiguous-switch,-1,-10,left,left,0.224
SKL1994WRNO,2019-09-17-12-04-47,6,38,0.6785430426823686,right,both,ambiguous-switch,97,-10,left,left,0.197
SKL1994WRNO,2019-09-17-12-04-47,6,39,0.526793085500226,right,probe,biased-switch,-1,5,left,left,0.129
SKL1994WRNO,2019-09-17-12-04-47,6,40,0.6933992858118088,right,both,biased-switch,109,5,left,right,0.248
SKL1994WRNO,2019-09-17-12-04-47,6,41,0.6362659645526303,right,probe,biased-switch,-1,30,left,left,0.197
SKL1994WRNO,2019-09-17-12-04-47,6,42,0.5590479150997711,right,both,biased-switch,107,30,left,left,0.228
SKL1994WRNO,2019-09-17-12-04-47,6,43,0.5091306529804281,left,probe,biased-switch,-1,20,left,left,0.228
SKL1994WRNO,2019-09-17-12-04-47,6,44,0.5593820301055867,left,both,biased-switch,96,20,left,right,0.168
SKL1994WRNO,2019-09-17-12-04-47,6,45,0.6397526919134331,right,probe,ambiguous-stable,-1,10,left,left,0.245
SKL1994WRNO,2019-09-17-12-04-47,6,46,0.5131559630619663,right,both,ambiguous-stable,97,10,right,left,0.287
SKL1994WRNO,2019-09-17-12-04-47,6,47,0.6964461856238785,left,probe,ambiguous-stable,-1,-10,right,right,0.242
SKL1994WRNO,2019-09-17-12-04-47,6,48,0.5458084085528511,left,both,ambiguous-stable,97,-10,left,right,0.181
SKL1994WRNO,2019-09-17-12-04-47,6,49,0.5387893980390817,right,probe,ambiguous-switch,-1,5,left,left,0.173
SKL1994WRNO,2019-09-17-12-04-47,6,50,0.6979625590728282,right,both,ambiguous-switch,104,5,left,left,0.187
SKL1994WRNO,2019-09-17-12-04-47,6,51,0.6225930234661345,right,probe,ambiguous-stable,-1,-30,left,left,0.217
SKL1994WRNO,2019-09-17-12-04-47,6,52,0.658187237127761,right,both,ambiguous-stable,91,-30,right,left,1.55
SKL1994WRNO,2019-09-17-12-04-47,6,53,0.6960183554267809,right,probe,biased-switch,-1,0,left,left,0.267
SKL1994WRNO,2019-09-17-12-04-47,6,54,0.6702363822914958,right,both,biased-switch,99,0,left,left,0.17
SKL1994WRNO,2019-09-17-12-04-47,6,55,0.67636246902437,left,probe,ambiguous-stable,-1,30,left,left,0.176
SKL1994WRNO,2019-09-17-12-04-47,6,56,0.6239020084359239,left,both,ambiguous-stable,103,30,right,left,0.192
SKL1994WRNO,2019-09-17-12-04-47,6,57,0.6894146138012123,right,probe,ambiguous-stable,-1,-20,left,left,0.162
SKL1994WRNO,2019-09-17-12-04-47,6,58,0.5032271510859013,right,both,ambiguous-stable,110,-20,right,left,0.19
SKL1994WRNO,2019-09-17-12-04-47,6,59,0.5300308365724388,right,probe,ambiguous-switch,-1,-30,left,left,0.541
SKL1994WRNO,2019-09-17-12-04-47,6,60,0.6938121910671128,right,both,ambiguous-switch,90,-30,left,left,0.276
SKL1994WRNO,2019-09-17-12-04-47,7,1,0.5853208841766773,left,probe,ambiguous-stable,-1,40,right,right,0.191
SKL1994WRNO,2019-09-17-12-04-47,7,2,0.658236890193504,left,both,ambiguous-stable,103,40,left,right,0.221
SKL1994WRNO,2019-09-17-12-04-47,7,3,0.5111874450131035,right,probe,ambiguous-switch,-1,-10,left,left,0.2
SKL1994WRNO,2019-09-17-12-04-47,7,4,0.5895555694627647,right,both,ambiguous-switch,91,-10,left,left,0.209
SKL1994WRNO,2019-09-17-12-04-47,7,5,0.6515037748028774,right,probe,ambiguous-stable,-1,10,left,left,0.185
SKL1994WRNO,2019-09-17-12-04-47,7,6,0.6745404895626175,right,both,ambiguous-stable,108,10,right,left,0.171
SKL1994WRNO,2019-09-17-12-04-47,7,7,0.5364246031155322,left,probe,ambiguous-stable,-1,-20,right,right,0.149
SKL1994WRNO,2019-09-17-12-04-47,7,8,0.6068417106227652,left,both,ambiguous-stable,95,-20,left,right,0.172
SKL1994WRNO,2019-09-17-12-04-47,7,9,0.5890221992158906,left,probe,ambiguous-switch,-1,-5,right,right,0.183
SKL1994WRNO,2019-09-17-12-04-47,7,10,0.5474773281410831,left,both,ambiguous-switch,100,-5,right,right,0.208
SKL1994WRNO,2019-09-17-12-04-47,7,11,0.6040499279520124,right,probe,biased-switch,-1,10,left,left,0.192
SKL1994WRNO,2019-09-17-12-04-47,7,12,0.5975151116074361,right,both,biased-switch,96,10,left,right,0.205
SKL1994WRNO,2019-09-17-12-04-47,7,13,0.5528915095643852,right,probe,ambiguous-switch,-1,5,right,right,0.168
SKL1994WRNO,2019-09-17-12-04-47,7,14,0.625607517845753,right,both,ambiguous-switch,110,5,right,right,0.215
SKL1994WRNO,2019-09-17-12-04-47,7,15,0.5718332185557251,right,probe,biased-switch,-1,20,right,right,0.22
SKL1994WRNO,2019-09-17-12-04-47,7,16,0.5324235022989465,right,both,biased-switch,101,20,right,right,0.231
SKL1994WRNO,2019-09-17-12-04-47,7,17,0.5568569178057486,right,probe,ambiguous-stable,-1,5,right,right,0.272
SKL1994WRNO,2019-09-17-12-04-47,7,18,0.5634340838579875,right,both,ambiguous-stable,96,5,left,left,0.165
SKL1994WRNO,2019-09-17-12-04-47,7,19,0.6065259992372942,right,probe,biased-switch,-1,0,left,left,0.177
SKL1994WRNO,2019-09-17-12-04-47,7,20,0.6269467530578624,right,both,biased-switch,99,0,left,right,0.218
SKL1994WRNO,2019-09-17-12-04-47,7,21,0.5757331572166506,left,probe,biased-switch,-1,30,right,right,0.193
SKL1994WRNO,2019-09-17-12-04-47,7,22,0.5319193947547645,left,both,biased-switch,100,30,right,right,0.146
SKL1994WRNO,2019-09-17-12-04-47,7,23,0.5104488705459107,left,probe,ambiguous-stable,-1,30,right,right,0.177
SKL1994WRNO,2019-09-17-12-04-47,7,24,0.5180362094067459,left,both,ambiguous-stable,94,30,left,right,0.147
SKL1994WRNO,2019-09-17-12-04-47,7,25,0.6413249495522511,left,probe,ambiguous-switch,-1,20,right,right,0.07
SKL1994WRNO,2019-09-17-12-04-47,7,26,0.6754291744992521,left,both,ambiguous-switch,93,20,right,right,0.231
SKL1994WRNO,2019-09-17-12-04-47,7,27,0.5173570084038797,left,probe,biased-switch,-1,-5,right,right,0.238
SKL1994WRNO,2019-09-17-12-04-47,7,28,0.69380287196091,left,both,biased-switch,110,-5,right,right,0.179
SKL1994WRNO,2019-09-17-12-04-47,7,29,0.6756127226287618,right,probe,ambiguous-stable,-1,-30,right,right,0.155
SKL1994WRNO,2019-09-17-12-04-47,7,30,0.5678451248335241,right,both,ambiguous-stable,96,-30,left,left,0.203
SKL1994WRNO,2019-09-17-12-04-47,7,31,0.6567701605713497,right,probe,ambiguous-stable,-1,-10,right,right,0.135
SKL1994WRNO,2019-09-17-12-04-47,7,32,0.5037710826135201,right,both,ambiguous-stable,95,-10,left,left,0.041
SKL1994WRNO,2019-09-17-12-04-47,7,33,0.6775307735235931,left,probe,ambiguous-stable,-1,-5,right,right,0.059
SKL1994WRNO,2019-09-17-12-04-47,7,34,0.5749305980095176,left,both,ambiguous-stable,92,-5,left,right,0.168
SKL1994WRNO,2019-09-17-12-04-47,7,35,0.527193249397242,right,probe,ambiguous-switch,-1,30,left,left,0.188
SKL1994WRNO,2019-09-17-12-04-47,7,36,0.5620549556273338,right,both,ambiguous-switch,110,30,left,left,0.141
SKL1994WRNO,2019-09-17-12-04-47,7,37,0.5085172793465808,right,probe,biased-switch,-1,-30,left,left,0.18
SKL1994WRNO,2019-09-17-12-04-47,7,38,0.5205401749044314,right,both,biased-switch,96,-30,left,left,1.052
SKL1994WRNO,2019-09-17-12-04-47,7,39,0.5999045200781219,left,probe,ambiguous-switch,-1,-30,left,left,0.215
SKL1994WRNO,2019-09-17-12-04-47,7,40,0.5125316626052819,left,both,ambiguous-switch,94,-30,left,left,0.219
SKL1994WRNO,2019-09-17-12-04-47,7,41,0.5361289997173933,left,probe,ambiguous-stable,-1,20,left,left,0.331
SKL1994WRNO,2019-09-17-12-04-47,7,42,0.5231170177065287,left,both,ambiguous-stable,95,20,right,left,0.206
SKL1994WRNO,2019-09-17-12-04-47,7,43,0.6386382008709033,left,probe,biased-switch,-1,40,left,left,0.181
SKL1994WRNO,2019-09-17-12-04-47,7,44,0.62280579603272,left,both,biased-switch,93,40,left,left,0.188
SKL1994WRNO,2019-09-17-12-04-47,7,45,0.6764176651884114,right,probe,biased-switch,-1,5,left,left,0.388
SKL1994WRNO,2019-09-17-12-04-47,7,46,0.6187078008683756,right,both,biased-switch,108,5,left,right,2.503
SKL1994WRNO,2019-09-17-12-04-47,7,47,0.619946540615259,right,probe,ambiguous-switch,-1,0,left,left,0.332
SKL1994WRNO,2019-09-17-12-04-47,7,48,0.6883942507200711,right,both,ambiguous-switch,108,0,left,left,0.204
SKL1994WRNO,2019-09-17-12-04-47,7,49,0.5016356282063421,right,probe,biased-switch,-1,-10,left,left,0.258
SKL1994WRNO,2019-09-17-12-04-47,7,50,0.5249636384007529,right,both,biased-switch,94,-10,left,left,0.192
SKL1994WRNO,2019-09-17-12-04-47,7,51,0.6906435300656085,left,probe,ambiguous-switch,-1,10,left,left,0.178
SKL1994WRNO,2019-09-17-12-04-47,7,52,0.6192931320836033,left,both,ambiguous-switch,97,10,left,left,0.235
SKL1994WRNO,2019-09-17-12-04-47,7,53,0.5713010625205174,right,probe,ambiguous-stable,-1,0,left,left,0.254
SKL1994WRNO,2019-09-17-12-04-47,7,54,0.5621383296428563,right,both,ambiguous-stable,102,0,right,left,0.209
SKL1994WRNO,2019-09-17-12-04-47,7,55,0.688021105381341,left,probe,ambiguous-switch,-1,40,left,left,0.19
SKL1994WRNO,2019-09-17-12-04-47,7,56,0.5739332387880467,left,both,ambiguous-switch,105,40,left,left,0.321
SKL1994WRNO,2019-09-17-12-04-47,7,57,0.5431339856918926,right,probe,biased-switch,-1,-20,left,left,0.257
SKL1994WRNO,2019-09-17-12-04-47,7,58,0.647917925204746,right,both,biased-switch,91,-20,left,left,0.175
SKL1994WRNO,2019-09-17-12-04-47,7,59,0.6576757488928862,left,probe,ambiguous-switch,-1,-20,left,left,0.221
SKL1994WRNO,2019-09-17-12-04-47,7,60,0.5989648477913232,left,both,ambiguous-switch,108,-20,left,left,0.202
SKL1994WRNO,2019-09-17-12-04-47,8,1,0.5923388177006155,left,probe,biased-switch,-1,0,left,left,0.323
SKL1994WRNO,2019-09-17-12-04-47,8,2,0.566919473622838,left,both,biased-switch,104,0,left,right,0.221
SKL1994WRNO,2019-09-17-12-04-47,8,3,0.6552748106387675,right,probe,ambiguous-switch,-1,-10,left,left,0.187
SKL1994WRNO,2019-09-17-12-04-47,8,4,0.5948619423613201,right,both,ambiguous-switch,101,-10,left,left,0.166
SKL1994WRNO,2019-09-17-12-04-47,8,5,0.5865438232753157,left,probe,ambiguous-switch,-1,5,left,left,0.212
SKL1994WRNO,2019-09-17-12-04-47,8,6,0.6536452136824012,left,both,ambiguous-switch,103,5,left,left,0.209
SKL1994WRNO,2019-09-17-12-04-47,8,7,0.5794637027859509,right,probe,ambiguous-switch,-1,-20,left,left,0.194
SKL1994WRNO,2019-09-17-12-04-47,8,8,0.6429804326172657,right,both,ambiguous-switch,107,-20,left,left,0.149
SKL1994WRNO,2019-09-17-12-04-47,8,9,0.6832638730222975,right,probe,ambiguous-stable,-1,40,left,left,0.174
SKL1994WRNO,2019-09-17-12-04-47,8,10,0.6297128341235534,right,both,ambiguous-stable,105,40,right,left,0.198
SKL1994WRNO,2019-09-17-12-04-47,8,11,0.6507418755838947,left,probe,ambiguous-switch,-1,10,right,right,0.209
SKL1994WRNO,2019-09-17-12-04-47,8,12,0.6978844697422231,left,both,ambiguous-switch,92,10,right,left,0.189
SKL1994WRNO,2019-09-17-12-04-47,8,13,0.5886988063095888,right,probe,ambiguous-switch,-1,20,left,left,0.2
SKL1994WRNO,2019-09-17-12-04-47,8,14,0.6972940117538047,right,both,ambiguous-switch,91,20,left,left,0.198
SKL1994WRNO,2019-09-17-12-04-47,8,15,0.5668081823379734,left,probe,biased-switch,-1,40,left,left,0.156
SKL1994WRNO,2019-09-17-12-04-47,8,16,0.6460200389782446,left,both,biased-switch,101,40,left,left,0.167
SKL1994WRNO,2019-09-17-12-04-47,8,17,0.6637376020861165,left,probe,biased-switch,-1,-30,left,left,0.179
SKL1994WRNO,2019-09-17-12-04-47,8,18,0.5762411119604521,left,both,biased-switch,95,-30,left,left,0.156
SKL1994WRNO,2019-09-17-12-04-47,8,19,0.6677175974060152,left,probe,ambiguous-switch,-1,-30,left,left,0.203
SKL1994WRNO,2019-09-17-12-04-47,8,20,0.6375552861573872,left,both,ambiguous-switch,107,-30,left,left,0.972
SKL1994WRNO,2019-09-17-12-04-47,8,21,0.5130275491659931,right,probe,biased-switch,-1,5,left,left,0.182
SKL1994WRNO,2019-09-17-12-04-47,8,22,0.5330801732589782,right,both,biased-switch,108,5,left,right,0.32
SKL1994WRNO,2019-09-17-12-04-47,8,23,0.5433141951887515,left,probe,ambiguous-stable,-1,0,left,left,0.2
SKL1994WRNO,2019-09-17-12-04-47,8,24,0.5047007316499836,left,both,ambiguous-stable,104,0,right,left,0.28
SKL1994WRNO,2019-09-17-12-04-47,8,25,0.5098213267891533,right,probe,biased-switch,-1,30,right,right,0.236
SKL1994WRNO,2019-09-17-12-04-47,8,26,0.5878343748280881,right,both,biased-switch,93,30,right,right,0.308
SKL1994WRNO,2019-09-17-12-04-47,8,27,0.567808846749408,right,probe,ambiguous-stable,-1,-5,right,right,0.289
SKL1994WRNO,2019-09-17-12-04-47,8,28,0.560425979351056,right,both,ambiguous-stable,107,-5,left,right,0.258
SKL1994WRNO,2019-09-17-12-04-47,8,29,0.5956351057921947,left,probe,ambiguous-stable,-1,20,left,left,0.259
SKL1994WRNO,2019-09-17-12-04-47,8,30,0.6082640178000295,left,both,ambiguous-stable,99,20,right,left,0.19
SKL1994WRNO,2019-09-17-12-04-47,8,31,0.510051807876573,left,probe,ambiguous-stable,-1,5,left,left,0.19
SKL1994WRNO,2019-09-17-12-04-47,8,32,0.6221428170507309,left,both,ambiguous-stable,94,5,right,left,0.187
SKL1994WRNO,2019-09-17-12-04-47,8,33,0.545238755464571,left,probe,ambiguous-stable,-1,30,left,left,0.181
SKL1994WRNO,2019-09-17-12-04-47,8,34,0.6669362995649305,left,both,ambiguous-stable,109,30,right,left,0.195
SKL1994WRNO,2019-09-17-12-04-47,8,35,0.5219010003116314,left,probe,ambiguous-stable,-1,-10,left,left,0.12
SKL1994WRNO,2019-09-17-12-04-47,8,36,0.670447365551609,left,both,ambiguous-stable,105,-10,right,left,0.261
SKL1994WRNO,2019-09-17-12-04-47,8,37,0.5694364112237131,right,probe,biased-switch,-1,10,right,right,0.257
SKL1994WRNO,2019-09-17-12-04-47,8,38,0.5917208972795807,right,both,biased-switch,110,10,right,right,0.204
SKL1994WRNO,2019-09-17-12-04-47,8,39,0.6816199972492335,left,probe,ambiguous-stable,-1,-30,left,left,0.168
SKL1994WRNO,2019-09-17-12-04-47,8,40,0.6829261522947765,left,both,ambiguous-stable,104,-30,right,right,0.267
SKL1994WRNO,2019-09-17-12-04-47,8,41,0.6726447605090047,right,probe,ambiguous-switch,-1,-5,right,right,0.172
SKL1994WRNO,2019-09-17-12-04-47,8,42,0.6774602366141498,right,both,ambiguous-switch,91,-5,right,right,0.173
SKL1994WRNO,2019-09-17-12-04-47,8,43,0.6643239516704622,left,probe,ambiguous-switch,-1,0,left,left,0.24
SKL1994WRNO,2019-09-17-12-04-47,8,44,0.6096971687379013,left,both,ambiguous-switch,107,0,left,right,0.194
SKL1994WRNO,2019-09-17-12-04-47,8,45,0.5777383265785587,right,probe,ambiguous-switch,-1,40,right,right,0.178
SKL1994WRNO,2019-09-17-12-04-47,8,46,0.5698138043570412,right,both,ambiguous-switch,104,40,right,right,0.03
SKL1994WRNO,2019-09-17-12-04-47,8,47,0.6821211464110298,left,probe,ambiguous-stable,-1,-20,right,right,0.195
SKL1994WRNO,2019-09-17-12-04-47,8,48,0.6363994012122258,left,both,ambiguous-stable,103,-20,left,right,0.295
SKL1994WRNO,2019-09-17-12-04-47,8,49,0.6254476670540164,left,probe,biased-switch,-1,-5,right,right,0.785
SKL1994WRNO,2019-09-17-12-04-47,8,50,0.5557182244258605,left,both,biased-switch,104,-5,right,right,0.198
SKL1994WRNO,2019-09-17-12-04-47,8,51,0.6279565103907045,right,probe,biased-switch,-1,-20,right,right,0.23
SKL1994WRNO,2019-09-17-12-04-47,8,52,0.610126245466702,right,both,biased-switch,103,-20,right,right,0.249
SKL1994WRNO,2019-09-17-12-04-47,8,53,0.621990731952095,right,probe,biased-switch,-1,20,right,right,0.174
SKL1994WRNO,2019-09-17-12-04-47,8,54,0.65648361504995,right,both,biased-switch,90,20,right,right,0.253
SKL1994WRNO,2019-09-17-12-04-47,8,55,0.6845211449936188,right,probe,biased-switch,-1,-10,right,right,0.318
SKL1994WRNO,2019-09-17-12-04-47,8,56,0.5077879220164613,right,both,biased-switch,99,-10,right,right,0.112
SKL1994WRNO,2019-09-17-12-04-47,8,57,0.5031428866181002,right,probe,ambiguous-switch,-1,30,right,right,0.24
SKL1994WRNO,2019-09-17-12-04-47,8,58,0.6285127668058461,right,both,ambiguous-switch,96,30,right,right,0.223
SKL1994WRNO,2019-09-17-12-04-47,8,59,0.6898042943837708,right,probe,ambiguous-stable,-1,10,right,right,0.222
SKL1994WRNO,2019-09-17-12-04-47,8,60,0.658005406879652,right,both,ambiguous-stable,110,10,left,right,0.234
SKL1994WRNO,2019-09-17-12-04-47,9,1,0.5095218649975711,left,probe,biased-switch,-1,5,right,right,0.17
SKL1994WRNO,2019-09-17-12-04-47,9,2,0.6913515962344035,left,both,biased-switch,101,5,right,right,0.609
SKL1994WRNO,2019-09-17-12-04-47,9,3,0.5598768146418919,right,probe,ambiguous-stable,-1,-30,right,right,0.216
SKL1994WRNO,2019-09-17-12-04-47,9,4,0.5479730509590687,right,both,ambiguous-stable,104,-30,left,right,0.202
SKL1994WRNO,2019-09-17-12-04-47,9,5,0.6183837218338408,left,probe,ambiguous-switch,-1,0,right,right,0.153
SKL1994WRNO,2019-09-17-12-04-47,9,6,0.6821037256270037,left,both,ambiguous-switch,106,0,right,right,0.232
SKL1994WRNO,2019-09-17-12-04-47,9,7,0.6494925034819211,right,probe,ambiguous-switch,-1,-5,right,right,0.212
SKL1994WRNO,2019-09-17-12-04-47,9,8,0.6269827971235161,right,both,ambiguous-switch,95,-5,right,right,0.184
SKL1994WRNO,2019-09-17-12-04-47,9,9,0.5030027514323413,left,probe,ambiguous-switch,-1,-20,right,right,0.218
SKL1994WRNO,2019-09-17-12-04-47,9,10,0.5445014430736528,left,both,ambiguous-switch,104,-20,right,right,0.25
SKL1994WRNO,2019-09-17-12-04-47,9,11,0.5574728964837266,left,probe,ambiguous-stable,-1,20,right,right,0.495
SKL1994WRNO,2019-09-17-12-04-47,9,12,0.5253272032625077,left,both,ambiguous-stable,110,20,left,right,0.259
SKL1994WRNO,2019-09-17-12-04-47,9,13,0.6479110536282608,left,probe,biased-switch,-1,-5,right,right,0.188
SKL1994WRNO,2019-09-17-12-04-47,9,14,0.5930831101860883,left,both,biased-switch,90,-5,right,right,0.253
SKL1994WRNO,2019-09-17-12-04-47,9,15,0.6639315215720998,right,probe,ambiguous-switch,-1,30,right,right,0.235
SKL1994WRNO,2019-09-17-12-04-47,9,16,0.6094395465045982,right,both,ambiguous-switch,91,30,right,right,0.19
SKL1994WRNO,2019-09-17-12-04-47,9,17,0.5699688482322883,left,probe,ambiguous-stable,-1,-10,right,right,0.332
SKL1994WRNO,2019-09-17-12-04-47,9,18,0.6959200006028676,left,both,ambiguous-stable,94,-10,left,right,0.231
SKL1994WRNO,2019-09-17-12-04-47,9,19,0.6065599323251094,left,probe,ambiguous-switch,-1,-30,right,right,0.233
SKL1994WRNO,2019-09-17-12-04-47,9,20,0.5513027077999079,left,both,ambiguous-switch,100,-30,right,right,0.197
SKL1994WRNO,2019-09-17-12-04-47,9,21,0.643742478996641,left,probe,biased-switch,-1,-10,right,right,0.208
SKL1994WRNO,2019-09-17-12-04-47,9,22,0.5354080359458853,left,both,biased-switch,93,-10,right,right,0.178
SKL1994WRNO,2019-09-17-12-04-47,9,23,0.5920777701225258,right,probe,ambiguous-switch,-1,-10,right,right,0.285
SKL1994WRNO,2019-09-17-12-04-47,9,24,0.5728345670479993,right,both,ambiguous-switch,90,-10,right,right,0.205
SKL1994WRNO,2019-09-17-12-04-47,9,25,0.5727386882284043,left,probe,biased-switch,-1,10,right,right,0.225
SKL1994WRNO,2019-09-17-12-04-47,9,26,0.621689190015963,left,both,biased-switch,100,10,right,right,0.207
SKL1994WRNO,2019-09-17-12-04-47,9,27,0.5364933929593647,left,probe,ambiguous-stable,-1,5,right,right,0.218
SKL1994WRNO,2019-09-17-12-04-47,9,28,0.6509258597363689,left,both,ambiguous-stable,100,5,left,right,0.186
SKL1994WRNO,2019-09-17-12-04-47,9,29,0.5152990314202592,right,probe,ambiguous-stable,-1,30,right,right,0.219
SKL1994WRNO,2019-09-17-12-04-47,9,30,0.5849045832588364,right,both,ambiguous-stable,106,30,left,right,0.225
SKL1994WRNO,2019-09-17-12-04-47,9,31,0.6915541169680263,right,probe,ambiguous-switch,-1,40,right,right,0.281
SKL1994WRNO,2019-09-17-12-04-47,9,32,0.6266739604080751,right,both,ambiguous-switch,102,40,right,right,0.22
SKL1994WRNO,2019-09-17-12-04-47,9,33,0.517768572227922,right,probe,ambiguous-stable,-1,40,right,right,0.224
SKL1994WRNO,2019-09-17-12-04-47,9,34,0.5570696118735916,right,both,ambiguous-stable,108,40,left,right,0.197
SKL1994WRNO,2019-09-17-12-04-47,9,35,0.524339729430081,right,probe,biased-switch,-1,0,right,right,0.202
SKL1994WRNO,2019-09-17-12-04-47,9,36,0.519175399305719,right,both,biased-switch,99,0,right,right,0.204
SKL1994WRNO,2019-09-17-12-04-47,9,37,0.6504485889035595,right,probe,biased-switch,-1,30,right,right,0.146
SKL1994WRNO,2019-09-17-12-04-47,9,38,0.6054703081987708,right,both,biased-switch,94,30,right,right,0.212
SKL1994WRNO,2019-09-17-12-04-47,9,39,0.5384176772480851,right,probe,biased-switch,-1,20,right,right,0.091
SKL1994WRNO,2019-09-17-12-04-47,9,40,0.5033535693245381,right,both,biased-switch,106,20,right,right,0.198
SKL1994WRNO,2019-09-17-12-04-47,9,41,0.5145253986448354,right,probe,biased-switch,-1,-30,right,right,0.043
SKL1994WRNO,2019-09-17-12-04-47,9,42,0.507775724884313,right,both,biased-switch,98,-30,right,right,0.285
SKL1994WRNO,2019-09-17-12-04-47,9,43,0.6462602757482179,left,probe,ambiguous-stable,-1,-20,right,right,0.195
SKL1994WRNO,2019-09-17-12-04-47,9,44,0.6719455230119564,left,both,ambiguous-stable,108,-20,left,right,0.163
SKL1994WRNO,2019-09-17-12-04-47,9,45,0.5736302267973847,right,probe,biased-switch,-1,-20,right,right,0.168
SKL1994WRNO,2019-09-17-12-04-47,9,46,0.5149520013124099,right,both,biased-switch,98,-20,right,right,0.203
SKL1994WRNO,2019-09-17-12-04-47,9,47,0.6980706734304478,left,probe,ambiguous-stable,-1,-5,right,right,0.172
SKL1994WRNO,2019-09-17-12-04-47,9,48,0.5471487849327639,left,both,ambiguous-stable,90,-5,left,right,0.162
SKL1994WRNO,2019-09-17-12-04-47,9,49,0.5960154044492637,right,probe,ambiguous-stable,-1,0,right,right,0.196
SKL1994WRNO,2019-09-17-12-04-47,9,50,0.5748700408430436,right,both,ambiguous-stable,93,0,left,left,0.279
SKL1994WRNO,2019-09-17-12-04-47,9,51,0.6818463337312621,right,probe,ambiguous-switch,-1,5,left,left,0.257
SKL1994WRNO,2019-09-17-12-04-47,9,52,0.6339502017748293,right,both,ambiguous-switch,102,5,left,right,0.055
SKL1994WRNO,2019-09-17-12-04-47,9,53,0.5949121907017283,left,probe,ambiguous-switch,-1,10,right,right,0.127
SKL1994WRNO,2019-09-17-12-04-47,9,54,0.5723423734827748,left,both,ambiguous-switch,96,10,right,left,0.163
SKL1994WRNO,2019-09-17-12-04-47,9,55,0.5117341449294117,right,probe,ambiguous-stable,-1,10,right,right,0.187
SKL1994WRNO,2019-09-17-12-04-47,9,56,0.6359461826484794,right,both,ambiguous-stable,109,10,left,left,0.196
SKL1994WRNO,2019-09-17-12-04-47,9,57,0.5132543015411518,right,probe,biased-switch,-1,40,left,left,0.154
SKL1994WRNO,2019-09-17-12-04-47,9,58,0.503439490524638,right,both,biased-switch,96,40,left,left,0.436
SKL1994WRNO,2019-09-17-12-04-47,9,59,0.5071292923164846,left,probe,ambiguous-switch,-1,20,right,right,0.203
SKL1994WRNO,2019-09-17-12-04-47,9,60,0.519718900969894,left,both,ambiguous-switch,100,20,right,left,0.2
SKL1994WRNO,2019-09-17-12-04-47,10,1,0.6890605947919148,right,probe,biased-switch,-1,40,left,left,0.194
SKL1994WRNO,2019-09-17-12-04-47,10,2,0.6483801767642796,right,both,biased-switch,97,40,left,left,0.164
SKL1994WRNO,2019-09-17-12-04-47,10,3,0.5853315274082025,left,probe,biased-switch,-1,30,left,left,0.204
SKL1994WRNO,2019-09-17-12-04-47,10,4,0.6207573609842182,left,both,biased-switch,101,30,left,left,0.189
SKL1994WRNO,2019-09-17-12-04-47,10,5,0.6982426286734934,left,probe,ambiguous-switch,-1,30,left,left,0.125
SKL1994WRNO,2019-09-17-12-04-47,10,6,0.5788495435292077,left,both,ambiguous-switch,99,30,left,left,0.182
SKL1994WRNO,2019-09-17-12-04-47,10,7,0.6875535892976345,right,probe,biased-switch,-1,-30,left,left,0.186
SKL1994WRNO,2019-09-17-12-04-47,10,8,0.5835322258666188,right,both,biased-switch,104,-30,left,left,0.221
SKL1994WRNO,2019-09-17-12-04-47,10,9,0.6138977990041086,left,probe,ambiguous-stable,-1,0,left,left,0.023
SKL1994WRNO,2019-09-17-12-04-47,10,10,0.6808103013261884,left,both,ambiguous-stable,106,0,right,left,0.077
SKL1994WRNO,2019-09-17-12-04-47,10,11,0.5805080114113883,left,probe,ambiguous-switch,-1,-5,left,left,0.227
SKL1994WRNO,2019-09-17-12-04-47,10,12,0.5387197402526624,left,both,ambiguous-switch,101,-5,left,left,0.231
SKL1994WRNO,2019-09-17-12-04-47,10,13,0.5970082482922254,right,probe,ambiguous-switch,-1,5,left,left,0.173
SKL1994WRNO,2019-09-17-12-04-47,10,14,0.6630492668840379,right,both,ambiguous-switch,98,5,left,left,0.196
SKL1994WRNO,2019-09-17-12-04-47,10,15,0.6426890275297874,left,probe,ambiguous-stable,-1,10,left,left,0.176
SKL1994WRNO,2019-09-17-12-04-47,10,16,0.6379868849154807,left,both,ambiguous-stable,91,10,right,left,0.201
SKL1994WRNO,2019-09-17-12-04-47,10,17,0.6715643231290366,left,probe,ambiguous-switch,-1,0,left,left,0.209
SKL1994WRNO,2019-09-17-12-04-47,10,18,0.5558277645115937,left,both,ambiguous-switch,92,0,left,left,0.205
SKL1994WRNO,2019-09-17-12-04-47,10,19,0.5704203512401341,left,probe,ambiguous-switch,-1,-30,left,left,0.23
SKL1994WRNO,2019-09-17-12-04-47,10,20,0.6129854823834202,left,both,ambiguous-switch,96,-30,left,left,0.262
SKL1994WRNO,2019-09-17-12-04-47,10,21,0.658806668906328,left,probe,biased-switch,-1,-20,left,left,0.372
SKL1994WRNO,2019-09-17-12-04-47,10,22,0.6774994869432691,left,both,biased-switch,99,-20,left,left,0.208
SKL1994WRNO,2019-09-17-12-04-47,10,23,0.5365138679654298,left,probe,biased-switch,-1,10,left,left,0.323
SKL1994WRNO,2019-09-17-12-04-47,10,24,0.6274219849734638,left,both,biased-switch,96,10,left,left,0.205
SKL1994WRNO,2019-09-17-12-04-47,10,25,0.6439082676339297,right,probe,ambiguous-stable,-1,-10,left,left,0.356
SKL1994WRNO,2019-09-17-12-04-47,10,26,0.6358425462979291,right,both,ambiguous-stable,97,-10,right,left,0.195
SKL1994WRNO,2019-09-17-12-04-47,10,27,0.6525333509063745,left,probe,ambiguous-stable,-1,30,left,left,0.125
SKL1994WRNO,2019-09-17-12-04-47,10,28,0.5923006708707247,left,both,ambiguous-stable,104,30,right,left,0.232
SKL1994WRNO,2019-09-17-12-04-47,10,29,0.6038318452019914,right,probe,ambiguous-stable,-1,-5,left,left,0.157
SKL1994WRNO,2019-09-17-12-04-47,10,30,0.6270404036314157,right,both,ambiguous-stable,109,-5,right,right,0.236
SKL1994WRNO,2019-09-17-12-04-47,10,31,0.5666884032335824,right,probe,ambiguous-stable,-1,40,right,right,0.203
SKL1994WRNO,2019-09-17-12-04-47,10,32,0.6796723838680598,right,both,ambiguous-stable,103,40,left,left,0.214
SKL1994WRNO,2019-09-17-12-04-47,10,33,0.6064644168356623,right,probe,ambiguous-stable,-1,5,left,left,0.281
SKL1994WRNO,2019-09-17-12-04-47,10,34,0.6138776788268069,right,both,ambiguous-stable,100,5,right,left,0.17
SKL1994WRNO,2019-09-17-12-04-47,10,35,0.586595025322685,left,probe,biased-switch,-1,20,right,right,0.21
SKL1994WRNO,2019-09-17-12-04-47,10,36,0.6218142012347673,left,both,biased-switch,95,20,right,left,1.118
SKL1994WRNO,2019-09-17-12-04-47,10,37,0.5894411353633457,right,probe,ambiguous-switch,-1,40,left,left,0.905
SKL1994WRNO,2019-09-17-12-04-47,10,38,0.5727073988081952,right,both,ambiguous-switch,98,40,left,left,0.048
SKL1994WRNO,2019-09-17-12-04-47,10,39,0.5514902457837371,right,probe,biased-switch,-1,5,left,left,0.195
SKL1994WRNO,2019-09-17-12-04-47,10,40,0.6786285878704033,right,both,biased-switch,102,5,left,right,0.216
SKL1994WRNO,2019-09-17-12-04-47,10,41,0.6824422746020905,right,probe,ambiguous-switch,-1,20,right,right,0.194
SKL1994WRNO,2019-09-17-12-04-47,10,42,0.6141002005199021,right,both,ambiguous-switch,103,20,right,right,0.202
SKL1994WRNO,2019-09-17-12-04-47,10,43,0.6877081050386065,left,probe,biased-switch,-1,-10,right,right,0.18
SKL1994WRNO,2019-09-17-12-04-47,10,44,0.6488469069613176,left,both,biased-switch,94,-10,right,right,0.164
SKL1994WRNO,2019-09-17-12-04-47,10,45,0.6794068760485502,right,probe,ambiguous-switch,-1,10,right,right,0.191
SKL1994WRNO,2019-09-17-12-04-47,10,46,0.6325782750685138,right,both,ambiguous-switch,99,10,right,right,0.192
SKL1994WRNO,2019-09-17-12-04-47,10,47,0.5531227382129026,left,probe,biased-switch,-1,-5,right,right,0.164
SKL1994WRNO,2019-09-17-12-04-47,10,48,0.6701573238404783,left,both,biased-switch,102,-5,right,right,0.012
SKL1994WRNO,2019-09-17-12-04-47,10,49,0.630595615181432,right,probe,ambiguous-stable,-1,-30,right,right,0.195
SKL1994WRNO,2019-09-17-12-04-47,10,50,0.6043075524760658,right,both,ambiguous-stable,100,-30,left,right,0.198
SKL1994WRNO,2019-09-17-12-04-47,10,51,0.5496888119176465,left,probe,biased-switch,-1,0,right,right,0.178
SKL1994WRNO,2019-09-17-12-04-47,10,52,0.6271465900099119,left,both,biased-switch,109,0,right,left,0.254
SKL1994WRNO,2019-09-17-12-04-47,10,53,0.5262060643146399,left,probe,ambiguous-switch,-1,-20,left,left,0.177
SKL1994WRNO,2019-09-17-12-04-47,10,54,0.6405932590582017,left,both,ambiguous-switch,110,-20,left,left,0.219
SKL1994WRNO,2019-09-17-12-04-47,10,55,0.501009793913045,right,probe,ambiguous-stable,-1,20,right,right,0.18
SKL1994WRNO,2019-09-17-12-04-47,10,56,0.6022176680370911,right,both,ambiguous-stable,94,20,left,right,0.195
SKL1994WRNO,2019-09-17-12-04-47,10,57,0.579731789564009,left,probe,ambiguous-stable,-1,-20,right,right,0.056
SKL1994WRNO,2019-09-17-12-04-47,10,58,0.6466491028756178,left,both,ambiguous-stable,109,-20,left,right,0.208
SKL1994WRNO,2019-09-17-12-04-47,10,59,0.5572425867402554,left,probe,ambiguous-switch,-1,-10,right,right,0.199
SKL1994WRNO,2019-09-17-12-04-47,10,60,0.6909139620594118,left,both,ambiguous-switch,99,-10,right,right,0.147
