Participant,Session,Block,Trial,OnsetDelay,ProbeLocation,WhatIsReported,Condition,TriggerTime,ProbeSOA,PrimeDirection,Response,RT
ARB1995MRNO,2019-09-17-11-23-58,1,1,0.6160634719765978,right,probe,ambiguous-stable,-1,20,left,left,0.518
ARB1995MRNO,2019-09-17-11-23-58,1,2,0.6758065983517342,right,both,ambiguous-stable,108,20,right,left,0.239
ARB1995MRNO,2019-09-17-11-23-58,1,3,0.633554831347974,left,probe,ambiguous-stable,-1,-20,left,left,0.375
ARB1995MRNO,2019-09-17-11-23-58,1,4,0.5372702962813711,left,both,ambiguous-stable,92,-20,right,left,0.184
ARB1995MRNO,2019-09-17-11-23-58,1,5,0.577958587964749,right,probe,ambiguous-stable,-1,10,left,left,0.367
ARB1995MRNO,2019-09-17-11-23-58,1,6,0.6849634947541913,right,both,ambiguous-stable,103,10,right,left,0.194
ARB1995MRNO,2019-09-17-11-23-58,1,7,0.5716828386887911,right,probe,ambiguous-switch,-1,-10,left,left,0.171
ARB1995MRNO,2019-09-17-11-23-58,1,8,0.6853992056861442,right,both,ambiguous-switch,97,-10,left,left,0.217
ARB1995MRNO,2019-09-17-11-23-58,1,9,0.5458862716775471,right,probe,biased-switch,-1,0,left,left,0.186
ARB1995MRNO,2019-09-17-11-23-58,1,10,0.5731823795324172,right,both,biased-switch,103,0,left,right,0.247
ARB1995MRNO,2019-09-17-11-23-58,1,11,0.6084833470109442,right,probe,ambiguous-stable,-1,-10,right,right,0.338
ARB1995MRNO,2019-09-17-11-23-58,1,12,0.593455993595347,right,both,ambiguous-stable,90,-10,left,right,0.193
ARB1995MRNO,2019-09-17-11-23-58,1,13,0.5375376220473445,right,probe,ambiguous-stable,-1,-5,right,right,0.308
ARB1995MRNO,2019-09-17-11-23-58,1,14,0.5276541604800109,right,both,ambiguous-stable,103,-5,left,right,0.204
ARB1995MRNO,2019-09-17-11-23-58,1,15,0.6589062889120595,right,probe,biased-switch,-1,-10,right,right,0.309
ARB1995MRNO,2019-09-17-11-23-58,1,16,0.6759468044634945,right,both,biased-switch,99,-10,right,left,0.192
ARB1995MRNO,2019-09-17-11-23-58,1,17,0.5830172946610057,left,probe,biased-switch,-1,10,right,right,0.293
ARB1995MRNO,2019-09-17-11-23-58,1,18,0.6193940700855938,left,both,biased-switch,109,10,right,left,0.199
ARB1995MRNO,2019-09-17-11-23-58,1,19,0.6164739555930131,left,probe,biased-switch,-1,20,left,left,0.293
ARB1995MRNO,2019-09-17-11-23-58,1,20,0.5734425240083898,left,both,biased-switch,102,20,left,left,0.158
ARB1995MRNO,2019-09-17-11-23-58,1,21,0.50278626541172,right,probe,ambiguous-switch,-1,5,left,left,0.291
ARB1995MRNO,2019-09-17-11-23-58,1,22,0.5088478022769637,right,both,ambiguous-switch,95,5,left,right,0.163
ARB1995MRNO,2019-09-17-11-23-58,1,23,0.5143334599597232,right,probe,ambiguous-switch,-1,-5,left,left,0.251
ARB1995MRNO,2019-09-17-11-23-58,1,24,0.6872601933560697,right,both,ambiguous-switch,94,-5,left,right,1.637
ARB1995MRNO,2019-09-17-11-23-58,1,25,0.5660454790729065,left,probe,biased-switch,-1,-5,left,left,0.239
ARB1995MRNO,2019-09-17-11-23-58,1,26,0.5416494771241271,left,both,biased-switch,96,-5,left,left,0.208
ARB1995MRNO,2019-09-17-11-23-58,1,27,0.5288487227506359,right,probe,biased-switch,-1,-20,left,left,0.343
ARB1995MRNO,2019-09-17-11-23-58,1,28,0.6854217588880496,right,both,biased-switch,108,-20,left,left,0.232
ARB1995MRNO,2019-09-17-11-23-58,1,29,0.6326156528533079,left,probe,ambiguous-stable,-1,-30,left,left,0.225
ARB1995MRNO,2019-09-17-11-23-58,1,30,0.5139077774285218,left,both,ambiguous-stable,98,-30,right,left,0.196
ARB1995MRNO,2019-09-17-11-23-58,1,31,0.5357956536446026,right,probe,ambiguous-switch,-1,-30,left,left,0.209
ARB1995MRNO,2019-09-17-11-23-58,1,32,0.5437988612448129,right,both,ambiguous-switch,90,-30,left,left,0.211
ARB1995MRNO,2019-09-17-11-23-58,1,33,0.5023493995823238,right,probe,biased-switch,-1,5,left,left,0.198
ARB1995MRNO,2019-09-17-11-23-58,1,34,0.6837782492830935,right,both,biased-switch,96,5,left,right,0.194
ARB1995MRNO,2019-09-17-11-23-58,1,35,0.6343178342321443,left,probe,ambiguous-stable,-1,0,left,left,0.224
ARB1995MRNO,2019-09-17-11-23-58,1,36,0.5021186745121107,left,both,ambiguous-stable,92,0,right,left,1.741
ARB1995MRNO,2019-09-17-11-23-58,1,37,0.5863840340419985,right,probe,biased-switch,-1,30,left,left,0.274
ARB1995MRNO,2019-09-17-11-23-58,1,38,0.5934123735869465,right,both,biased-switch,98,30,left,right,0.202
ARB1995MRNO,2019-09-17-11-23-58,1,39,0.6505234448961164,left,probe,biased-switch,-1,-30,left,left,0.319
ARB1995MRNO,2019-09-17-11-23-58,1,40,0.5309193614840012,left,both,biased-switch,92,-30,left,left,0.225
ARB1995MRNO,2019-09-17-11-23-58,1,41,0.5674612786646598,left,probe,ambiguous-switch,-1,0,left,left,0.238
ARB1995MRNO,2019-09-17-11-23-58,1,42,0.5486417031506726,left,both,ambiguous-switch,92,0,left,left,0.213
ARB1995MRNO,2019-09-17-11-23-58,1,43,0.6059357582564812,left,probe,ambiguous-stable,-1,30,left,left,0.28
ARB1995MRNO,2019-09-17-11-23-58,1,44,0.5514971463518484,left,both,ambiguous-stable,101,30,right,left,0.209
ARB1995MRNO,2019-09-17-11-23-58,1,45,0.5556268815993928,right,probe,ambiguous-stable,-1,5,left,left,0.406
ARB1995MRNO,2019-09-17-11-23-58,1,46,0.6300589608820341,right,both,ambiguous-stable,94,5,right,left,0.22
ARB1995MRNO,2019-09-17-11-23-58,1,47,0.5599590426662657,left,probe,ambiguous-switch,-1,10,left,left,0.22
ARB1995MRNO,2019-09-17-11-23-58,1,48,0.5925568070763109,left,both,ambiguous-switch,94,10,left,left,0.393
ARB1995MRNO,2019-09-17-11-23-58,1,49,0.558811634853782,right,probe,ambiguous-switch,-1,-20,left,left,0.339
ARB1995MRNO,2019-09-17-11-23-58,1,50,0.5359767195449194,right,both,ambiguous-switch,99,-20,left,right,0.188
ARB1995MRNO,2019-09-17-11-23-58,1,51,0.5522700244142414,left,probe,ambiguous-switch,-1,30,left,left,0.225
ARB1995MRNO,2019-09-17-11-23-58,1,52,0.5208212203520453,left,both,ambiguous-switch,100,30,left,left,0.226
ARB1995MRNO,2019-09-17-11-23-58,1,53,0.6285683506247787,right,probe,ambiguous-switch,-1,20,left,left,0.23
ARB1995MRNO,2019-09-17-11-23-58,1,54,0.652626310790523,right,both,ambiguous-switch,94,20,left,left,0.215
ARB1995MRNO,2019-09-17-11-23-58,2,1,0.545895788106987,right,probe,biased-switch,-1,-20,left,left,0.225
ARB1995MRNO,2019-09-17-11-23-58,2,2,0.6866456345550181,right,both,biased-switch,99,-20,left,left,0.202
ARB1995MRNO,2019-09-17-11-23-58,2,3,0.5896421396427395,left,probe,biased-switch,-1,20,left,left,0.249
ARB1995MRNO,2019-09-17-11-23-58,2,4,0.5827739392285183,left,both,biased-switch,105,20,left,left,0.118
ARB1995MRNO,2019-09-17-11-23-58,2,5,0.6313501707754049,right,probe,ambiguous-stable,-1,-5,left,left,0.218
ARB1995MRNO,2019-09-17-11-23-58,2,6,0.5056224884403486,right,both,ambiguous-stable,96,-5,right,left,0.17
ARB1995MRNO,2019-09-17-11-23-58,2,7,0.5491905690892556,left,probe,biased-switch,-1,0,left,left,0.226
ARB1995MRNO,2019-09-17-11-23-58,2,8,0.6192084592520849,left,both,biased-switch,107,0,left,right,0.03
ARB1995MRNO,2019-09-17-11-23-58,2,9,0.6383963559999243,left,probe,ambiguous-switch,-1,0,left,left,0.41
ARB1995MRNO,2019-09-17-11-23-58,2,10,0.6070602550889863,left,both,ambiguous-switch,108,0,left,right,0.19
ARB1995MRNO,2019-09-17-11-23-58,2,11,0.6714070330571348,left,probe,ambiguous-switch,-1,5,left,left,0.253
ARB1995MRNO,2019-09-17-11-23-58,2,12,0.6380476003526936,left,both,ambiguous-switch,103,5,left,left,0.249
ARB1995MRNO,2019-09-17-11-23-58,2,13,0.5258727392274518,left,probe,ambiguous-stable,-1,-10,left,left,0.298
ARB1995MRNO,2019-09-17-11-23-58,2,14,0.6682406915741848,left,both,ambiguous-stable,106,-10,right,left,0.286
ARB1995MRNO,2019-09-17-11-23-58,2,15,0.6457325507663558,left,probe,ambiguous-switch,-1,10,left,left,0.318
ARB1995MRNO,2019-09-17-11-23-58,2,16,0.5069807194495508,left,both,ambiguous-switch,106,10,left,right,0.211
ARB1995MRNO,2019-09-17-11-23-58,2,17,0.6182466498140106,left,probe,ambiguous-stable,-1,30,right,right,0.279
ARB1995MRNO,2019-09-17-11-23-58,2,18,0.6114063032075556,left,both,ambiguous-stable,97,30,left,left,0.314
ARB1995MRNO,2019-09-17-11-23-58,2,19,0.6016311441487671,left,probe,ambiguous-switch,-1,20,left,left,0.236
ARB1995MRNO,2019-09-17-11-23-58,2,20,0.518018290422974,left,both,ambiguous-switch,104,20,left,right,0.326
ARB1995MRNO,2019-09-17-11-23-58,2,21,0.6353569535491113,left,probe,ambiguous-stable,-1,10,right,right,0.291
ARB1995MRNO,2019-09-17-11-23-58,2,22,0.6656437095239653,left,both,ambiguous-stable,105,10,left,right,0.19
ARB1995MRNO,2019-09-17-11-23-58,2,23,0.5668067639701593,left,probe,ambiguous-stable,-1,0,right,right,0.25
ARB1995MRNO,2019-09-17-11-23-58,2,24,0.573994334513588,left,both,ambiguous-stable,96,0,left,right,0.22
ARB1995MRNO,2019-09-17-11-23-58,2,25,0.5760307302501734,right,probe,ambiguous-switch,-1,-5,left,left,0.321
ARB1995MRNO,2019-09-17-11-23-58,2,26,0.620792853102696,right,both,ambiguous-switch,100,-5,left,right,0.238
ARB1995MRNO,2019-09-17-11-23-58,2,27,0.5976083995780744,left,probe,biased-switch,-1,-5,right,right,0.215
ARB1995MRNO,2019-09-17-11-23-58,2,28,0.5865129444030944,left,both,biased-switch,95,-5,right,left,0.223
ARB1995MRNO,2019-09-17-11-23-58,2,29,0.5905781730651147,left,probe,ambiguous-switch,-1,-30,right,right,0.266
ARB1995MRNO,2019-09-17-11-23-58,2,30,0.6571525451098961,left,both,ambiguous-switch,101,-30,right,right,0.224
ARB1995MRNO,2019-09-17-11-23-58,2,31,0.64814761811554,left,probe,biased-switch,-1,5,right,right,0.192
ARB1995MRNO,2019-09-17-11-23-58,2,32,0.5876981914231422,left,both,biased-switch,97,5,right,left,0.268
ARB1995MRNO,2019-09-17-11-23-58,2,33,0.6432607930438001,right,probe,biased-switch,-1,10,left,left,0.22
ARB1995MRNO,2019-09-17-11-23-58,2,34,0.6106542514647507,right,both,biased-switch,102,10,left,right,0.207
ARB1995MRNO,2019-09-17-11-23-58,2,35,0.6932857269158246,left,probe,ambiguous-stable,-1,20,right,right,0.411
ARB1995MRNO,2019-09-17-11-23-58,2,36,0.5970016874216864,left,both,ambiguous-stable,100,20,left,right,0.104
ARB1995MRNO,2019-09-17-11-23-58,2,37,0.527075931557147,left,probe,biased-switch,-1,-30,left,left,0.217
ARB1995MRNO,2019-09-17-11-23-58,2,38,0.5686231283725423,left,both,biased-switch,92,-30,left,right,0.457
ARB1995MRNO,2019-09-17-11-23-58,2,39,0.5622032545792414,left,probe,ambiguous-switch,-1,-20,right,right,0.212
ARB1995MRNO,2019-09-17-11-23-58,2,40,0.521199448073852,left,both,ambiguous-switch,106,-20,right,right,0.182
ARB1995MRNO,2019-09-17-11-23-58,2,41,0.5074860463046483,right,probe,ambiguous-stable,-1,5,right,right,0.259
ARB1995MRNO,2019-09-17-11-23-58,2,42,0.607081637220207,right,both,ambiguous-stable,101,5,left,right,0.207
ARB1995MRNO,2019-09-17-11-23-58,2,43,0.5315236537931854,right,probe,biased-switch,-1,-10,right,right,0.177
ARB1995MRNO,2019-09-17-11-23-58,2,44,0.5675054474335058,right,both,biased-switch,96,-10,right,right,0.203
ARB1995MRNO,2019-09-17-11-23-58,2,45,0.5614024474465583,left,probe,biased-switch,-1,30,right,right,0.189
ARB1995MRNO,2019-09-17-11-23-58,2,46,0.545730983620923,left,both,biased-switch,101,30,right,right,0.24
ARB1995MRNO,2019-09-17-11-23-58,2,47,0.6534676690538347,left,probe,ambiguous-stable,-1,-30,right,right,0.217
ARB1995MRNO,2019-09-17-11-23-58,2,48,0.5107790129683893,left,both,ambiguous-stable,93,-30,left,right,0.243
ARB1995MRNO,2019-09-17-11-23-58,2,49,0.602975281663988,left,probe,ambiguous-stable,-1,-20,right,right,0.278
ARB1995MRNO,2019-09-17-11-23-58,2,50,0.6794867736463337,left,both,ambiguous-stable,109,-20,left,right,0.195
ARB1995MRNO,2019-09-17-11-23-58,2,51,0.518308955963353,left,probe,ambiguous-switch,-1,30,right,right,0.23
ARB1995MRNO,2019-09-17-11-23-58,2,52,0.5929734121694213,left,both,ambiguous-switch,93,30,right,right,0.176
ARB1995MRNO,2019-09-17-11-23-58,2,53,0.5919223085776,left,probe,ambiguous-switch,-1,-10,right,right,0.186
ARB1995MRNO,2019-09-17-11-23-58,2,54,0.6604360325606713,left,both,ambiguous-switch,98,-10,right,right,0.119
ARB1995MRNO,2019-09-17-11-23-58,3,1,0.5930849183735019,right,probe,ambiguous-stable,-1,0,right,right,0.192
ARB1995MRNO,2019-09-17-11-23-58,3,2,0.613896464769906,right,both,ambiguous-stable,95,0,left,right,0.213
ARB1995MRNO,2019-09-17-11-23-58,3,3,0.6061226324139193,right,probe,biased-switch,-1,0,right,right,0.173
ARB1995MRNO,2019-09-17-11-23-58,3,4,0.6744972516675604,right,both,biased-switch,108,0,right,left,0.143
ARB1995MRNO,2019-09-17-11-23-58,3,5,0.6215351767471176,left,probe,ambiguous-stable,-1,-30,right,right,0.183
ARB1995MRNO,2019-09-17-11-23-58,3,6,0.660732583847861,left,both,ambiguous-stable,102,-30,left,right,0.215
ARB1995MRNO,2019-09-17-11-23-58,3,7,0.6100471710431268,left,probe,ambiguous-switch,-1,-10,right,right,0.184
ARB1995MRNO,2019-09-17-11-23-58,3,8,0.6813909682374207,left,both,ambiguous-switch,106,-10,right,right,1.207
ARB1995MRNO,2019-09-17-11-23-58,3,9,0.6020300425342594,left,probe,ambiguous-switch,-1,10,right,right,0.207
ARB1995MRNO,2019-09-17-11-23-58,3,10,0.6169137425772739,left,both,ambiguous-switch,95,10,right,left,0.168
ARB1995MRNO,2019-09-17-11-23-58,3,11,0.6127466155962678,right,probe,biased-switch,-1,20,right,right,0.202
ARB1995MRNO,2019-09-17-11-23-58,3,12,0.6721492806330955,right,both,biased-switch,92,20,right,left,0.267
ARB1995MRNO,2019-09-17-11-23-58,3,13,0.5470206425055625,right,probe,biased-switch,-1,5,right,right,0.158
ARB1995MRNO,2019-09-17-11-23-58,3,14,0.5738859361357586,right,both,biased-switch,95,5,right,left,0.193
ARB1995MRNO,2019-09-17-11-23-58,3,15,0.5303270818757818,left,probe,ambiguous-stable,-1,20,right,right,0.243
ARB1995MRNO,2019-09-17-11-23-58,3,16,0.6115719294017463,left,both,ambiguous-stable,99,20,left,right,2.051
ARB1995MRNO,2019-09-17-11-23-58,3,17,0.6665717071542799,right,probe,biased-switch,-1,-20,right,right,0.479
ARB1995MRNO,2019-09-17-11-23-58,3,18,0.5673860878146443,right,both,biased-switch,109,-20,right,left,0.238
ARB1995MRNO,2019-09-17-11-23-58,3,19,0.6719475625226097,left,probe,biased-switch,-1,-30,right,right,0.334
ARB1995MRNO,2019-09-17-11-23-58,3,20,0.5759893508206626,left,both,biased-switch,99,-30,right,right,0.341
ARB1995MRNO,2019-09-17-11-23-58,3,21,0.6481923448702485,left,probe,biased-switch,-1,30,right,right,0.372
ARB1995MRNO,2019-09-17-11-23-58,3,22,0.5653131982473709,left,both,biased-switch,103,30,right,right,0.208
ARB1995MRNO,2019-09-17-11-23-58,3,23,0.5617266298237297,right,probe,ambiguous-stable,-1,-10,right,right,0.393
ARB1995MRNO,2019-09-17-11-23-58,3,24,0.5892289174708174,right,both,ambiguous-stable,110,-10,left,right,0.346
ARB1995MRNO,2019-09-17-11-23-58,3,25,0.6499214523787833,right,probe,ambiguous-switch,-1,-5,right,right,0.298
ARB1995MRNO,2019-09-17-11-23-58,3,26,0.5486025852291919,right,both,ambiguous-switch,101,-5,right,right,0.234
ARB1995MRNO,2019-09-17-11-23-58,3,27,0.5809462651899363,left,probe,biased-switch,-1,10,right,right,0.282
ARB1995MRNO,2019-09-17-11-23-58,3,28,0.6046160884677891,left,both,biased-switch,98,10,right,left,0.212
ARB1995MRNO,2019-09-17-11-23-58,3,29,0.5482883701903847,left,probe,ambiguous-switch,-1,5,left,left,0.21
ARB1995MRNO,2019-09-17-11-23-58,3,30,0.661000193740013,left,both,ambiguous-switch,96,5,left,right,0.159
ARB1995MRNO,2019-09-17-11-23-58,3,31,0.5093549816188914,left,probe,ambiguous-stable,-1,30,right,right,0.233
ARB1995MRNO,2019-09-17-11-23-58,3,32,0.630854341246242,left,both,ambiguous-stable,109,30,left,right,0.081
ARB1995MRNO,2019-09-17-11-23-58,3,33,0.6416572421747123,left,probe,biased-switch,-1,-10,right,right,0.233
ARB1995MRNO,2019-09-17-11-23-58,3,34,0.5643346550607687,left,both,biased-switch,103,-10,right,right,0.244
ARB1995MRNO,2019-09-17-11-23-58,3,35,0.5746067349750006,right,probe,ambiguous-switch,-1,30,right,right,0.255
ARB1995MRNO,2019-09-17-11-23-58,3,36,0.6065938752002783,right,both,ambiguous-switch,104,30,right,right,0.194
ARB1995MRNO,2019-09-17-11-23-58,3,37,0.6222788885572212,left,probe,ambiguous-stable,-1,5,right,right,0.251
ARB1995MRNO,2019-09-17-11-23-58,3,38,0.5136926886783517,left,both,ambiguous-stable,102,5,left,right,0.214
ARB1995MRNO,2019-09-17-11-23-58,3,39,0.6868488794449563,right,probe,biased-switch,-1,-5,right,right,0.161
ARB1995MRNO,2019-09-17-11-23-58,3,40,0.6241750671218121,right,both,biased-switch,103,-5,right,left,0.167
ARB1995MRNO,2019-09-17-11-23-58,3,41,0.5781999518089816,left,probe,ambiguous-switch,-1,-30,right,right,0.263
ARB1995MRNO,2019-09-17-11-23-58,3,42,0.5086544300908554,left,both,ambiguous-switch,105,-30,right,right,0.204
ARB1995MRNO,2019-09-17-11-23-58,3,43,0.5345639587392353,right,probe,ambiguous-stable,-1,-20,right,right,0.223
ARB1995MRNO,2019-09-17-11-23-58,3,44,0.6692670473441166,right,both,ambiguous-stable,96,-20,left,left,0.266
ARB1995MRNO,2019-09-17-11-23-58,3,45,0.6413811301167166,left,probe,ambiguous-stable,-1,-5,right,right,0.209
ARB1995MRNO,2019-09-17-11-23-58,3,46,0.6608410939344551,left,both,ambiguous-stable,92,-5,left,right,0.178
ARB1995MRNO,2019-09-17-11-23-58,3,47,0.580035533289333,left,probe,ambiguous-switch,-1,0,right,right,0.27
ARB1995MRNO,2019-09-17-11-23-58,3,48,0.5646216350882398,left,both,ambiguous-switch,110,0,right,left,0.201
ARB1995MRNO,2019-09-17-11-23-58,3,49,0.5797970728890842,left,probe,ambiguous-switch,-1,-20,right,right,0.223
ARB1995MRNO,2019-09-17-11-23-58,3,50,0.53645458571196,left,both,ambiguous-switch,97,-20,right,right,0.28
ARB1995MRNO,2019-09-17-11-23-58,3,51,0.6855478199782483,right,probe,ambiguous-stable,-1,10,right,right,0.338
ARB1995MRNO,2019-09-17-11-23-58,3,52,0.5454491361782716,right,both,ambiguous-stable,104,10,left,right,0.213
ARB1995MRNO,2019-09-17-11-23-58,3,53,0.5231721903703095,right,probe,ambiguous-switch,-1,20,right,right,0.168
ARB1995MRNO,2019-09-17-11-23-58,3,54,0.6242500508669597,right,both,ambiguous-switch,109,20,right,left,0.217
ARB1995MRNO,2019-09-17-11-23-58,4,1,0.5671465326154038,right,probe,ambiguous-switch,-1,20,right,right,0.164
ARB1995MRNO,2019-09-17-11-23-58,4,2,0.5213334135118606,right,both,ambiguous-switch,93,20,right,left,1.351
ARB1995MRNO,2019-09-17-11-23-58,4,3,0.5704683244012688,left,probe,ambiguous-switch,-1,30,right,right,0.318
ARB1995MRNO,2019-09-17-11-23-58,4,4,0.5892677746231743,left,both,ambiguous-switch,110,30,right,right,0.22
ARB1995MRNO,2019-09-17-11-23-58,4,5,0.6775423232659651,right,probe,biased-switch,-1,5,right,right,0.2
ARB1995MRNO,2019-09-17-11-23-58,4,6,0.6619464276854924,right,both,biased-switch,104,5,right,left,0.184
ARB1995MRNO,2019-09-17-11-23-58,4,7,0.5357652158549917,right,probe,ambiguous-stable,-1,30,left,left,0.177
ARB1995MRNO,2019-09-17-11-23-58,4,8,0.5605915815310276,right,both,ambiguous-stable,93,30,right,left,0.178
ARB1995MRNO,2019-09-17-11-23-58,4,9,0.6891626092901715,left,probe,ambiguous-switch,-1,5,right,right,0.314
ARB1995MRNO,2019-09-17-11-23-58,4,10,0.5410871108550536,left,both,ambiguous-switch,98,5,right,left,0.212
ARB1995MRNO,2019-09-17-11-23-58,4,11,0.6235914196110885,right,probe,ambiguous-switch,-1,-30,left,left,0.18
ARB1995MRNO,2019-09-17-11-23-58,4,12,0.5357458973578222,right,both,ambiguous-switch,103,-30,left,left,0.181
ARB1995MRNO,2019-09-17-11-23-58,4,13,0.5628100061904087,right,probe,ambiguous-stable,-1,-5,left,left,0.197
ARB1995MRNO,2019-09-17-11-23-58,4,14,0.6344869863121638,right,both,ambiguous-stable,91,-5,right,left,2.001
ARB1995MRNO,2019-09-17-11-23-58,4,15,0.6362461963571311,left,probe,ambiguous-switch,-1,10,left,left,0.224
ARB1995MRNO,2019-09-17-11-23-58,4,16,0.6074263234277818,left,both,ambiguous-switch,97,10,left,left,0.254
ARB1995MRNO,2019-09-17-11-23-58,4,17,0.5257992000822033,left,probe,biased-switch,-1,-5,left,left,0.219
ARB1995MRNO,2019-09-17-11-23-58,4,18,0.6971667879730257,left,both,biased-switch,102,-5,left,left,0.185
ARB1995MRNO,2019-09-17-11-23-58,4,19,0.6507143211193123,left,probe,biased-switch,-1,-30,left,left,0.23
ARB1995MRNO,2019-09-17-11-23-58,4,20,0.5615119409973968,left,both,biased-switch,109,-30,left,left,0.207
ARB1995MRNO,2019-09-17-11-23-58,4,21,0.5059262526186571,left,probe,ambiguous-stable,-1,0,left,left,0.242
ARB1995MRNO,2019-09-17-11-23-58,4,22,0.6764077194971599,left,both,ambiguous-stable,106,0,right,left,0.199
ARB1995MRNO,2019-09-17-11-23-58,4,23,0.6373397346002687,left,probe,ambiguous-stable,-1,10,left,left,0.2
ARB1995MRNO,2019-09-17-11-23-58,4,24,0.5926367212110643,left,both,ambiguous-stable,99,10,right,left,0.159
ARB1995MRNO,2019-09-17-11-23-58,4,25,0.5416223164368146,right,probe,ambiguous-stable,-1,-20,left,left,0.206
ARB1995MRNO,2019-09-17-11-23-58,4,26,0.6249268486782401,right,both,ambiguous-stable,101,-20,right,left,0.145
ARB1995MRNO,2019-09-17-11-23-58,4,27,0.6720418493339896,left,probe,ambiguous-stable,-1,5,left,left,0.203
ARB1995MRNO,2019-09-17-11-23-58,4,28,0.6746391057087799,left,both,ambiguous-stable,91,5,right,left,0.172
ARB1995MRNO,2019-09-17-11-23-58,4,29,0.6605483246897615,right,probe,ambiguous-switch,-1,-5,left,left,0.193
ARB1995MRNO,2019-09-17-11-23-58,4,30,0.6705244680726867,right,both,ambiguous-switch,102,-5,left,right,0.259
ARB1995MRNO,2019-09-17-11-23-58,4,31,0.6018879141859215,left,probe,biased-switch,-1,-10,left,left,0.176
ARB1995MRNO,2019-09-17-11-23-58,4,32,0.6733574919286485,left,both,biased-switch,95,-10,left,left,0.248
ARB1995MRNO,2019-09-17-11-23-58,4,33,0.5426582198863268,right,probe,ambiguous-switch,-1,0,left,left,0.171
ARB1995MRNO,2019-09-17-11-23-58,4,34,0.5034440962197143,right,both,ambiguous-switch,98,0,left,right,0.214
ARB1995MRNO,2019-09-17-11-23-58,4,35,0.6492198130354275,right,probe,ambiguous-switch,-1,-10,left,left,0.247
ARB1995MRNO,2019-09-17-11-23-58,4,36,0.6889329557926228,right,both,ambiguous-switch,95,-10,left,left,0.232
ARB1995MRNO,2019-09-17-11-23-58,4,37,0.6728148198791174,right,probe,ambiguous-switch,-1,-20,left,left,0.182
ARB1995MRNO,2019-09-17-11-23-58,4,38,0.5537025956737714,right,both,ambiguous-switch,92,-20,left,left,0.203
ARB1995MRNO,2019-09-17-11-23-58,4,39,0.5291299625391318,right,probe,ambiguous-stable,-1,-10,left,left,0.2
ARB1995MRNO,2019-09-17-11-23-58,4,40,0.5408283487774074,right,both,ambiguous-stable,105,-10,right,left,0.26
ARB1995MRNO,2019-09-17-11-23-58,4,41,0.5278861150355303,left,probe,biased-switch,-1,30,left,left,0.275
ARB1995MRNO,2019-09-17-11-23-58,4,42,0.6331788846591064,left,both,biased-switch,101,30,left,left,0.22
ARB1995MRNO,2019-09-17-11-23-58,4,43,0.6566269567205184,left,probe,biased-switch,-1,-20,left,left,0.228
ARB1995MRNO,2019-09-17-11-23-58,4,44,0.5464972537225419,left,both,biased-switch,92,-20,left,left,0.192
ARB1995MRNO,2019-09-17-11-23-58,4,45,0.5853731666958814,right,probe,ambiguous-stable,-1,20,left,left,0.199
ARB1995MRNO,2019-09-17-11-23-58,4,46,0.5953549264305485,right,both,ambiguous-stable,103,20,right,left,0.174
ARB1995MRNO,2019-09-17-11-23-58,4,47,0.5452666668986893,left,probe,biased-switch,-1,0,left,left,0.222
ARB1995MRNO,2019-09-17-11-23-58,4,48,0.6036014588258481,left,both,biased-switch,109,0,left,right,0.396
ARB1995MRNO,2019-09-17-11-23-58,4,49,0.5953338870960849,left,probe,biased-switch,-1,10,left,left,0.179
ARB1995MRNO,2019-09-17-11-23-58,4,50,0.685944113732891,left,both,biased-switch,109,10,left,right,0.394
ARB1995MRNO,2019-09-17-11-23-58,4,51,0.5763997786119042,right,probe,biased-switch,-1,20,left,left,0.35
ARB1995MRNO,2019-09-17-11-23-58,4,52,0.5758327749382952,right,both,biased-switch,95,20,left,right,0.286
ARB1995MRNO,2019-09-17-11-23-58,4,53,0.6253713047738003,left,probe,ambiguous-stable,-1,-30,left,left,0.271
ARB1995MRNO,2019-09-17-11-23-58,4,54,0.5665843514878802,left,both,ambiguous-stable,97,-30,right,right,0.269
ARB1995MRNO,2019-09-17-11-23-58,5,1,0.6733466654149501,left,probe,biased-switch,-1,-30,left,left,0.294
ARB1995MRNO,2019-09-17-11-23-58,5,2,0.6229386285804949,left,both,biased-switch,110,-30,left,right,0.232
ARB1995MRNO,2019-09-17-11-23-58,5,3,0.6949232114366556,right,probe,biased-switch,-1,-10,left,left,0.224
ARB1995MRNO,2019-09-17-11-23-58,5,4,0.6112333945522486,right,both,biased-switch,91,-10,left,right,0.238
ARB1995MRNO,2019-09-17-11-23-58,5,5,0.6260298996842488,left,probe,ambiguous-switch,-1,-30,left,left,0.245
ARB1995MRNO,2019-09-17-11-23-58,5,6,0.6025384297795813,left,both,ambiguous-switch,100,-30,left,right,0.234
ARB1995MRNO,2019-09-17-11-23-58,5,7,0.5069257488852803,right,probe,ambiguous-stable,-1,-5,right,right,0.214
ARB1995MRNO,2019-09-17-11-23-58,5,8,0.6531729477274882,right,both,ambiguous-stable,108,-5,left,right,0.2
ARB1995MRNO,2019-09-17-11-23-58,5,9,0.6529165001558334,right,probe,ambiguous-stable,-1,10,right,right,0.185
ARB1995MRNO,2019-09-17-11-23-58,5,10,0.6910785788918903,right,both,ambiguous-stable,92,10,left,right,0.232
ARB1995MRNO,2019-09-17-11-23-58,5,11,0.6009140289335466,left,probe,biased-switch,-1,-20,left,left,0.2
ARB1995MRNO,2019-09-17-11-23-58,5,12,0.5815618646915315,left,both,biased-switch,94,-20,left,right,0.228
ARB1995MRNO,2019-09-17-11-23-58,5,13,0.5990929653652645,left,probe,ambiguous-switch,-1,-20,right,right,0.22
ARB1995MRNO,2019-09-17-11-23-58,5,14,0.6002926059692295,left,both,ambiguous-switch,101,-20,right,left,0.211
ARB1995MRNO,2019-09-17-11-23-58,5,15,0.5358314791701251,left,probe,ambiguous-switch,-1,30,right,right,0.203
ARB1995MRNO,2019-09-17-11-23-58,5,16,0.6470288274976862,left,both,ambiguous-switch,107,30,right,left,0.207
ARB1995MRNO,2019-09-17-11-23-58,5,17,0.6053465522136137,right,probe,ambiguous-stable,-1,5,right,right,0.196
ARB1995MRNO,2019-09-17-11-23-58,5,18,0.5330605004270759,right,both,ambiguous-stable,90,5,left,right,0.229
ARB1995MRNO,2019-09-17-11-23-58,5,19,0.568776440735562,left,probe,ambiguous-stable,-1,-10,right,right,0.187
ARB1995MRNO,2019-09-17-11-23-58,5,20,0.5575102023502998,left,both,ambiguous-stable,97,-10,left,right,0.239
ARB1995MRNO,2019-09-17-11-23-58,5,21,0.6255675534874774,right,probe,ambiguous-stable,-1,20,right,right,0.19
ARB1995MRNO,2019-09-17-11-23-58,5,22,0.6931804247058103,right,both,ambiguous-stable,110,20,left,right,0.233
ARB1995MRNO,2019-09-17-11-23-58,5,23,0.6021375208637436,right,probe,ambiguous-switch,-1,0,right,right,0.195
ARB1995MRNO,2019-09-17-11-23-58,5,24,0.6533234700738882,right,both,ambiguous-switch,98,0,right,left,0.202
ARB1995MRNO,2019-09-17-11-23-58,5,25,0.6535260401183766,left,probe,biased-switch,-1,20,right,right,0.021
ARB1995MRNO,2019-09-17-11-23-58,5,26,0.6484954397186208,left,both,biased-switch,93,20,right,left,0.21
ARB1995MRNO,2019-09-17-11-23-58,5,27,0.6889540717578782,left,probe,biased-switch,-1,0,right,right,0.198
ARB1995MRNO,2019-09-17-11-23-58,5,28,0.5135284826420484,left,both,biased-switch,90,0,right,left,0.206
ARB1995MRNO,2019-09-17-11-23-58,5,29,0.6459261477988241,right,probe,ambiguous-switch,-1,-5,right,right,0.202
ARB1995MRNO,2019-09-17-11-23-58,5,30,0.5275374930660113,right,both,ambiguous-switch,99,-5,right,right,0.216
ARB1995MRNO,2019-09-17-11-23-58,5,31,0.6249134227958191,right,probe,ambiguous-stable,-1,-20,right,right,0.224
ARB1995MRNO,2019-09-17-11-23-58,5,32,0.573577398549529,right,both,ambiguous-stable,107,-20,left,right,0.186
ARB1995MRNO,2019-09-17-11-23-58,5,33,0.5424963652079574,left,probe,ambiguous-switch,-1,10,right,right,0.226
ARB1995MRNO,2019-09-17-11-23-58,5,34,0.5697485425161223,left,both,ambiguous-switch,102,10,right,left,0.218
ARB1995MRNO,2019-09-17-11-23-58,5,35,0.6911797965515769,left,probe,ambiguous-stable,-1,30,right,right,0.202
ARB1995MRNO,2019-09-17-11-23-58,5,36,0.669867257464837,left,both,ambiguous-stable,94,30,left,right,0.13
ARB1995MRNO,2019-09-17-11-23-58,5,37,0.5023440175559861,left,probe,ambiguous-stable,-1,0,right,right,0.192
ARB1995MRNO,2019-09-17-11-23-58,5,38,0.6414986182082687,left,both,ambiguous-stable,98,0,left,right,0.203
ARB1995MRNO,2019-09-17-11-23-58,5,39,0.6607219565062048,left,probe,biased-switch,-1,-5,right,right,0.052
ARB1995MRNO,2019-09-17-11-23-58,5,40,0.6970971315486059,left,both,biased-switch,97,-5,right,right,1.467
ARB1995MRNO,2019-09-17-11-23-58,5,41,0.5757576573115023,left,probe,biased-switch,-1,10,right,right,0.38
ARB1995MRNO,2019-09-17-11-23-58,5,42,0.5047642850013653,left,both,biased-switch,95,10,right,left,0.175
ARB1995MRNO,2019-09-17-11-23-58,5,43,0.5818051291554494,right,probe,ambiguous-stable,-1,-30,right,right,0.259
ARB1995MRNO,2019-09-17-11-23-58,5,44,0.6649555218965097,right,both,ambiguous-stable,96,-30,left,right,2.328
ARB1995MRNO,2019-09-17-11-23-58,5,45,0.6697120884239222,left,probe,biased-switch,-1,30,right,right,0.216
ARB1995MRNO,2019-09-17-11-23-58,5,46,0.5646424983180591,left,both,biased-switch,95,30,right,right,0.082
ARB1995MRNO,2019-09-17-11-23-58,5,47,0.5709928799434904,left,probe,ambiguous-switch,-1,-10,right,right,0.02
ARB1995MRNO,2019-09-17-11-23-58,5,48,0.5045742519477034,left,both,ambiguous-switch,108,-10,right,left,0.019
ARB1995MRNO,2019-09-17-11-23-58,5,49,0.6748576793041487,left,probe,ambiguous-switch,-1,20,right,right,0.131
ARB1995MRNO,2019-09-17-11-23-58,5,50,0.6650835169920917,left,both,ambiguous-switch,100,20,right,right,0.179
ARB1995MRNO,2019-09-17-11-23-58,5,51,0.6123431303179482,left,probe,biased-switch,-1,5,right,right,0.198
ARB1995MRNO,2019-09-17-11-23-58,5,52,0.5453993878340075,left,both,biased-switch,97,5,right,left,0.361
ARB1995MRNO,2019-09-17-11-23-58,5,53,0.6681216889579673,right,probe,ambiguous-switch,-1,5,left,left,0.262
ARB1995MRNO,2019-09-17-11-23-58,5,54,0.5564693113895749,right,both,ambiguous-switch,109,5,left,right,0.21
ARB1995MRNO,2019-09-17-11-23-58,6,1,0.6403210823844028,right,probe,ambiguous-switch,-1,30,left,left,0.373
ARB1995MRNO,2019-09-17-11-23-58,6,2,0.5490540269785662,right,both,ambiguous-switch,90,30,left,left,0.183
ARB1995MRNO,2019-09-17-11-23-58,6,3,0.5176029915575615,right,probe,biased-switch,-1,-10,left,left,0.119
ARB1995MRNO,2019-09-17-11-23-58,6,4,0.670040493222725,right,both,biased-switch,92,-10,left,left,1.532
ARB1995MRNO,2019-09-17-11-23-58,6,5,0.5524359622458419,left,probe,biased-switch,-1,0,left,left,0.192
ARB1995MRNO,2019-09-17-11-23-58,6,6,0.6290277909993477,left,both,biased-switch,106,0,left,right,0.211
ARB1995MRNO,2019-09-17-11-23-58,6,7,0.6666804127613933,right,probe,ambiguous-stable,-1,5,left,left,0.185
ARB1995MRNO,2019-09-17-11-23-58,6,8,0.5984111057450743,right,both,ambiguous-stable,93,5,right,left,0.193
ARB1995MRNO,2019-09-17-11-23-58,6,9,0.5507291769537594,left,probe,biased-switch,-1,5,right,right,0.136
ARB1995MRNO,2019-09-17-11-23-58,6,10,0.5529294415741229,left,both,biased-switch,99,5,right,left,0.195
ARB1995MRNO,2019-09-17-11-23-58,6,11,0.6422626779171712,right,probe,ambiguous-switch,-1,-10,left,left,0.186
ARB1995MRNO,2019-09-17-11-23-58,6,12,0.5523264751292225,right,both,ambiguous-switch,97,-10,left,left,1.784
ARB1995MRNO,2019-09-17-11-23-58,6,13,0.5955619681047445,left,probe,ambiguous-stable,-1,-5,left,left,0.183
ARB1995MRNO,2019-09-17-11-23-58,6,14,0.6008221183559331,left,both,ambiguous-stable,95,-5,right,right,0.012
ARB1995MRNO,2019-09-17-11-23-58,6,15,0.6020957691409212,left,probe,biased-switch,-1,-5,left,left,0.207
ARB1995MRNO,2019-09-17-11-23-58,6,16,0.5353327922108757,left,both,biased-switch,102,-5,left,right,0.646
ARB1995MRNO,2019-09-17-11-23-58,6,17,0.6878324061326608,right,probe,ambiguous-switch,-1,5,left,left,0.21
ARB1995MRNO,2019-09-17-11-23-58,6,18,0.5454985621390641,right,both,ambiguous-switch,92,5,left,right,0.251
ARB1995MRNO,2019-09-17-11-23-58,6,19,0.507286930190727,left,probe,ambiguous-switch,-1,-5,left,left,0.216
ARB1995MRNO,2019-09-17-11-23-58,6,20,0.5245478714854283,left,both,ambiguous-switch,100,-5,left,left,0.219
ARB1995MRNO,2019-09-17-11-23-58,6,21,0.6135937840708872,left,probe,ambiguous-switch,-1,20,left,left,0.212
ARB1995MRNO,2019-09-17-11-23-58,6,22,0.599530748304298,left,both,ambiguous-switch,109,20,left,right,0.248
ARB1995MRNO,2019-09-17-11-23-58,6,23,0.6206859397701577,left,probe,ambiguous-switch,-1,10,left,left,0.214
ARB1995MRNO,2019-09-17-11-23-58,6,24,0.568763070511163,left,both,ambiguous-switch,91,10,left,right,0.182
ARB1995MRNO,2019-09-17-11-23-58,6,25,0.5696658148827788,left,probe,biased-switch,-1,20,left,left,0.166
ARB1995MRNO,2019-09-17-11-23-58,6,26,0.5252030837701646,left,both,biased-switch,109,20,left,right,0.262
ARB1995MRNO,2019-09-17-11-23-58,6,27,0.5983741547199131,left,probe,ambiguous-stable,-1,0,right,right,0.197
ARB1995MRNO,2019-09-17-11-23-58,6,28,0.5417469805909577,left,both,ambiguous-stable,96,0,left,right,0.241
ARB1995MRNO,2019-09-17-11-23-58,6,29,0.6757182870771145,right,probe,ambiguous-switch,-1,-30,left,left,0.278
ARB1995MRNO,2019-09-17-11-23-58,6,30,0.694647964853514,right,both,ambiguous-switch,93,-30,left,right,0.311
ARB1995MRNO,2019-09-17-11-23-58,6,31,0.6212392811488722,left,probe,ambiguous-stable,-1,-20,right,right,0.166
ARB1995MRNO,2019-09-17-11-23-58,6,32,0.5867675412063424,left,both,ambiguous-stable,105,-20,left,right,0.275
ARB1995MRNO,2019-09-17-11-23-58,6,33,0.5215241196688698,left,probe,biased-switch,-1,-20,right,right,0.202
ARB1995MRNO,2019-09-17-11-23-58,6,34,0.6941674659971793,left,both,biased-switch,95,-20,right,right,0.22
ARB1995MRNO,2019-09-17-11-23-58,6,35,0.5075093447878186,left,probe,ambiguous-stable,-1,30,right,right,0.182
ARB1995MRNO,2019-09-17-11-23-58,6,36,0.5825106943648763,left,both,ambiguous-stable,110,30,left,right,0.243
ARB1995MRNO,2019-09-17-11-23-58,6,37,0.5115144024411116,left,probe,ambiguous-stable,-1,-10,right,right,0.193
ARB1995MRNO,2019-09-17-11-23-58,6,38,0.6049485090017139,left,both,ambiguous-stable,91,-10,left,right,0.264
ARB1995MRNO,2019-09-17-11-23-58,6,39,0.5987413816752657,right,probe,biased-switch,-1,-30,left,left,0.169
ARB1995MRNO,2019-09-17-11-23-58,6,40,0.5540380923677282,right,both,biased-switch,99,-30,left,right,0.035
ARB1995MRNO,2019-09-17-11-23-58,6,41,0.5206056675754444,right,probe,ambiguous-stable,-1,10,left,left,0.219
ARB1995MRNO,2019-09-17-11-23-58,6,42,0.6723076248003994,right,both,ambiguous-stable,105,10,right,left,0.244
ARB1995MRNO,2019-09-17-11-23-58,6,43,0.5317631663662361,right,probe,biased-switch,-1,30,left,left,0.173
ARB1995MRNO,2019-09-17-11-23-58,6,44,0.6357279053501059,right,both,biased-switch,105,30,left,left,0.191
ARB1995MRNO,2019-09-17-11-23-58,6,45,0.6686437748151439,right,probe,ambiguous-switch,-1,-20,left,left,0.068
ARB1995MRNO,2019-09-17-11-23-58,6,46,0.5996102041238133,right,both,ambiguous-switch,101,-20,left,left,0.118
ARB1995MRNO,2019-09-17-11-23-58,6,47,0.5335575411392154,right,probe,ambiguous-stable,-1,-30,left,left,0.203
ARB1995MRNO,2019-09-17-11-23-58,6,48,0.6366084973403665,right,both,ambiguous-stable,92,-30,right,left,0.207
ARB1995MRNO,2019-09-17-11-23-58,6,49,0.6878166262411031,left,probe,biased-switch,-1,10,right,right,0.176
ARB1995MRNO,2019-09-17-11-23-58,6,50,0.6617026125812716,left,both,biased-switch,108,10,right,left,0.25
ARB1995MRNO,2019-09-17-11-23-58,6,51,0.6984172183086238,left,probe,ambiguous-stable,-1,20,right,right,0.187
ARB1995MRNO,2019-09-17-11-23-58,6,52,0.6443020153004501,left,both,ambiguous-stable,91,20,left,right,0.222
ARB1995MRNO,2019-09-17-11-23-58,6,53,0.5335084315646322,right,probe,ambiguous-switch,-1,0,left,left,0.162
ARB1995MRNO,2019-09-17-11-23-58,6,54,0.538811243854483,right,both,ambiguous-switch,102,0,left,right,0.194
ARB1995MRNO,2019-09-17-11-23-58,7,1,0.699125660814182,left,probe,ambiguous-stable,-1,-20,left,left,0.225
ARB1995MRNO,2019-09-17-11-23-58,7,2,0.6785833258594072,left,both,ambiguous-stable,99,-20,right,right,0.222
ARB1995MRNO,2019-09-17-11-23-58,7,3,0.5205683820956044,right,probe,biased-switch,-1,-10,right,right,0.226
ARB1995MRNO,2019-09-17-11-23-58,7,4,0.6273798061799282,right,both,biased-switch,108,-10,right,right,0.212
ARB1995MRNO,2019-09-17-11-23-58,7,5,0.6914880993869379,right,probe,biased-switch,-1,10,right,right,0.026
ARB1995MRNO,2019-09-17-11-23-58,7,6,0.6936240277641311,right,both,biased-switch,90,10,right,left,0.217
ARB1995MRNO,2019-09-17-11-23-58,7,7,0.5442428267474734,left,probe,biased-switch,-1,-20,right,right,0.181
ARB1995MRNO,2019-09-17-11-23-58,7,8,0.6418508778314787,left,both,biased-switch,90,-20,right,right,0.211
ARB1995MRNO,2019-09-17-11-23-58,7,9,0.5626097182991818,right,probe,ambiguous-stable,-1,20,right,right,0.203
ARB1995MRNO,2019-09-17-11-23-58,7,10,0.6641937753367884,right,both,ambiguous-stable,96,20,left,right,0.217
ARB1995MRNO,2019-09-17-11-23-58,7,11,0.6124327758552341,left,probe,ambiguous-switch,-1,0,right,right,0.197
ARB1995MRNO,2019-09-17-11-23-58,7,12,0.6952577924243069,left,both,ambiguous-switch,93,0,right,left,0.216
ARB1995MRNO,2019-09-17-11-23-58,7,13,0.5242601497657686,right,probe,biased-switch,-1,30,right,right,0.205
ARB1995MRNO,2019-09-17-11-23-58,7,14,0.6252114726989918,right,both,biased-switch,98,30,right,right,0.183
ARB1995MRNO,2019-09-17-11-23-58,7,15,0.6196532015248843,left,probe,ambiguous-switch,-1,-30,right,right,0.231
ARB1995MRNO,2019-09-17-11-23-58,7,16,0.6888789646047225,left,both,ambiguous-switch,95,-30,right,right,0.217
ARB1995MRNO,2019-09-17-11-23-58,7,17,0.5929699365413322,right,probe,ambiguous-stable,-1,-10,right,right,0.244
ARB1995MRNO,2019-09-17-11-23-58,7,18,0.6495264427781442,right,both,ambiguous-stable,100,-10,left,right,0.203
ARB1995MRNO,2019-09-17-11-23-58,7,19,0.5628078134618606,right,probe,ambiguous-stable,-1,10,right,right,0.204
ARB1995MRNO,2019-09-17-11-23-58,7,20,0.5486738161703207,right,both,ambiguous-stable,93,10,left,right,0.257
ARB1995MRNO,2019-09-17-11-23-58,7,21,0.6930199268516157,right,probe,ambiguous-stable,-1,-30,right,right,0.19
ARB1995MRNO,2019-09-17-11-23-58,7,22,0.6953466553980223,right,both,ambiguous-stable,91,-30,left,right,0.369
ARB1995MRNO,2019-09-17-11-23-58,7,23,0.5048775753363336,right,probe,ambiguous-switch,-1,5,right,right,0.147
ARB1995MRNO,2019-09-17-11-23-58,7,24,0.6586186335484949,right,both,ambiguous-switch,103,5,right,left,0.235
ARB1995MRNO,2019-09-17-11-23-58,7,25,0.5064841321379823,left,probe,ambiguous-switch,-1,-5,right,right,0.127
ARB1995MRNO,2019-09-17-11-23-58,7,26,0.5254965239930692,left,both,ambiguous-switch,107,-5,right,right,0.255
ARB1995MRNO,2019-09-17-11-23-58,7,27,0.6951890645853334,right,probe,ambiguous-stable,-1,0,right,right,0.638
ARB1995MRNO,2019-09-17-11-23-58,7,28,0.6809691810370053,right,both,ambiguous-stable,96,0,left,right,0.207
ARB1995MRNO,2019-09-17-11-23-58,7,29,0.5284502542442401,right,probe,ambiguous-switch,-1,20,right,right,0.203
ARB1995MRNO,2019-09-17-11-23-58,7,30,0.6606162329385742,right,both,ambiguous-switch,106,20,right,left,0.198
ARB1995MRNO,2019-09-17-11-23-58,7,31,0.5190056718245322,left,probe,ambiguous-switch,-1,10,right,right,0.238
ARB1995MRNO,2019-09-17-11-23-58,7,32,0.5507874866249185,left,both,ambiguous-switch,108,10,right,left,0.225
ARB1995MRNO,2019-09-17-11-23-58,7,33,0.5303517047878272,left,probe,biased-switch,-1,-5,right,right,0.152
ARB1995MRNO,2019-09-17-11-23-58,7,34,0.568341268143317,left,both,biased-switch,98,-5,right,left,0.035
ARB1995MRNO,2019-09-17-11-23-58,7,35,0.5212111796953155,left,probe,ambiguous-stable,-1,5,left,left,0.172
ARB1995MRNO,2019-09-17-11-23-58,7,36,0.6661779512924195,left,both,ambiguous-stable,106,5,right,left,0.215
ARB1995MRNO,2019-09-17-11-23-58,7,37,0.6181835450738427,right,probe,ambiguous-switch,-1,-20,right,right,0.179
ARB1995MRNO,2019-09-17-11-23-58,7,38,0.5670416901568046,right,both,ambiguous-switch,105,-20,right,right,0.237
ARB1995MRNO,2019-09-17-11-23-58,7,39,0.5712687403100271,right,probe,ambiguous-switch,-1,-10,right,right,0.215
ARB1995MRNO,2019-09-17-11-23-58,7,40,0.5455444770025022,right,both,ambiguous-switch,91,-10,right,left,0.152
ARB1995MRNO,2019-09-17-11-23-58,7,41,0.5741236773541264,right,probe,biased-switch,-1,0,right,right,0.217
ARB1995MRNO,2019-09-17-11-23-58,7,42,0.5895710093444839,right,both,biased-switch,103,0,right,left,0.059
ARB1995MRNO,2019-09-17-11-23-58,7,43,0.5339722627681074,right,probe,ambiguous-stable,-1,-5,left,left,0.196
ARB1995MRNO,2019-09-17-11-23-58,7,44,0.6609767349613234,right,both,ambiguous-stable,102,-5,right,left,0.173
ARB1995MRNO,2019-09-17-11-23-58,7,45,0.6478661406329427,left,probe,biased-switch,-1,5,right,right,0.09
ARB1995MRNO,2019-09-17-11-23-58,7,46,0.5570818743764375,left,both,biased-switch,103,5,right,left,0.22
ARB1995MRNO,2019-09-17-11-23-58,7,47,0.6140224505425098,left,probe,ambiguous-switch,-1,30,right,right,0.235
ARB1995MRNO,2019-09-17-11-23-58,7,48,0.5733114285098782,left,both,ambiguous-switch,104,30,right,left,0.046
ARB1995MRNO,2019-09-17-11-23-58,7,49,0.6126038898503431,left,probe,ambiguous-stable,-1,30,left,left,0.201
ARB1995MRNO,2019-09-17-11-23-58,7,50,0.5543438216025233,left,both,ambiguous-stable,92,30,right,left,0.432
ARB1995MRNO,2019-09-17-11-23-58,7,51,0.646639510835993,right,probe,biased-switch,-1,20,left,left,0.168
ARB1995MRNO,2019-09-17-11-23-58,7,52,0.6705052642599253,right,both,biased-switch,93,20,left,right,0.286
ARB1995MRNO,2019-09-17-11-23-58,7,53,0.5063284853533957,right,probe,biased-switch,-1,-30,left,left,0.209
ARB1995MRNO,2019-09-17-11-23-58,7,54,0.6351553659883189,right,both,biased-switch,93,-30,left,left,0.282
ARB1995MRNO,2019-09-17-11-23-58,8,1,0.5290541178890087,right,probe,biased-switch,-1,20,left,left,0.2
ARB1995MRNO,2019-09-17-11-23-58,8,2,0.6799910903193017,right,both,biased-switch,100,20,left,left,1.395
ARB1995MRNO,2019-09-17-11-23-58,8,3,0.5135635533584297,right,probe,ambiguous-switch,-1,30,left,left,0.163
ARB1995MRNO,2019-09-17-11-23-58,8,4,0.5253031773513078,right,both,ambiguous-switch,96,30,left,left,0.204
ARB1995MRNO,2019-09-17-11-23-58,8,5,0.6475376682673603,left,probe,biased-switch,-1,-10,left,left,0.304
ARB1995MRNO,2019-09-17-11-23-58,8,6,0.6536100685914521,left,both,biased-switch,95,-10,left,left,0.177
ARB1995MRNO,2019-09-17-11-23-58,8,7,0.622373460679245,left,probe,ambiguous-stable,-1,-30,left,left,0.233
ARB1995MRNO,2019-09-17-11-23-58,8,8,0.5681567207799666,left,both,ambiguous-stable,98,-30,right,left,0.212
ARB1995MRNO,2019-09-17-11-23-58,8,9,0.5532954522588797,left,probe,ambiguous-switch,-1,-5,left,left,0.231
ARB1995MRNO,2019-09-17-11-23-58,8,10,0.5945528408271312,left,both,ambiguous-switch,99,-5,left,left,0.202
ARB1995MRNO,2019-09-17-11-23-58,8,11,0.687316582367999,right,probe,ambiguous-switch,-1,-20,left,left,0.209
ARB1995MRNO,2019-09-17-11-23-58,8,12,0.6514286025044866,right,both,ambiguous-switch,105,-20,left,left,0.218
ARB1995MRNO,2019-09-17-11-23-58,8,13,0.5629042000928901,left,probe,ambiguous-stable,-1,-5,left,left,0.267
ARB1995MRNO,2019-09-17-11-23-58,8,14,0.6028627956061599,left,both,ambiguous-stable,101,-5,right,left,0.179
ARB1995MRNO,2019-09-17-11-23-58,8,15,0.6286975983748664,left,probe,ambiguous-switch,-1,20,left,left,0.167
ARB1995MRNO,2019-09-17-11-23-58,8,16,0.5978017806598248,left,both,ambiguous-switch,95,20,left,left,0.202
ARB1995MRNO,2019-09-17-11-23-58,8,17,0.6839855591957739,left,probe,biased-switch,-1,0,left,left,0.21
ARB1995MRNO,2019-09-17-11-23-58,8,18,0.5219658603199848,left,both,biased-switch,97,0,left,right,0.24
ARB1995MRNO,2019-09-17-11-23-58,8,19,0.6041809921762843,right,probe,ambiguous-stable,-1,5,left,left,0.177
ARB1995MRNO,2019-09-17-11-23-58,8,20,0.5329519063914303,right,both,ambiguous-stable,94,5,right,left,0.16
ARB1995MRNO,2019-09-17-11-23-58,8,21,0.606653694868545,right,probe,ambiguous-switch,-1,10,left,left,0.079
ARB1995MRNO,2019-09-17-11-23-58,8,22,0.66367767914899,right,both,ambiguous-switch,94,10,left,right,0.193
ARB1995MRNO,2019-09-17-11-23-58,8,23,0.69919914820656,left,probe,biased-switch,-1,5,left,left,0.223
ARB1995MRNO,2019-09-17-11-23-58,8,24,0.6716077791999144,left,both,biased-switch,91,5,left,right,0.198
ARB1995MRNO,2019-09-17-11-23-58,8,25,0.6435904987444505,left,probe,ambiguous-stable,-1,30,right,right,0.197
ARB1995MRNO,2019-09-17-11-23-58,8,26,0.6216977630683055,left,both,ambiguous-stable,96,30,left,right,0.19
ARB1995MRNO,2019-09-17-11-23-58,8,27,0.6202761515778453,left,probe,ambiguous-switch,-1,-10,right,right,0.213
ARB1995MRNO,2019-09-17-11-23-58,8,28,0.5902310976957073,left,both,ambiguous-switch,102,-10,right,right,0.166
ARB1995MRNO,2019-09-17-11-23-58,8,29,0.6559801879906612,right,probe,ambiguous-stable,-1,0,right,right,0.173
ARB1995MRNO,2019-09-17-11-23-58,8,30,0.6234987520436415,right,both,ambiguous-stable,92,0,left,right,0.192
ARB1995MRNO,2019-09-17-11-23-58,8,31,0.5892408863222319,right,probe,ambiguous-stable,-1,10,right,right,0.216
ARB1995MRNO,2019-09-17-11-23-58,8,32,0.6529877558690517,right,both,ambiguous-stable,105,10,left,right,0.198
ARB1995MRNO,2019-09-17-11-23-58,8,33,0.5814762780403216,right,probe,ambiguous-stable,-1,20,right,right,0.157
ARB1995MRNO,2019-09-17-11-23-58,8,34,0.6706931847100366,right,both,ambiguous-stable,105,20,left,right,0.164
ARB1995MRNO,2019-09-17-11-23-58,8,35,0.5256642304525587,left,probe,biased-switch,-1,-20,right,right,0.203
ARB1995MRNO,2019-09-17-11-23-58,8,36,0.5369725521688051,left,both,biased-switch,96,-20,right,right,0.25
ARB1995MRNO,2019-09-17-11-23-58,8,37,0.6508528759213618,right,probe,ambiguous-switch,-1,-30,right,right,0.203
ARB1995MRNO,2019-09-17-11-23-58,8,38,0.5958485096629056,right,both,ambiguous-switch,98,-30,right,left,0.271
ARB1995MRNO,2019-09-17-11-23-58,8,39,0.6309087225141672,right,probe,ambiguous-switch,-1,0,left,left,0.185
ARB1995MRNO,2019-09-17-11-23-58,8,40,0.5742684617834741,right,both,ambiguous-switch,99,0,left,right,0.195
ARB1995MRNO,2019-09-17-11-23-58,8,41,0.5493374909289674,left,probe,biased-switch,-1,-5,right,right,1.435
ARB1995MRNO,2019-09-17-11-23-58,8,42,0.664748374960783,left,both,biased-switch,107,-5,right,left,0.223
ARB1995MRNO,2019-09-17-11-23-58,8,43,0.6954526840892392,left,probe,ambiguous-stable,-1,-20,right,right,0.074
ARB1995MRNO,2019-09-17-11-23-58,8,44,0.5697958464694228,left,both,ambiguous-stable,100,-20,left,right,0.201
ARB1995MRNO,2019-09-17-11-23-58,8,45,0.668958915692738,left,probe,ambiguous-stable,-1,-10,right,right,0.196
ARB1995MRNO,2019-09-17-11-23-58,8,46,0.603636202297397,left,both,ambiguous-stable,100,-10,left,right,0.211
ARB1995MRNO,2019-09-17-11-23-58,8,47,0.6171966572023224,right,probe,biased-switch,-1,10,left,left,0.033
ARB1995MRNO,2019-09-17-11-23-58,8,48,0.5834958253150389,right,both,biased-switch,90,10,left,right,0.328
ARB1995MRNO,2019-09-17-11-23-58,8,49,0.6813829262146729,left,probe,biased-switch,-1,-30,right,right,0.2
ARB1995MRNO,2019-09-17-11-23-58,8,50,0.6005261346230544,left,both,biased-switch,110,-30,right,left,0.21
ARB1995MRNO,2019-09-17-11-23-58,8,51,0.6116393962063151,right,probe,ambiguous-switch,-1,5,left,left,0.275
ARB1995MRNO,2019-09-17-11-23-58,8,52,0.6618899166993346,right,both,ambiguous-switch,97,5,left,right,0.213
ARB1995MRNO,2019-09-17-11-23-58,8,53,0.6625845013966704,right,probe,biased-switch,-1,30,right,right,0.138
ARB1995MRNO,2019-09-17-11-23-58,8,54,0.665468847663875,right,both,biased-switch,95,30,right,left,0.236
ARB1995MRNO,2019-09-17-11-23-58,9,1,0.640122872911452,right,probe,biased-switch,-1,0,left,left,0.187
ARB1995MRNO,2019-09-17-11-23-58,9,2,0.6899896325240901,right,both,biased-switch,95,0,left,right,0.19
ARB1995MRNO,2019-09-17-11-23-58,9,3,0.6241974338238757,right,probe,biased-switch,-1,-20,right,right,0.409
ARB1995MRNO,2019-09-17-11-23-58,9,4,0.5911821219300807,right,both,biased-switch,100,-20,right,left,1.749
ARB1995MRNO,2019-09-17-11-23-58,9,5,0.6295252619853678,right,probe,ambiguous-stable,-1,0,left,left,0.19
ARB1995MRNO,2019-09-17-11-23-58,9,6,0.6410976051795525,right,both,ambiguous-stable,108,0,right,left,0.225
ARB1995MRNO,2019-09-17-11-23-58,9,7,0.6927220603674762,left,probe,ambiguous-stable,-1,-10,right,right,0.219
ARB1995MRNO,2019-09-17-11-23-58,9,8,0.6965129758090853,left,both,ambiguous-stable,103,-10,left,right,0.248
ARB1995MRNO,2019-09-17-11-23-58,9,9,0.6030909502978887,left,probe,biased-switch,-1,-5,right,right,0.2
ARB1995MRNO,2019-09-17-11-23-58,9,10,0.6449166133394487,left,both,biased-switch,96,-5,right,left,0.215
ARB1995MRNO,2019-09-17-11-23-58,9,11,0.6101174631617682,right,probe,biased-switch,-1,10,left,left,0.161
ARB1995MRNO,2019-09-17-11-23-58,9,12,0.5843878175432854,right,both,biased-switch,102,10,left,right,0.281
ARB1995MRNO,2019-09-17-11-23-58,9,13,0.5139555906788216,left,probe,ambiguous-stable,-1,-30,left,left,0.199
ARB1995MRNO,2019-09-17-11-23-58,9,14,0.6773778002076917,left,both,ambiguous-stable,97,-30,right,left,0.078
ARB1995MRNO,2019-09-17-11-23-58,9,15,0.6903674803599171,right,probe,ambiguous-stable,-1,20,left,left,0.179
ARB1995MRNO,2019-09-17-11-23-58,9,16,0.6287461783008085,right,both,ambiguous-stable,108,20,right,left,0.21
ARB1995MRNO,2019-09-17-11-23-58,9,17,0.5666786996481329,left,probe,ambiguous-switch,-1,-5,left,left,0.203
ARB1995MRNO,2019-09-17-11-23-58,9,18,0.5686228642806361,left,both,ambiguous-switch,94,-5,left,left,0.173
ARB1995MRNO,2019-09-17-11-23-58,9,19,0.6428107186311158,left,probe,ambiguous-stable,-1,-5,left,left,0.245
ARB1995MRNO,2019-09-17-11-23-58,9,20,0.6147380532818255,left,both,ambiguous-stable,95,-5,right,left,0.221
ARB1995MRNO,2019-09-17-11-23-58,9,21,0.6392385318645615,right,probe,ambiguous-switch,-1,5,left,left,0.157
ARB1995MRNO,2019-09-17-11-23-58,9,22,0.5510411361554339,right,both,ambiguous-switch,108,5,left,right,0.212
ARB1995MRNO,2019-09-17-11-23-58,9,23,0.6808856660801417,left,probe,ambiguous-switch,-1,-10,left,left,0.15
ARB1995MRNO,2019-09-17-11-23-58,9,24,0.6289926093883029,left,both,ambiguous-switch,101,-10,left,left,0.187
ARB1995MRNO,2019-09-17-11-23-58,9,25,0.6126253043385665,left,probe,ambiguous-switch,-1,10,left,left,0.216
ARB1995MRNO,2019-09-17-11-23-58,9,26,0.6439102516284663,left,both,ambiguous-switch,102,10,left,right,0.319
ARB1995MRNO,2019-09-17-11-23-58,9,27,0.5141473528869126,left,probe,ambiguous-switch,-1,30,right,right,0.206
ARB1995MRNO,2019-09-17-11-23-58,9,28,0.6788649554050901,left,both,ambiguous-switch,103,30,right,left,0.206
ARB1995MRNO,2019-09-17-11-23-58,9,29,0.5714498708892141,right,probe,ambiguous-switch,-1,-20,left,left,0.074
ARB1995MRNO,2019-09-17-11-23-58,9,30,0.6326389503065981,right,both,ambiguous-switch,101,-20,left,left,0.138
ARB1995MRNO,2019-09-17-11-23-58,9,31,0.5810467369831493,right,probe,ambiguous-switch,-1,0,left,left,0.23
ARB1995MRNO,2019-09-17-11-23-58,9,32,0.5912082994836237,right,both,ambiguous-switch,105,0,left,right,0.06
ARB1995MRNO,2019-09-17-11-23-58,9,33,0.5239239885140848,right,probe,ambiguous-stable,-1,5,right,right,0.164
ARB1995MRNO,2019-09-17-11-23-58,9,34,0.631549148432539,right,both,ambiguous-stable,103,5,left,right,0.227
ARB1995MRNO,2019-09-17-11-23-58,9,35,0.5077630651737122,left,probe,ambiguous-stable,-1,-20,left,left,0.203
ARB1995MRNO,2019-09-17-11-23-58,9,36,0.6811574484836649,left,both,ambiguous-stable,91,-20,right,right,0.263
ARB1995MRNO,2019-09-17-11-23-58,9,37,0.595964878773501,right,probe,ambiguous-stable,-1,10,right,right,0.219
ARB1995MRNO,2019-09-17-11-23-58,9,38,0.5387056450512714,right,both,ambiguous-stable,102,10,left,right,0.211
ARB1995MRNO,2019-09-17-11-23-58,9,39,0.5254556186245984,left,probe,ambiguous-switch,-1,-30,right,right,0.172
ARB1995MRNO,2019-09-17-11-23-58,9,40,0.5714435084548475,left,both,ambiguous-switch,100,-30,right,right,0.387
ARB1995MRNO,2019-09-17-11-23-58,9,41,0.5365540900829764,right,probe,biased-switch,-1,-30,right,right,0.25
ARB1995MRNO,2019-09-17-11-23-58,9,42,0.5656478392872514,right,both,biased-switch,99,-30,right,left,0.211
ARB1995MRNO,2019-09-17-11-23-58,9,43,0.5726643520038688,left,probe,biased-switch,-1,-10,right,right,0.204
ARB1995MRNO,2019-09-17-11-23-58,9,44,0.5462963975922983,left,both,biased-switch,107,-10,right,left,0.237
ARB1995MRNO,2019-09-17-11-23-58,9,45,0.505399772672216,right,probe,ambiguous-switch,-1,20,left,left,0.238
ARB1995MRNO,2019-09-17-11-23-58,9,46,0.6478918019335047,right,both,ambiguous-switch,95,20,left,right,0.214
ARB1995MRNO,2019-09-17-11-23-58,9,47,0.5643573187857729,right,probe,biased-switch,-1,20,left,left,0.211
ARB1995MRNO,2019-09-17-11-23-58,9,48,0.6695931567477749,right,both,biased-switch,93,20,left,right,0.058
ARB1995MRNO,2019-09-17-11-23-58,9,49,0.5339878292342756,right,probe,biased-switch,-1,5,right,right,0.159
ARB1995MRNO,2019-09-17-11-23-58,9,50,0.6278285594892856,right,both,biased-switch,100,5,right,left,0.218
ARB1995MRNO,2019-09-17-11-23-58,9,51,0.6859996496117825,left,probe,biased-switch,-1,30,right,right,0.109
ARB1995MRNO,2019-09-17-11-23-58,9,52,0.6055381506949215,left,both,biased-switch,92,30,right,right,0.2
ARB1995MRNO,2019-09-17-11-23-58,9,53,0.5830588431804997,left,probe,ambiguous-stable,-1,30,right,right,0.016
ARB1995MRNO,2019-09-17-11-23-58,9,54,0.6813631434012042,left,both,ambiguous-stable,92,30,left,right,0.305
ARB1995MRNO,2019-09-17-11-23-58,10,1,0.6168300204348423,right,probe,ambiguous-stable,-1,20,right,right,0.257
ARB1995MRNO,2019-09-17-11-23-58,10,2,0.637297041190098,right,both,ambiguous-stable,104,20,left,right,0.239
ARB1995MRNO,2019-09-17-11-23-58,10,3,0.6149254672269127,left,probe,biased-switch,-1,10,right,right,0.23
ARB1995MRNO,2019-09-17-11-23-58,10,4,0.5883582589784292,left,both,biased-switch,108,10,right,left,0.296
ARB1995MRNO,2019-09-17-11-23-58,10,5,0.6485618711103551,right,probe,biased-switch,-1,0,left,left,0.088
ARB1995MRNO,2019-09-17-11-23-58,10,6,0.5999027491718765,right,both,biased-switch,103,0,left,right,0.233
ARB1995MRNO,2019-09-17-11-23-58,10,7,0.6393982142302526,left,probe,ambiguous-switch,-1,-10,right,right,0.21
ARB1995MRNO,2019-09-17-11-23-58,10,8,0.622903460461618,left,both,ambiguous-switch,107,-10,right,right,0.136
ARB1995MRNO,2019-09-17-11-23-58,10,9,0.5046993952660469,right,probe,ambiguous-switch,-1,-5,right,right,0.168
ARB1995MRNO,2019-09-17-11-23-58,10,10,0.6290726145357581,right,both,ambiguous-switch,93,-5,right,left,0.228
ARB1995MRNO,2019-09-17-11-23-58,10,11,0.5226727080683984,left,probe,ambiguous-switch,-1,20,right,right,0.199
ARB1995MRNO,2019-09-17-11-23-58,10,12,0.6929538269984399,left,both,ambiguous-switch,94,20,right,left,0.22
ARB1995MRNO,2019-09-17-11-23-58,10,13,0.671407072991048,left,probe,ambiguous-switch,-1,5,right,right,0.221
ARB1995MRNO,2019-09-17-11-23-58,10,14,0.5545436170290012,left,both,ambiguous-switch,96,5,right,left,0.163
ARB1995MRNO,2019-09-17-11-23-58,10,15,0.5666654899039665,left,probe,ambiguous-switch,-1,-30,right,right,0.096
ARB1995MRNO,2019-09-17-11-23-58,10,16,0.6774903590139202,left,both,ambiguous-switch,110,-30,right,left,0.243
ARB1995MRNO,2019-09-17-11-23-58,10,17,0.6063308289735836,right,probe,biased-switch,-1,-5,right,right,0.123
ARB1995MRNO,2019-09-17-11-23-58,10,18,0.5756640616846831,right,both,biased-switch,108,-5,right,right,0.161
ARB1995MRNO,2019-09-17-11-23-58,10,19,0.6052466466439992,right,probe,ambiguous-stable,-1,-20,right,right,0.207
ARB1995MRNO,2019-09-17-11-23-58,10,20,0.69444093914579,right,both,ambiguous-stable,107,-20,left,right,0.222
ARB1995MRNO,2019-09-17-11-23-58,10,21,0.6781589310333505,right,probe,ambiguous-stable,-1,-10,right,right,0.232
ARB1995MRNO,2019-09-17-11-23-58,10,22,0.6668704460233035,right,both,ambiguous-stable,96,-10,left,right,0.151
ARB1995MRNO,2019-09-17-11-23-58,10,23,0.5070837697792656,left,probe,ambiguous-switch,-1,0,right,right,0.244
ARB1995MRNO,2019-09-17-11-23-58,10,24,0.5144533120289131,left,both,ambiguous-switch,107,0,right,left,0.205
ARB1995MRNO,2019-09-17-11-23-58,10,25,0.6576449481048326,right,probe,biased-switch,-1,5,left,left,0.144
ARB1995MRNO,2019-09-17-11-23-58,10,26,0.6452993801835853,right,both,biased-switch,101,5,left,right,0.225
ARB1995MRNO,2019-09-17-11-23-58,10,27,0.6786791102647198,left,probe,ambiguous-stable,-1,10,left,left,0.228
ARB1995MRNO,2019-09-17-11-23-58,10,28,0.5046732835848944,left,both,ambiguous-stable,92,10,right,left,0.248
ARB1995MRNO,2019-09-17-11-23-58,10,29,0.6879936509042336,left,probe,ambiguous-switch,-1,30,left,left,0.198
ARB1995MRNO,2019-09-17-11-23-58,10,30,0.5300105280057444,left,both,ambiguous-switch,106,30,left,left,0.19
ARB1995MRNO,2019-09-17-11-23-58,10,31,0.5244337051509719,left,probe,biased-switch,-1,20,left,left,0.142
ARB1995MRNO,2019-09-17-11-23-58,10,32,0.537435595712787,left,both,biased-switch,92,20,left,left,0.157
ARB1995MRNO,2019-09-17-11-23-58,10,33,0.6738496221009882,left,probe,ambiguous-switch,-1,-20,left,left,0.202
ARB1995MRNO,2019-09-17-11-23-58,10,34,0.5956504158767124,left,both,ambiguous-switch,109,-20,left,left,0.135
ARB1995MRNO,2019-09-17-11-23-58,10,35,0.5929131287942708,right,probe,biased-switch,-1,-30,left,left,0.244
ARB1995MRNO,2019-09-17-11-23-58,10,36,0.605006508873456,right,both,biased-switch,98,-30,left,right,0.209
ARB1995MRNO,2019-09-17-11-23-58,10,37,0.6035743577247435,left,probe,ambiguous-stable,-1,30,left,left,0.16
ARB1995MRNO,2019-09-17-11-23-58,10,38,0.6037173258433715,left,both,ambiguous-stable,108,30,right,left,0.187
ARB1995MRNO,2019-09-17-11-23-58,10,39,0.6008016058315452,left,probe,ambiguous-stable,-1,-5,left,left,0.043
ARB1995MRNO,2019-09-17-11-23-58,10,40,0.692446627200541,left,both,ambiguous-stable,96,-5,right,left,0.188
ARB1995MRNO,2019-09-17-11-23-58,10,41,0.5284214774017381,left,probe,biased-switch,-1,30,left,left,0.136
ARB1995MRNO,2019-09-17-11-23-58,10,42,0.6038000304708381,left,both,biased-switch,103,30,left,left,0.254
ARB1995MRNO,2019-09-17-11-23-58,10,43,0.6315428290334901,left,probe,ambiguous-stable,-1,-30,left,left,0.215
ARB1995MRNO,2019-09-17-11-23-58,10,44,0.5208037221344243,left,both,ambiguous-stable,107,-30,right,left,0.199
ARB1995MRNO,2019-09-17-11-23-58,10,45,0.5426373272278288,left,probe,ambiguous-switch,-1,10,left,left,0.204
ARB1995MRNO,2019-09-17-11-23-58,10,46,0.5964346000911726,left,both,ambiguous-switch,97,10,left,right,0.227
ARB1995MRNO,2019-09-17-11-23-58,10,47,0.5964080819265907,right,probe,biased-switch,-1,-20,left,left,0.162
ARB1995MRNO,2019-09-17-11-23-58,10,48,0.6931784353296007,right,both,biased-switch,93,-20,left,left,0.225
ARB1995MRNO,2019-09-17-11-23-58,10,49,0.6264730328279888,left,probe,ambiguous-stable,-1,5,left,left,0.219
ARB1995MRNO,2019-09-17-11-23-58,10,50,0.5593880814235512,left,both,ambiguous-stable,92,5,right,left,0.216
ARB1995MRNO,2019-09-17-11-23-58,10,51,0.5190339005359035,left,probe,biased-switch,-1,-10,left,left,0.194
ARB1995MRNO,2019-09-17-11-23-58,10,52,0.6133614584396617,left,both,biased-switch,100,-10,left,left,0.197
ARB1995MRNO,2019-09-17-11-23-58,10,53,0.5087583220230997,left,probe,ambiguous-stable,-1,0,left,left,0.259
ARB1995MRNO,2019-09-17-11-23-58,10,54,0.6196950829430785,left,both,ambiguous-stable,99,0,right,left,0.219
