Participant,Session,Block,Trial,OnsetDelay,ProbeLocation,WhatIsReported,Condition,TriggerTime,ProbeSOA,PrimeDirection,Response,RT
MHN1998MRNO,2019-09-26-14-05-15,1,1,0.5125003735193596,left,probe,ambiguous-stable,-1,5,left,left,0.862
MHN1998MRNO,2019-09-26-14-05-15,1,2,0.6840579587958835,left,both,ambiguous-stable,102,5,right,left,0.514
MHN1998MRNO,2019-09-26-14-05-15,1,3,0.5414733415637717,left,probe,ambiguous-stable,-1,30,left,left,0.43
MHN1998MRNO,2019-09-26-14-05-15,1,4,0.5559064714715213,left,both,ambiguous-stable,101,30,right,left,0.469
MHN1998MRNO,2019-09-26-14-05-15,1,5,0.6530117648571939,right,probe,biased-switch,-1,30,left,left,0.391
MHN1998MRNO,2019-09-26-14-05-15,1,6,0.5312516831759249,right,both,biased-switch,108,30,left,left,0.33
MHN1998MRNO,2019-09-26-14-05-15,1,7,0.6425343995385558,left,probe,ambiguous-switch,-1,40,left,left,0.631
MHN1998MRNO,2019-09-26-14-05-15,1,8,0.5925539631455367,left,both,ambiguous-switch,98,40,left,left,0.582
MHN1998MRNO,2019-09-26-14-05-15,1,9,0.6556707555937491,right,probe,ambiguous-stable,-1,20,left,left,0.39
MHN1998MRNO,2019-09-26-14-05-15,1,10,0.6035145012551533,right,both,ambiguous-stable,104,20,right,left,0.432
MHN1998MRNO,2019-09-26-14-05-15,1,11,0.501075813235465,left,probe,ambiguous-switch,-1,-5,left,left,0.423
MHN1998MRNO,2019-09-26-14-05-15,1,12,0.5750569007700964,left,both,ambiguous-switch,96,-5,left,left,0.327
MHN1998MRNO,2019-09-26-14-05-15,1,13,0.6340482344330917,left,probe,biased-switch,-1,5,left,left,1.026
MHN1998MRNO,2019-09-26-14-05-15,1,14,0.695826079186691,left,both,biased-switch,105,5,left,left,0.232
MHN1998MRNO,2019-09-26-14-05-15,1,15,0.5199180754430951,left,probe,ambiguous-switch,-1,-10,left,left,0.335
MHN1998MRNO,2019-09-26-14-05-15,1,16,0.6279400867346445,left,both,ambiguous-switch,97,-10,left,left,0.306
MHN1998MRNO,2019-09-26-14-05-15,1,17,0.6787232190529406,right,probe,ambiguous-switch,-1,30,left,left,0.423
MHN1998MRNO,2019-09-26-14-05-15,1,18,0.6929427048252654,right,both,ambiguous-switch,93,30,left,left,0.261
MHN1998MRNO,2019-09-26-14-05-15,1,19,0.6950478881707345,right,probe,ambiguous-stable,-1,10,left,left,2.495
MHN1998MRNO,2019-09-26-14-05-15,1,20,0.5093460638538146,right,both,ambiguous-stable,105,10,right,left,1.096
MHN1998MRNO,2019-09-26-14-05-15,1,21,0.6348109772102721,right,probe,ambiguous-switch,-1,10,left,left,0.573
MHN1998MRNO,2019-09-26-14-05-15,1,22,0.6901650719248965,right,both,ambiguous-switch,109,10,left,left,0.761
MHN1998MRNO,2019-09-26-14-05-15,1,23,0.5291867549606242,right,probe,ambiguous-switch,-1,-30,left,left,1.009
MHN1998MRNO,2019-09-26-14-05-15,1,24,0.6377321561979288,right,both,ambiguous-switch,94,-30,left,left,0.817
MHN1998MRNO,2019-09-26-14-05-15,1,25,0.6195474078479566,right,probe,biased-switch,-1,40,left,left,0.857
MHN1998MRNO,2019-09-26-14-05-15,1,26,0.5722229161659385,right,both,biased-switch,99,40,left,left,0.95
MHN1998MRNO,2019-09-26-14-05-15,1,27,0.6057490292631088,right,probe,ambiguous-stable,-1,0,left,left,1.08
MHN1998MRNO,2019-09-26-14-05-15,1,28,0.572722825247338,right,both,ambiguous-stable,98,0,right,left,1.915
MHN1998MRNO,2019-09-26-14-05-15,1,29,0.6547060730110631,right,probe,ambiguous-stable,-1,40,left,left,0.989
MHN1998MRNO,2019-09-26-14-05-15,1,30,0.5610379290391012,right,both,ambiguous-stable,109,40,right,left,2.488
MHN1998MRNO,2019-09-26-14-05-15,1,31,0.6787144390446538,left,probe,biased-switch,-1,-20,left,left,1.225
MHN1998MRNO,2019-09-26-14-05-15,1,32,0.6018966845591712,left,both,biased-switch,105,-20,left,right,0.596
MHN1998MRNO,2019-09-26-14-05-15,1,33,0.5891962292144888,left,probe,biased-switch,-1,-5,left,left,0.673
MHN1998MRNO,2019-09-26-14-05-15,1,34,0.5054177686009319,left,both,biased-switch,107,-5,left,left,0.611
MHN1998MRNO,2019-09-26-14-05-15,1,35,0.6340199320489687,left,probe,biased-switch,-1,-30,left,left,0.37
MHN1998MRNO,2019-09-26-14-05-15,1,36,0.5382147649662307,left,both,biased-switch,104,-30,left,left,1.232
MHN1998MRNO,2019-09-26-14-05-15,1,37,0.6590391224501606,right,probe,ambiguous-switch,-1,0,left,left,0.38
MHN1998MRNO,2019-09-26-14-05-15,1,38,0.69516285918179,right,both,ambiguous-switch,106,0,left,left,2.557
MHN1998MRNO,2019-09-26-14-05-15,1,39,0.5403053758721401,left,probe,ambiguous-switch,-1,5,left,left,1.493
MHN1998MRNO,2019-09-26-14-05-15,1,40,0.6279444342275107,left,both,ambiguous-switch,92,5,left,left,1.774
MHN1998MRNO,2019-09-26-14-05-15,1,41,0.5331546883433734,right,probe,biased-switch,-1,-10,left,left,1.432
MHN1998MRNO,2019-09-26-14-05-15,1,42,0.6996924969451981,right,both,biased-switch,98,-10,left,left,1.716
MHN1998MRNO,2019-09-26-14-05-15,1,43,0.5974092039252153,left,probe,ambiguous-stable,-1,-30,left,left,1.777
MHN1998MRNO,2019-09-26-14-05-15,1,44,0.5987274436612785,left,both,ambiguous-stable,93,-30,right,left,1.308
MHN1998MRNO,2019-09-26-14-05-15,1,45,0.5675309698115305,right,probe,ambiguous-stable,-1,-20,left,left,0.397
MHN1998MRNO,2019-09-26-14-05-15,1,46,0.6189362975002424,right,both,ambiguous-stable,93,-20,right,left,1.796
MHN1998MRNO,2019-09-26-14-05-15,1,47,0.6951274822055513,left,probe,biased-switch,-1,0,left,left,0.696
MHN1998MRNO,2019-09-26-14-05-15,1,48,0.6087810577885895,left,both,biased-switch,95,0,left,left,1.839
MHN1998MRNO,2019-09-26-14-05-15,1,49,0.5567233768492447,left,probe,ambiguous-switch,-1,-20,left,left,0.432
MHN1998MRNO,2019-09-26-14-05-15,1,50,0.606836411442419,left,both,ambiguous-switch,92,-20,left,left,2.833
MHN1998MRNO,2019-09-26-14-05-15,1,51,0.5649165564816789,right,probe,biased-switch,-1,20,left,left,0.958
MHN1998MRNO,2019-09-26-14-05-15,1,52,0.6955003762401575,right,both,biased-switch,99,20,left,left,1.213
MHN1998MRNO,2019-09-26-14-05-15,1,53,0.5269523221440137,left,probe,biased-switch,-1,10,left,left,0.955
MHN1998MRNO,2019-09-26-14-05-15,1,54,0.5055120131598039,left,both,biased-switch,93,10,left,left,0.972
MHN1998MRNO,2019-09-26-14-05-15,1,55,0.5473975376095348,right,probe,ambiguous-stable,-1,-10,left,left,1.092
MHN1998MRNO,2019-09-26-14-05-15,1,56,0.6723923679526991,right,both,ambiguous-stable,104,-10,right,left,0.641
MHN1998MRNO,2019-09-26-14-05-15,1,57,0.5989586353723204,right,probe,ambiguous-stable,-1,-5,left,left,1.611
MHN1998MRNO,2019-09-26-14-05-15,1,58,0.6268256378205845,right,both,ambiguous-stable,106,-5,right,left,0.652
MHN1998MRNO,2019-09-26-14-05-15,1,59,0.6020435804218502,right,probe,ambiguous-switch,-1,20,left,left,0.345
MHN1998MRNO,2019-09-26-14-05-15,1,60,0.5949981599606188,right,both,ambiguous-switch,102,20,left,left,10.605
MHN1998MRNO,2019-09-26-14-05-15,2,1,0.5346089186676769,right,probe,biased-switch,-1,30,left,left,1.379
MHN1998MRNO,2019-09-26-14-05-15,2,2,0.5342775925449172,right,both,biased-switch,95,30,left,left,1.312
MHN1998MRNO,2019-09-26-14-05-15,2,3,0.5125233112643902,left,probe,ambiguous-stable,-1,0,left,left,0.404
MHN1998MRNO,2019-09-26-14-05-15,2,4,0.5383447987503616,left,both,ambiguous-stable,93,0,right,left,0.313
MHN1998MRNO,2019-09-26-14-05-15,2,5,0.6106002766025846,right,probe,ambiguous-stable,-1,-5,left,left,0.373
MHN1998MRNO,2019-09-26-14-05-15,2,6,0.6679137699320536,right,both,ambiguous-stable,104,-5,right,left,0.289
MHN1998MRNO,2019-09-26-14-05-15,2,7,0.6373594762331216,left,probe,biased-switch,-1,-10,left,left,0.272
MHN1998MRNO,2019-09-26-14-05-15,2,8,0.523015823102134,left,both,biased-switch,94,-10,left,left,0.178
MHN1998MRNO,2019-09-26-14-05-15,2,9,0.5123192797486917,left,probe,ambiguous-switch,-1,30,left,left,0.27
MHN1998MRNO,2019-09-26-14-05-15,2,10,0.516687427304757,left,both,ambiguous-switch,92,30,left,right,0.052
MHN1998MRNO,2019-09-26-14-05-15,2,11,0.6296656626797963,right,probe,ambiguous-switch,-1,-10,left,left,0.302
MHN1998MRNO,2019-09-26-14-05-15,2,12,0.5998685102948318,right,both,ambiguous-switch,104,-10,left,right,0.194
MHN1998MRNO,2019-09-26-14-05-15,2,13,0.6545429024511518,left,probe,ambiguous-switch,-1,5,left,left,0.206
MHN1998MRNO,2019-09-26-14-05-15,2,14,0.626867744407593,left,both,ambiguous-switch,102,5,left,right,3.038
MHN1998MRNO,2019-09-26-14-05-15,2,15,0.529858468306718,left,probe,ambiguous-stable,-1,20,left,left,0.296
MHN1998MRNO,2019-09-26-14-05-15,2,16,0.5623566083030301,left,both,ambiguous-stable,92,20,right,left,0.247
MHN1998MRNO,2019-09-26-14-05-15,2,17,0.5093312932767671,left,probe,ambiguous-stable,-1,40,left,left,0.408
MHN1998MRNO,2019-09-26-14-05-15,2,18,0.5977313529133309,left,both,ambiguous-stable,99,40,right,left,0.215
MHN1998MRNO,2019-09-26-14-05-15,2,19,0.5664617632485642,left,probe,ambiguous-stable,-1,5,left,left,0.278
MHN1998MRNO,2019-09-26-14-05-15,2,20,0.5390834621909264,left,both,ambiguous-stable,109,5,right,left,0.2
MHN1998MRNO,2019-09-26-14-05-15,2,21,0.5796726953290731,left,probe,ambiguous-stable,-1,30,left,left,0.307
MHN1998MRNO,2019-09-26-14-05-15,2,22,0.5497668081680801,left,both,ambiguous-stable,93,30,right,left,0.29
MHN1998MRNO,2019-09-26-14-05-15,2,23,0.5616043122195759,left,probe,biased-switch,-1,-5,left,left,0.294
MHN1998MRNO,2019-09-26-14-05-15,2,24,0.6673106492522808,left,both,biased-switch,101,-5,left,left,0.251
MHN1998MRNO,2019-09-26-14-05-15,2,25,0.5820152347228872,right,probe,ambiguous-switch,-1,10,left,left,0.306
MHN1998MRNO,2019-09-26-14-05-15,2,26,0.6498100590591755,right,both,ambiguous-switch,107,10,left,right,0.229
MHN1998MRNO,2019-09-26-14-05-15,2,27,0.5077413061856236,left,probe,biased-switch,-1,-30,left,left,0.261
MHN1998MRNO,2019-09-26-14-05-15,2,28,0.5630670675498327,left,both,biased-switch,95,-30,left,left,1.205
MHN1998MRNO,2019-09-26-14-05-15,2,29,0.5975326305045847,right,probe,ambiguous-switch,-1,-5,left,left,0.217
MHN1998MRNO,2019-09-26-14-05-15,2,30,0.6275483695731863,right,both,ambiguous-switch,104,-5,left,right,0.223
MHN1998MRNO,2019-09-26-14-05-15,2,31,0.6166795336347298,right,probe,ambiguous-stable,-1,-20,right,right,0.284
MHN1998MRNO,2019-09-26-14-05-15,2,32,0.5726755264377856,right,both,ambiguous-stable,106,-20,left,right,0.261
MHN1998MRNO,2019-09-26-14-05-15,2,33,0.6941339706476647,left,probe,biased-switch,-1,10,left,left,0.187
MHN1998MRNO,2019-09-26-14-05-15,2,34,0.654706645324294,left,both,biased-switch,98,10,left,left,0.416
MHN1998MRNO,2019-09-26-14-05-15,2,35,0.5899312602004642,right,probe,ambiguous-stable,-1,10,left,left,0.27
MHN1998MRNO,2019-09-26-14-05-15,2,36,0.6020234199616263,right,both,ambiguous-stable,98,10,right,right,0.24
MHN1998MRNO,2019-09-26-14-05-15,2,37,0.6945792897032147,right,probe,ambiguous-switch,-1,-20,right,right,0.288
MHN1998MRNO,2019-09-26-14-05-15,2,38,0.6307529532530693,right,both,ambiguous-switch,93,-20,right,right,0.218
MHN1998MRNO,2019-09-26-14-05-15,2,39,0.6940510439698916,left,probe,ambiguous-switch,-1,0,left,left,0.187
MHN1998MRNO,2019-09-26-14-05-15,2,40,0.608094010094132,left,both,ambiguous-switch,97,0,left,left,0.206
MHN1998MRNO,2019-09-26-14-05-15,2,41,0.5615639518770958,right,probe,ambiguous-stable,-1,-30,right,right,0.276
MHN1998MRNO,2019-09-26-14-05-15,2,42,0.6694498402817617,right,both,ambiguous-stable,101,-30,left,right,0.253
MHN1998MRNO,2019-09-26-14-05-15,2,43,0.5247362458793299,left,probe,biased-switch,-1,20,left,left,0.222
MHN1998MRNO,2019-09-26-14-05-15,2,44,0.6100766459933298,left,both,biased-switch,108,20,left,left,0.229
MHN1998MRNO,2019-09-26-14-05-15,2,45,0.5832153798689929,right,probe,ambiguous-switch,-1,20,right,right,0.248
MHN1998MRNO,2019-09-26-14-05-15,2,46,0.6174623390997617,right,both,ambiguous-switch,108,20,right,right,0.286
MHN1998MRNO,2019-09-26-14-05-15,2,47,0.6111438448064658,right,probe,ambiguous-stable,-1,-10,right,right,0.271
MHN1998MRNO,2019-09-26-14-05-15,2,48,0.5993776724364889,right,both,ambiguous-stable,100,-10,left,right,0.052
MHN1998MRNO,2019-09-26-14-05-15,2,49,0.5934044094386448,left,probe,biased-switch,-1,0,left,left,0.385
MHN1998MRNO,2019-09-26-14-05-15,2,50,0.6582441765741964,left,both,biased-switch,104,0,left,right,0.358
MHN1998MRNO,2019-09-26-14-05-15,2,51,0.6504279847189507,right,probe,ambiguous-switch,-1,-30,right,right,0.26
MHN1998MRNO,2019-09-26-14-05-15,2,52,0.5216162888745737,right,both,ambiguous-switch,108,-30,right,right,0.26
MHN1998MRNO,2019-09-26-14-05-15,2,53,0.634886883667522,right,probe,biased-switch,-1,40,right,right,0.316
MHN1998MRNO,2019-09-26-14-05-15,2,54,0.599553532957481,right,both,biased-switch,92,40,right,right,0.252
MHN1998MRNO,2019-09-26-14-05-15,2,55,0.5280524891791463,left,probe,biased-switch,-1,5,left,left,0.315
MHN1998MRNO,2019-09-26-14-05-15,2,56,0.6768614090866597,left,both,biased-switch,104,5,left,right,0.403
MHN1998MRNO,2019-09-26-14-05-15,2,57,0.6172805134684324,left,probe,biased-switch,-1,-20,right,right,1.422
MHN1998MRNO,2019-09-26-14-05-15,2,58,0.5993917441223412,left,both,biased-switch,99,-20,right,right,0.276
MHN1998MRNO,2019-09-26-14-05-15,2,59,0.6637048663937267,left,probe,ambiguous-switch,-1,40,right,right,0.305
MHN1998MRNO,2019-09-26-14-05-15,2,60,0.6686176133392194,left,both,ambiguous-switch,95,40,right,left,0.436
MHN1998MRNO,2019-09-26-14-05-15,3,1,0.6568092569930282,right,probe,ambiguous-switch,-1,0,left,left,0.415
MHN1998MRNO,2019-09-26-14-05-15,3,2,0.6479295928458135,right,both,ambiguous-switch,93,0,left,right,0.265
MHN1998MRNO,2019-09-26-14-05-15,3,3,0.5147357824868991,right,probe,biased-switch,-1,-5,right,right,0.266
MHN1998MRNO,2019-09-26-14-05-15,3,4,0.5493202681660726,right,both,biased-switch,102,-5,right,left,0.264
MHN1998MRNO,2019-09-26-14-05-15,3,5,0.5618449521635978,right,probe,ambiguous-stable,-1,10,right,right,0.25
MHN1998MRNO,2019-09-26-14-05-15,3,6,0.6936004553360546,right,both,ambiguous-stable,102,10,left,right,0.242
MHN1998MRNO,2019-09-26-14-05-15,3,7,0.6571402763660313,right,probe,ambiguous-stable,-1,30,right,right,0.242
MHN1998MRNO,2019-09-26-14-05-15,3,8,0.5215543443641477,right,both,ambiguous-stable,96,30,left,right,0.262
MHN1998MRNO,2019-09-26-14-05-15,3,9,0.68833933314904,left,probe,ambiguous-stable,-1,20,right,right,0.28
MHN1998MRNO,2019-09-26-14-05-15,3,10,0.6950019866481422,left,both,ambiguous-stable,100,20,left,right,0.222
MHN1998MRNO,2019-09-26-14-05-15,3,11,0.5465525224944074,right,probe,ambiguous-switch,-1,-10,right,right,0.268
MHN1998MRNO,2019-09-26-14-05-15,3,12,0.6478112427298998,right,both,ambiguous-switch,94,-10,right,left,0.252
MHN1998MRNO,2019-09-26-14-05-15,3,13,0.503366264756883,right,probe,ambiguous-switch,-1,-30,right,right,0.275
MHN1998MRNO,2019-09-26-14-05-15,3,14,0.6443410307138602,right,both,ambiguous-switch,104,-30,right,right,0.289
MHN1998MRNO,2019-09-26-14-05-15,3,15,0.6744303176784086,right,probe,biased-switch,-1,-30,right,right,0.24
MHN1998MRNO,2019-09-26-14-05-15,3,16,0.510861087450181,right,both,biased-switch,98,-30,right,right,0.229
MHN1998MRNO,2019-09-26-14-05-15,3,17,0.695061943407107,right,probe,biased-switch,-1,30,right,right,0.244
MHN1998MRNO,2019-09-26-14-05-15,3,18,0.6123644356447231,right,both,biased-switch,96,30,right,right,0.123
MHN1998MRNO,2019-09-26-14-05-15,3,19,0.6089564638059244,right,probe,biased-switch,-1,5,right,right,0.344
MHN1998MRNO,2019-09-26-14-05-15,3,20,0.5100479674207482,right,both,biased-switch,92,5,right,left,0.395
MHN1998MRNO,2019-09-26-14-05-15,3,21,0.6079622036049415,right,probe,biased-switch,-1,40,right,right,0.334
MHN1998MRNO,2019-09-26-14-05-15,3,22,0.6091218753150933,right,both,biased-switch,94,40,right,right,0.391
MHN1998MRNO,2019-09-26-14-05-15,3,23,0.5938087709864058,left,probe,ambiguous-switch,-1,40,right,right,0.271
MHN1998MRNO,2019-09-26-14-05-15,3,24,0.5409327136696469,left,both,ambiguous-switch,104,40,right,right,0.284
MHN1998MRNO,2019-09-26-14-05-15,3,25,0.6481671487217214,right,probe,ambiguous-stable,-1,40,right,right,1.023
MHN1998MRNO,2019-09-26-14-05-15,3,26,0.5540655812843085,right,both,ambiguous-stable,95,40,left,right,0.272
MHN1998MRNO,2019-09-26-14-05-15,3,27,0.640235354044054,right,probe,ambiguous-stable,-1,5,right,right,0.262
MHN1998MRNO,2019-09-26-14-05-15,3,28,0.6280363211606705,right,both,ambiguous-stable,100,5,left,right,0.25
MHN1998MRNO,2019-09-26-14-05-15,3,29,0.5194639531391689,left,probe,biased-switch,-1,20,right,right,0.264
MHN1998MRNO,2019-09-26-14-05-15,3,30,0.5164153813982076,left,both,biased-switch,107,20,right,left,0.288
MHN1998MRNO,2019-09-26-14-05-15,3,31,0.5952909181924195,right,probe,ambiguous-switch,-1,-20,right,right,0.261
MHN1998MRNO,2019-09-26-14-05-15,3,32,0.6518465135866639,right,both,ambiguous-switch,95,-20,right,right,0.237
MHN1998MRNO,2019-09-26-14-05-15,3,33,0.615276092040975,left,probe,biased-switch,-1,10,right,right,0.253
MHN1998MRNO,2019-09-26-14-05-15,3,34,0.5486392778605432,left,both,biased-switch,94,10,right,left,0.642
MHN1998MRNO,2019-09-26-14-05-15,3,35,0.6878871901798658,right,probe,ambiguous-stable,-1,-10,right,right,0.917
MHN1998MRNO,2019-09-26-14-05-15,3,36,0.683237175007762,right,both,ambiguous-stable,108,-10,left,right,0.361
MHN1998MRNO,2019-09-26-14-05-15,3,37,0.5930182668468099,right,probe,ambiguous-stable,-1,0,right,right,0.548
MHN1998MRNO,2019-09-26-14-05-15,3,38,0.5653479731328581,right,both,ambiguous-stable,98,0,left,right,0.228
MHN1998MRNO,2019-09-26-14-05-15,3,39,0.5145971094789409,left,probe,ambiguous-switch,-1,30,left,left,1.183
MHN1998MRNO,2019-09-26-14-05-15,3,40,0.5062321041253401,left,both,ambiguous-switch,106,30,left,left,0.24
MHN1998MRNO,2019-09-26-14-05-15,3,41,0.5108861288148858,left,probe,ambiguous-stable,-1,-5,left,left,0.394
MHN1998MRNO,2019-09-26-14-05-15,3,42,0.5023444341789219,left,both,ambiguous-stable,107,-5,right,left,0.344
MHN1998MRNO,2019-09-26-14-05-15,3,43,0.5084579211767374,right,probe,ambiguous-switch,-1,5,right,right,0.273
MHN1998MRNO,2019-09-26-14-05-15,3,44,0.6496910790104559,right,both,ambiguous-switch,103,5,right,left,0.277
MHN1998MRNO,2019-09-26-14-05-15,3,45,0.5475427817011165,right,probe,biased-switch,-1,-20,right,right,0.303
MHN1998MRNO,2019-09-26-14-05-15,3,46,0.5220787636239285,right,both,biased-switch,104,-20,right,right,0.293
MHN1998MRNO,2019-09-26-14-05-15,3,47,0.6205884375690938,left,probe,biased-switch,-1,0,right,right,0.249
MHN1998MRNO,2019-09-26-14-05-15,3,48,0.6533259784352315,left,both,biased-switch,99,0,right,left,0.231
MHN1998MRNO,2019-09-26-14-05-15,3,49,0.5763180238026785,right,probe,ambiguous-stable,-1,-30,right,right,0.211
MHN1998MRNO,2019-09-26-14-05-15,3,50,0.5174705284847317,right,both,ambiguous-stable,94,-30,left,right,0.24
MHN1998MRNO,2019-09-26-14-05-15,3,51,0.5919928121393488,right,probe,ambiguous-switch,-1,20,right,right,0.211
MHN1998MRNO,2019-09-26-14-05-15,3,52,0.5407407845172427,right,both,ambiguous-switch,110,20,right,right,0.212
MHN1998MRNO,2019-09-26-14-05-15,3,53,0.6650330320220679,left,probe,biased-switch,-1,-10,right,right,0.277
MHN1998MRNO,2019-09-26-14-05-15,3,54,0.6008247037250648,left,both,biased-switch,105,-10,right,right,0.176
MHN1998MRNO,2019-09-26-14-05-15,3,55,0.5120676680632764,right,probe,ambiguous-switch,-1,-5,right,right,0.222
MHN1998MRNO,2019-09-26-14-05-15,3,56,0.5074491680403929,right,both,ambiguous-switch,102,-5,right,right,0.145
MHN1998MRNO,2019-09-26-14-05-15,3,57,0.6489693015637812,right,probe,ambiguous-stable,-1,-20,right,right,0.241
MHN1998MRNO,2019-09-26-14-05-15,3,58,0.5014029758510763,right,both,ambiguous-stable,102,-20,left,right,0.22
MHN1998MRNO,2019-09-26-14-05-15,3,59,0.5307969466834417,right,probe,ambiguous-switch,-1,10,right,right,0.263
MHN1998MRNO,2019-09-26-14-05-15,3,60,0.5382931548760308,right,both,ambiguous-switch,93,10,right,right,0.274
MHN1998MRNO,2019-09-26-14-05-15,4,1,0.639598845431944,right,probe,ambiguous-switch,-1,-5,right,right,0.328
MHN1998MRNO,2019-09-26-14-05-15,4,2,0.5043305446067586,right,both,ambiguous-switch,107,-5,right,left,0.269
MHN1998MRNO,2019-09-26-14-05-15,4,3,0.5441456549165176,right,probe,ambiguous-stable,-1,10,right,right,0.221
MHN1998MRNO,2019-09-26-14-05-15,4,4,0.6518169521687324,right,both,ambiguous-stable,106,10,left,right,0.207
MHN1998MRNO,2019-09-26-14-05-15,4,5,0.6871165004708233,right,probe,biased-switch,-1,20,right,right,0.215
MHN1998MRNO,2019-09-26-14-05-15,4,6,0.537974421171305,right,both,biased-switch,99,20,right,right,0.263
MHN1998MRNO,2019-09-26-14-05-15,4,7,0.6231726882840395,left,probe,biased-switch,-1,-10,right,right,0.219
MHN1998MRNO,2019-09-26-14-05-15,4,8,0.6622071025275347,left,both,biased-switch,108,-10,right,left,0.275
MHN1998MRNO,2019-09-26-14-05-15,4,9,0.6244955323729741,right,probe,ambiguous-switch,-1,40,right,right,0.213
MHN1998MRNO,2019-09-26-14-05-15,4,10,0.5929530963018841,right,both,ambiguous-switch,104,40,right,right,0.212
MHN1998MRNO,2019-09-26-14-05-15,4,11,0.6886008052912865,left,probe,ambiguous-stable,-1,-20,right,right,0.326
MHN1998MRNO,2019-09-26-14-05-15,4,12,0.6935355541645524,left,both,ambiguous-stable,104,-20,left,right,0.25
MHN1998MRNO,2019-09-26-14-05-15,4,13,0.5798484508028661,left,probe,ambiguous-switch,-1,5,right,right,0.219
MHN1998MRNO,2019-09-26-14-05-15,4,14,0.6360510699726086,left,both,ambiguous-switch,95,5,right,left,0.3
MHN1998MRNO,2019-09-26-14-05-15,4,15,0.5414220980413469,left,probe,biased-switch,-1,5,left,left,0.298
MHN1998MRNO,2019-09-26-14-05-15,4,16,0.522634045140933,left,both,biased-switch,102,5,left,right,0.283
MHN1998MRNO,2019-09-26-14-05-15,4,17,0.6301185648085308,left,probe,ambiguous-switch,-1,-20,right,right,0.228
MHN1998MRNO,2019-09-26-14-05-15,4,18,0.5199678026747997,left,both,ambiguous-switch,92,-20,right,right,0.225
MHN1998MRNO,2019-09-26-14-05-15,4,19,0.6158932524773274,right,probe,biased-switch,-1,0,right,right,0.188
MHN1998MRNO,2019-09-26-14-05-15,4,20,0.5829723964718303,right,both,biased-switch,105,0,right,left,0.234
MHN1998MRNO,2019-09-26-14-05-15,4,21,0.6496975228849632,left,probe,biased-switch,-1,40,right,right,0.265
MHN1998MRNO,2019-09-26-14-05-15,4,22,0.502600044627401,left,both,biased-switch,94,40,right,right,0.264
MHN1998MRNO,2019-09-26-14-05-15,4,23,0.5965469654156602,right,probe,ambiguous-switch,-1,-30,right,right,0.717
MHN1998MRNO,2019-09-26-14-05-15,4,24,0.569316380551844,right,both,ambiguous-switch,102,-30,right,left,0.309
MHN1998MRNO,2019-09-26-14-05-15,4,25,0.6847577118574276,left,probe,ambiguous-stable,-1,0,right,right,0.256
MHN1998MRNO,2019-09-26-14-05-15,4,26,0.5976732226129419,left,both,ambiguous-stable,109,0,left,right,0.334
MHN1998MRNO,2019-09-26-14-05-15,4,27,0.5725027838709067,left,probe,biased-switch,-1,30,right,right,0.411
MHN1998MRNO,2019-09-26-14-05-15,4,28,0.6878117231542478,left,both,biased-switch,106,30,right,right,0.239
MHN1998MRNO,2019-09-26-14-05-15,4,29,0.6505546152262556,right,probe,ambiguous-stable,-1,-5,left,left,0.335
MHN1998MRNO,2019-09-26-14-05-15,4,30,0.5993232560091588,right,both,ambiguous-stable,95,-5,right,left,0.244
MHN1998MRNO,2019-09-26-14-05-15,4,31,0.6687854057465652,left,probe,ambiguous-switch,-1,10,right,right,0.266
MHN1998MRNO,2019-09-26-14-05-15,4,32,0.5666858668571987,left,both,ambiguous-switch,102,10,right,left,0.539
MHN1998MRNO,2019-09-26-14-05-15,4,33,0.625192149839924,left,probe,biased-switch,-1,-5,right,right,0.332
MHN1998MRNO,2019-09-26-14-05-15,4,34,0.6776616765446558,left,both,biased-switch,100,-5,right,right,0.334
MHN1998MRNO,2019-09-26-14-05-15,4,35,0.517971224074844,right,probe,ambiguous-stable,-1,-10,right,right,0.213
MHN1998MRNO,2019-09-26-14-05-15,4,36,0.6139807136334373,right,both,ambiguous-stable,97,-10,left,left,0.286
MHN1998MRNO,2019-09-26-14-05-15,4,37,0.5389687722544432,right,probe,ambiguous-switch,-1,-10,left,left,0.215
MHN1998MRNO,2019-09-26-14-05-15,4,38,0.5096670089911749,right,both,ambiguous-switch,110,-10,left,left,0.351
MHN1998MRNO,2019-09-26-14-05-15,4,39,0.6840074137260359,left,probe,biased-switch,-1,-30,left,left,0.996
MHN1998MRNO,2019-09-26-14-05-15,4,40,0.5051263644945718,left,both,biased-switch,105,-30,left,left,0.789
MHN1998MRNO,2019-09-26-14-05-15,4,41,0.597569319652109,left,probe,biased-switch,-1,-20,left,left,0.418
MHN1998MRNO,2019-09-26-14-05-15,4,42,0.6285698015883775,left,both,biased-switch,105,-20,left,left,0.371
MHN1998MRNO,2019-09-26-14-05-15,4,43,0.5176163228094264,right,probe,ambiguous-stable,-1,30,left,left,0.315
MHN1998MRNO,2019-09-26-14-05-15,4,44,0.5284042085244761,right,both,ambiguous-stable,104,30,right,left,0.38
MHN1998MRNO,2019-09-26-14-05-15,4,45,0.5460972672022416,left,probe,ambiguous-stable,-1,5,left,left,0.945
MHN1998MRNO,2019-09-26-14-05-15,4,46,0.6640600436869976,left,both,ambiguous-stable,105,5,right,left,0.332
MHN1998MRNO,2019-09-26-14-05-15,4,47,0.6896644316995884,left,probe,biased-switch,-1,10,left,left,0.264
MHN1998MRNO,2019-09-26-14-05-15,4,48,0.5493979346417207,left,both,biased-switch,108,10,left,right,0.242
MHN1998MRNO,2019-09-26-14-05-15,4,49,0.5309747569918439,left,probe,ambiguous-switch,-1,20,left,left,0.308
MHN1998MRNO,2019-09-26-14-05-15,4,50,0.6265338777935191,left,both,ambiguous-switch,94,20,left,right,0.285
MHN1998MRNO,2019-09-26-14-05-15,4,51,0.6274219210012874,left,probe,ambiguous-switch,-1,30,left,left,0.373
MHN1998MRNO,2019-09-26-14-05-15,4,52,0.5894724135366145,left,both,ambiguous-switch,105,30,left,right,0.288
MHN1998MRNO,2019-09-26-14-05-15,4,53,0.6107902185963657,right,probe,ambiguous-stable,-1,40,left,left,0.254
MHN1998MRNO,2019-09-26-14-05-15,4,54,0.5908322019116345,right,both,ambiguous-stable,103,40,right,left,0.263
MHN1998MRNO,2019-09-26-14-05-15,4,55,0.603310634485075,left,probe,ambiguous-switch,-1,0,left,left,0.225
MHN1998MRNO,2019-09-26-14-05-15,4,56,0.6025225640004068,left,both,ambiguous-switch,97,0,left,left,0.295
MHN1998MRNO,2019-09-26-14-05-15,4,57,0.5955568303869395,left,probe,ambiguous-stable,-1,20,left,left,0.235
MHN1998MRNO,2019-09-26-14-05-15,4,58,0.5381712729137946,left,both,ambiguous-stable,106,20,right,left,0.271
MHN1998MRNO,2019-09-26-14-05-15,4,59,0.5944895448265212,right,probe,ambiguous-stable,-1,-30,left,left,0.184
MHN1998MRNO,2019-09-26-14-05-15,4,60,0.6993276704937846,right,both,ambiguous-stable,92,-30,right,left,0.227
MHN1998MRNO,2019-09-26-14-05-15,5,1,0.5146404254968763,right,probe,biased-switch,-1,20,left,left,0.297
MHN1998MRNO,2019-09-26-14-05-15,5,2,0.6322139133203855,right,both,biased-switch,97,20,left,left,0.234
MHN1998MRNO,2019-09-26-14-05-15,5,3,0.5785993114767255,right,probe,biased-switch,-1,40,left,left,0.243
MHN1998MRNO,2019-09-26-14-05-15,5,4,0.5652752181302337,right,both,biased-switch,103,40,left,left,0.223
MHN1998MRNO,2019-09-26-14-05-15,5,5,0.6733673664509683,right,probe,ambiguous-stable,-1,-10,left,left,0.23
MHN1998MRNO,2019-09-26-14-05-15,5,6,0.6615183265645956,right,both,ambiguous-stable,91,-10,right,left,0.221
MHN1998MRNO,2019-09-26-14-05-15,5,7,0.5340351203022277,left,probe,ambiguous-stable,-1,20,left,left,0.226
MHN1998MRNO,2019-09-26-14-05-15,5,8,0.5339307468045025,left,both,ambiguous-stable,91,20,right,left,0.208
MHN1998MRNO,2019-09-26-14-05-15,5,9,0.6240940527633093,left,probe,ambiguous-switch,-1,40,left,left,0.373
MHN1998MRNO,2019-09-26-14-05-15,5,10,0.5315926389741261,left,both,ambiguous-switch,93,40,left,left,0.267
MHN1998MRNO,2019-09-26-14-05-15,5,11,0.5973468562332178,right,probe,ambiguous-switch,-1,0,left,left,0.247
MHN1998MRNO,2019-09-26-14-05-15,5,12,0.5051264283236779,right,both,ambiguous-switch,108,0,left,right,0.308
MHN1998MRNO,2019-09-26-14-05-15,5,13,0.6130850206154707,right,probe,ambiguous-stable,-1,10,left,left,0.25
MHN1998MRNO,2019-09-26-14-05-15,5,14,0.6284897688662431,right,both,ambiguous-stable,104,10,right,left,0.239
MHN1998MRNO,2019-09-26-14-05-15,5,15,0.5614422717193572,left,probe,ambiguous-stable,-1,40,left,left,0.24
MHN1998MRNO,2019-09-26-14-05-15,5,16,0.5192207919277567,left,both,ambiguous-stable,100,40,right,left,0.319
MHN1998MRNO,2019-09-26-14-05-15,5,17,0.5598773515149809,right,probe,ambiguous-stable,-1,-30,left,left,0.266
MHN1998MRNO,2019-09-26-14-05-15,5,18,0.6748199911667565,right,both,ambiguous-stable,96,-30,right,left,0.281
MHN1998MRNO,2019-09-26-14-05-15,5,19,0.6782334538646271,left,probe,ambiguous-stable,-1,-20,left,left,0.261
MHN1998MRNO,2019-09-26-14-05-15,5,20,0.6711546579219604,left,both,ambiguous-stable,101,-20,right,left,0.276
MHN1998MRNO,2019-09-26-14-05-15,5,21,0.523305441689486,left,probe,biased-switch,-1,5,left,left,0.289
MHN1998MRNO,2019-09-26-14-05-15,5,22,0.621200697776948,left,both,biased-switch,103,5,left,right,0.262
MHN1998MRNO,2019-09-26-14-05-15,5,23,0.5109067279459937,right,probe,ambiguous-switch,-1,-20,left,left,0.269
MHN1998MRNO,2019-09-26-14-05-15,5,24,0.6231824053389947,right,both,ambiguous-switch,97,-20,left,left,0.27
MHN1998MRNO,2019-09-26-14-05-15,5,25,0.6112287283424339,right,probe,ambiguous-stable,-1,30,left,left,0.576
MHN1998MRNO,2019-09-26-14-05-15,5,26,0.524890262893789,right,both,ambiguous-stable,97,30,right,left,0.342
MHN1998MRNO,2019-09-26-14-05-15,5,27,0.616874417293167,left,probe,biased-switch,-1,30,left,left,0.521
MHN1998MRNO,2019-09-26-14-05-15,5,28,0.6214234331567441,left,both,biased-switch,94,30,left,left,0.367
MHN1998MRNO,2019-09-26-14-05-15,5,29,0.5043396846129826,left,probe,biased-switch,-1,-5,left,left,1.0
MHN1998MRNO,2019-09-26-14-05-15,5,30,0.5620791423330873,left,both,biased-switch,94,-5,left,left,0.335
MHN1998MRNO,2019-09-26-14-05-15,5,31,0.6319625312999597,right,probe,ambiguous-switch,-1,30,left,left,0.412
MHN1998MRNO,2019-09-26-14-05-15,5,32,0.6198346196750707,right,both,ambiguous-switch,91,30,left,left,0.245
MHN1998MRNO,2019-09-26-14-05-15,5,33,0.6309919266336428,left,probe,ambiguous-stable,-1,0,left,left,0.294
MHN1998MRNO,2019-09-26-14-05-15,5,34,0.5144819073345356,left,both,ambiguous-stable,98,0,right,left,0.314
MHN1998MRNO,2019-09-26-14-05-15,5,35,0.5442286238563224,right,probe,ambiguous-switch,-1,-30,left,left,0.31
MHN1998MRNO,2019-09-26-14-05-15,5,36,0.645214786480645,right,both,ambiguous-switch,109,-30,left,left,0.144
MHN1998MRNO,2019-09-26-14-05-15,5,37,0.6041422466792011,right,probe,ambiguous-switch,-1,5,left,left,0.196
MHN1998MRNO,2019-09-26-14-05-15,5,38,0.5167380444528229,right,both,ambiguous-switch,102,5,left,left,0.049
MHN1998MRNO,2019-09-26-14-05-15,5,39,0.6504542657993292,right,probe,ambiguous-switch,-1,-5,left,left,0.313
MHN1998MRNO,2019-09-26-14-05-15,5,40,0.5379200676580044,right,both,ambiguous-switch,94,-5,left,left,0.355
MHN1998MRNO,2019-09-26-14-05-15,5,41,0.5100701384463755,right,probe,ambiguous-switch,-1,10,left,left,0.317
MHN1998MRNO,2019-09-26-14-05-15,5,42,0.5733085220197882,right,both,ambiguous-switch,95,10,left,left,0.325
MHN1998MRNO,2019-09-26-14-05-15,5,43,0.6672436773485373,right,probe,biased-switch,-1,0,left,left,0.209
MHN1998MRNO,2019-09-26-14-05-15,5,44,0.6035725096936669,right,both,biased-switch,98,0,left,left,0.263
MHN1998MRNO,2019-09-26-14-05-15,5,45,0.6640000983272286,right,probe,ambiguous-switch,-1,20,left,left,0.327
MHN1998MRNO,2019-09-26-14-05-15,5,46,0.5749517640233746,right,both,ambiguous-switch,100,20,left,left,0.267
MHN1998MRNO,2019-09-26-14-05-15,5,47,0.639108244787944,left,probe,biased-switch,-1,-10,left,left,0.362
MHN1998MRNO,2019-09-26-14-05-15,5,48,0.5768269227862105,left,both,biased-switch,96,-10,left,left,0.457
MHN1998MRNO,2019-09-26-14-05-15,5,49,0.5258504450521128,right,probe,biased-switch,-1,-30,left,left,0.491
MHN1998MRNO,2019-09-26-14-05-15,5,50,0.6432695205425238,right,both,biased-switch,102,-30,left,left,0.385
MHN1998MRNO,2019-09-26-14-05-15,5,51,0.6831826775998827,left,probe,ambiguous-stable,-1,-5,left,left,0.42
MHN1998MRNO,2019-09-26-14-05-15,5,52,0.6161989169495383,left,both,ambiguous-stable,93,-5,right,left,0.51
MHN1998MRNO,2019-09-26-14-05-15,5,53,0.5981407686057532,right,probe,ambiguous-stable,-1,5,left,left,0.382
MHN1998MRNO,2019-09-26-14-05-15,5,54,0.5498962889275762,right,both,ambiguous-stable,95,5,right,left,0.38
MHN1998MRNO,2019-09-26-14-05-15,5,55,0.6545585730329165,right,probe,biased-switch,-1,-20,left,left,0.447
MHN1998MRNO,2019-09-26-14-05-15,5,56,0.5374682496967778,right,both,biased-switch,91,-20,left,left,0.3
MHN1998MRNO,2019-09-26-14-05-15,5,57,0.5496596604459943,right,probe,ambiguous-switch,-1,-10,left,left,0.341
MHN1998MRNO,2019-09-26-14-05-15,5,58,0.5938706061372067,right,both,ambiguous-switch,100,-10,left,left,0.248
MHN1998MRNO,2019-09-26-14-05-15,5,59,0.5001605978539222,right,probe,biased-switch,-1,10,left,left,0.355
MHN1998MRNO,2019-09-26-14-05-15,5,60,0.682757576827924,right,both,biased-switch,96,10,left,left,0.35
MHN1998MRNO,2019-09-26-14-05-15,6,1,0.500001485709663,left,probe,ambiguous-switch,-1,-10,left,left,0.283
MHN1998MRNO,2019-09-26-14-05-15,6,2,0.6061418197504643,left,both,ambiguous-switch,110,-10,left,left,0.278
MHN1998MRNO,2019-09-26-14-05-15,6,3,0.6404945264168196,right,probe,biased-switch,-1,40,left,left,0.658
MHN1998MRNO,2019-09-26-14-05-15,6,4,0.5555879372603049,right,both,biased-switch,92,40,left,left,0.258
MHN1998MRNO,2019-09-26-14-05-15,6,5,0.5268605877662853,right,probe,biased-switch,-1,5,left,left,0.259
MHN1998MRNO,2019-09-26-14-05-15,6,6,0.6446548975619142,right,both,biased-switch,101,5,left,left,0.184
MHN1998MRNO,2019-09-26-14-05-15,6,7,0.645883048851279,right,probe,ambiguous-switch,-1,-30,left,left,0.235
MHN1998MRNO,2019-09-26-14-05-15,6,8,0.6413104858581933,right,both,ambiguous-switch,94,-30,left,left,0.267
MHN1998MRNO,2019-09-26-14-05-15,6,9,0.5746793579961419,left,probe,ambiguous-stable,-1,5,left,left,0.252
MHN1998MRNO,2019-09-26-14-05-15,6,10,0.6824007480604175,left,both,ambiguous-stable,104,5,right,left,0.281
MHN1998MRNO,2019-09-26-14-05-15,6,11,0.6383139281329897,right,probe,biased-switch,-1,30,left,left,0.296
MHN1998MRNO,2019-09-26-14-05-15,6,12,0.6254567790937781,right,both,biased-switch,92,30,left,left,0.437
MHN1998MRNO,2019-09-26-14-05-15,6,13,0.6709336608687251,left,probe,ambiguous-stable,-1,40,left,left,0.404
MHN1998MRNO,2019-09-26-14-05-15,6,14,0.6012915495751192,left,both,ambiguous-stable,93,40,right,left,0.359
MHN1998MRNO,2019-09-26-14-05-15,6,15,0.5610791915148061,right,probe,ambiguous-switch,-1,30,left,left,0.442
MHN1998MRNO,2019-09-26-14-05-15,6,16,0.6415722562389945,right,both,ambiguous-switch,96,30,left,left,0.272
MHN1998MRNO,2019-09-26-14-05-15,6,17,0.5195653080261121,right,probe,biased-switch,-1,0,left,left,0.301
MHN1998MRNO,2019-09-26-14-05-15,6,18,0.5256314468460289,right,both,biased-switch,91,0,left,left,0.326
MHN1998MRNO,2019-09-26-14-05-15,6,19,0.5924384617373313,right,probe,ambiguous-stable,-1,20,left,left,0.311
MHN1998MRNO,2019-09-26-14-05-15,6,20,0.6196489842439248,right,both,ambiguous-stable,92,20,right,left,0.305
MHN1998MRNO,2019-09-26-14-05-15,6,21,0.567271992195994,right,probe,ambiguous-switch,-1,-20,left,left,0.282
MHN1998MRNO,2019-09-26-14-05-15,6,22,0.5825517959103301,right,both,ambiguous-switch,99,-20,left,left,0.352
MHN1998MRNO,2019-09-26-14-05-15,6,23,0.5577917752512968,right,probe,ambiguous-stable,-1,-30,left,left,0.692
MHN1998MRNO,2019-09-26-14-05-15,6,24,0.5779880120239502,right,both,ambiguous-stable,91,-30,right,left,0.446
MHN1998MRNO,2019-09-26-14-05-15,6,25,0.5627296234030041,left,probe,ambiguous-switch,-1,10,left,left,1.278
MHN1998MRNO,2019-09-26-14-05-15,6,26,0.5890001721319378,left,both,ambiguous-switch,98,10,left,right,0.269
MHN1998MRNO,2019-09-26-14-05-15,6,27,0.5849393573442783,left,probe,ambiguous-switch,-1,40,left,left,0.265
MHN1998MRNO,2019-09-26-14-05-15,6,28,0.597316267596284,left,both,ambiguous-switch,99,40,left,right,0.336
MHN1998MRNO,2019-09-26-14-05-15,6,29,0.5384491548571739,right,probe,ambiguous-switch,-1,5,left,left,0.296
MHN1998MRNO,2019-09-26-14-05-15,6,30,0.5108254757549497,right,both,ambiguous-switch,101,5,left,left,0.263
MHN1998MRNO,2019-09-26-14-05-15,6,31,0.5657088077385684,right,probe,ambiguous-stable,-1,-10,left,left,0.249
MHN1998MRNO,2019-09-26-14-05-15,6,32,0.591299130362442,right,both,ambiguous-stable,92,-10,right,left,0.216
MHN1998MRNO,2019-09-26-14-05-15,6,33,0.6455974738859366,left,probe,ambiguous-stable,-1,10,left,left,0.302
MHN1998MRNO,2019-09-26-14-05-15,6,34,0.5973364998076824,left,both,ambiguous-stable,100,10,right,left,0.186
MHN1998MRNO,2019-09-26-14-05-15,6,35,0.624869749050722,left,probe,ambiguous-stable,-1,30,left,left,0.382
MHN1998MRNO,2019-09-26-14-05-15,6,36,0.5882132335717832,left,both,ambiguous-stable,98,30,right,left,0.383
MHN1998MRNO,2019-09-26-14-05-15,6,37,0.5423281410272045,right,probe,ambiguous-switch,-1,0,left,left,0.276
MHN1998MRNO,2019-09-26-14-05-15,6,38,0.5142364282625125,right,both,ambiguous-switch,93,0,left,right,0.358
MHN1998MRNO,2019-09-26-14-05-15,6,39,0.5632686347389162,left,probe,biased-switch,-1,20,left,left,0.258
MHN1998MRNO,2019-09-26-14-05-15,6,40,0.5753635892569012,left,both,biased-switch,90,20,left,right,0.276
MHN1998MRNO,2019-09-26-14-05-15,6,41,0.505585411211956,right,probe,ambiguous-stable,-1,-5,right,right,0.259
MHN1998MRNO,2019-09-26-14-05-15,6,42,0.5790473137269687,right,both,ambiguous-stable,92,-5,left,right,0.259
MHN1998MRNO,2019-09-26-14-05-15,6,43,0.6590023246984779,left,probe,ambiguous-stable,-1,-20,left,left,0.299
MHN1998MRNO,2019-09-26-14-05-15,6,44,0.6426395358771377,left,both,ambiguous-stable,99,-20,right,right,0.27
MHN1998MRNO,2019-09-26-14-05-15,6,45,0.5967090183798378,left,probe,ambiguous-stable,-1,0,right,right,0.29
MHN1998MRNO,2019-09-26-14-05-15,6,46,0.6446560904399576,left,both,ambiguous-stable,100,0,left,right,0.244
MHN1998MRNO,2019-09-26-14-05-15,6,47,0.6378023115444399,right,probe,biased-switch,-1,-30,right,right,0.286
MHN1998MRNO,2019-09-26-14-05-15,6,48,0.6627604330552352,right,both,biased-switch,104,-30,right,right,0.267
MHN1998MRNO,2019-09-26-14-05-15,6,49,0.6451163940008136,left,probe,ambiguous-switch,-1,-5,right,right,0.252
MHN1998MRNO,2019-09-26-14-05-15,6,50,0.6472920891120191,left,both,ambiguous-switch,93,-5,right,right,0.258
MHN1998MRNO,2019-09-26-14-05-15,6,51,0.5707609554821544,right,probe,ambiguous-switch,-1,20,right,right,0.573
MHN1998MRNO,2019-09-26-14-05-15,6,52,0.6140332425570607,right,both,ambiguous-switch,100,20,right,right,0.313
MHN1998MRNO,2019-09-26-14-05-15,6,53,0.678796603167385,right,probe,biased-switch,-1,-10,right,right,0.345
MHN1998MRNO,2019-09-26-14-05-15,6,54,0.5725731623487734,right,both,biased-switch,106,-10,right,right,0.215
MHN1998MRNO,2019-09-26-14-05-15,6,55,0.5978095424818298,right,probe,biased-switch,-1,-20,right,right,0.311
MHN1998MRNO,2019-09-26-14-05-15,6,56,0.6179064622287378,right,both,biased-switch,101,-20,right,right,0.255
MHN1998MRNO,2019-09-26-14-05-15,6,57,0.6846650108146844,left,probe,biased-switch,-1,-5,right,right,0.274
MHN1998MRNO,2019-09-26-14-05-15,6,58,0.6429874682383901,left,both,biased-switch,108,-5,right,right,0.268
MHN1998MRNO,2019-09-26-14-05-15,6,59,0.5789860875919357,right,probe,biased-switch,-1,10,right,right,0.288
MHN1998MRNO,2019-09-26-14-05-15,6,60,0.5369019575760152,right,both,biased-switch,93,10,right,right,0.863
MHN1998MRNO,2019-09-26-14-05-15,7,1,0.6330114871536869,right,probe,biased-switch,-1,-30,right,right,0.297
MHN1998MRNO,2019-09-26-14-05-15,7,2,0.5665799151460864,right,both,biased-switch,96,-30,right,right,0.238
MHN1998MRNO,2019-09-26-14-05-15,7,3,0.5349294560154831,left,probe,biased-switch,-1,40,right,right,0.258
MHN1998MRNO,2019-09-26-14-05-15,7,4,0.6435800759230426,left,both,biased-switch,104,40,right,right,0.221
MHN1998MRNO,2019-09-26-14-05-15,7,5,0.6814379844768012,right,probe,ambiguous-stable,-1,-10,right,right,0.194
MHN1998MRNO,2019-09-26-14-05-15,7,6,0.6343716502829491,right,both,ambiguous-stable,94,-10,left,right,0.258
MHN1998MRNO,2019-09-26-14-05-15,7,7,0.6349974792825874,right,probe,ambiguous-stable,-1,10,right,right,0.22
MHN1998MRNO,2019-09-26-14-05-15,7,8,0.6700729340010074,right,both,ambiguous-stable,110,10,left,right,0.243
MHN1998MRNO,2019-09-26-14-05-15,7,9,0.6647458851918988,left,probe,biased-switch,-1,-20,right,right,0.219
MHN1998MRNO,2019-09-26-14-05-15,7,10,0.5656791968803567,left,both,biased-switch,98,-20,right,right,0.281
MHN1998MRNO,2019-09-26-14-05-15,7,11,0.5141617119936425,right,probe,ambiguous-stable,-1,20,right,right,0.225
MHN1998MRNO,2019-09-26-14-05-15,7,12,0.687273357819415,right,both,ambiguous-stable,104,20,left,right,0.217
MHN1998MRNO,2019-09-26-14-05-15,7,13,0.6389943700427275,right,probe,ambiguous-stable,-1,0,right,right,0.341
MHN1998MRNO,2019-09-26-14-05-15,7,14,0.6674992846278109,right,both,ambiguous-stable,100,0,left,right,0.281
MHN1998MRNO,2019-09-26-14-05-15,7,15,0.561431619466805,right,probe,biased-switch,-1,5,right,right,0.525
MHN1998MRNO,2019-09-26-14-05-15,7,16,0.5064655605997442,right,both,biased-switch,107,5,right,right,0.273
MHN1998MRNO,2019-09-26-14-05-15,7,17,0.6952644519653464,left,probe,ambiguous-stable,-1,30,right,right,0.228
MHN1998MRNO,2019-09-26-14-05-15,7,18,0.5051345259261849,left,both,ambiguous-stable,107,30,left,right,0.177
MHN1998MRNO,2019-09-26-14-05-15,7,19,0.6203398198322588,left,probe,ambiguous-switch,-1,5,right,right,0.302
MHN1998MRNO,2019-09-26-14-05-15,7,20,0.6945272212272431,left,both,ambiguous-switch,92,5,right,left,0.325
MHN1998MRNO,2019-09-26-14-05-15,7,21,0.5563959759351784,right,probe,ambiguous-stable,-1,-20,right,right,0.26
MHN1998MRNO,2019-09-26-14-05-15,7,22,0.5127161275451524,right,both,ambiguous-stable,109,-20,left,right,0.308
MHN1998MRNO,2019-09-26-14-05-15,7,23,0.6551849333502804,right,probe,ambiguous-switch,-1,20,right,right,0.514
MHN1998MRNO,2019-09-26-14-05-15,7,24,0.6973796893701661,right,both,ambiguous-switch,109,20,right,right,0.227
MHN1998MRNO,2019-09-26-14-05-15,7,25,0.6089284865160639,right,probe,ambiguous-stable,-1,40,right,right,0.402
MHN1998MRNO,2019-09-26-14-05-15,7,26,0.6777501263026902,right,both,ambiguous-stable,100,40,left,right,0.284
MHN1998MRNO,2019-09-26-14-05-15,7,27,0.6709351821222013,left,probe,ambiguous-switch,-1,40,right,right,0.83
MHN1998MRNO,2019-09-26-14-05-15,7,28,0.6279362356936735,left,both,ambiguous-switch,98,40,right,right,0.277
MHN1998MRNO,2019-09-26-14-05-15,7,29,0.5336436393625441,left,probe,biased-switch,-1,10,right,right,0.204
MHN1998MRNO,2019-09-26-14-05-15,7,30,0.6209415236250713,left,both,biased-switch,109,10,right,right,6.326
MHN1998MRNO,2019-09-26-14-05-15,7,31,0.6516589705953568,right,probe,ambiguous-switch,-1,-30,right,right,0.385
MHN1998MRNO,2019-09-26-14-05-15,7,32,0.5978724133884574,right,both,ambiguous-switch,108,-30,right,right,0.537
MHN1998MRNO,2019-09-26-14-05-15,7,33,0.5318708818373675,left,probe,ambiguous-stable,-1,-5,right,right,0.292
MHN1998MRNO,2019-09-26-14-05-15,7,34,0.6487096479947272,left,both,ambiguous-stable,95,-5,left,right,0.231
MHN1998MRNO,2019-09-26-14-05-15,7,35,0.5994856021747146,right,probe,ambiguous-switch,-1,0,right,right,0.286
MHN1998MRNO,2019-09-26-14-05-15,7,36,0.6119283865700103,right,both,ambiguous-switch,95,0,right,right,0.252
MHN1998MRNO,2019-09-26-14-05-15,7,37,0.5247363957412423,right,probe,ambiguous-switch,-1,10,right,right,0.268
MHN1998MRNO,2019-09-26-14-05-15,7,38,0.6135001175257528,right,both,ambiguous-switch,102,10,right,right,0.754
MHN1998MRNO,2019-09-26-14-05-15,7,39,0.5812999135188642,left,probe,biased-switch,-1,30,right,right,0.247
MHN1998MRNO,2019-09-26-14-05-15,7,40,0.5294160870736945,left,both,biased-switch,106,30,right,right,0.252
MHN1998MRNO,2019-09-26-14-05-15,7,41,0.6847999933293167,right,probe,ambiguous-stable,-1,-30,right,right,0.478
MHN1998MRNO,2019-09-26-14-05-15,7,42,0.5720776372825824,right,both,ambiguous-stable,92,-30,left,left,0.466
MHN1998MRNO,2019-09-26-14-05-15,7,43,0.639273586590448,left,probe,biased-switch,-1,0,right,right,0.354
MHN1998MRNO,2019-09-26-14-05-15,7,44,0.5923330527528066,left,both,biased-switch,102,0,right,left,0.384
MHN1998MRNO,2019-09-26-14-05-15,7,45,0.5736197361241281,right,probe,ambiguous-switch,-1,-10,right,right,0.466
MHN1998MRNO,2019-09-26-14-05-15,7,46,0.6357678917647955,right,both,ambiguous-switch,97,-10,right,right,0.706
MHN1998MRNO,2019-09-26-14-05-15,7,47,0.5490936174809202,right,probe,ambiguous-switch,-1,30,right,right,0.279
MHN1998MRNO,2019-09-26-14-05-15,7,48,0.51984642547201,right,both,ambiguous-switch,101,30,right,right,0.239
MHN1998MRNO,2019-09-26-14-05-15,7,49,0.5721441822771659,left,probe,biased-switch,-1,20,right,right,0.314
MHN1998MRNO,2019-09-26-14-05-15,7,50,0.6199732120353203,left,both,biased-switch,107,20,right,left,0.298
MHN1998MRNO,2019-09-26-14-05-15,7,51,0.6738942215862467,left,probe,ambiguous-stable,-1,5,left,left,0.268
MHN1998MRNO,2019-09-26-14-05-15,7,52,0.5666910485417495,left,both,ambiguous-stable,98,5,right,left,0.291
MHN1998MRNO,2019-09-26-14-05-15,7,53,0.6625304557829024,right,probe,ambiguous-switch,-1,-5,right,right,0.291
MHN1998MRNO,2019-09-26-14-05-15,7,54,0.54194005477815,right,both,ambiguous-switch,96,-5,right,left,0.303
MHN1998MRNO,2019-09-26-14-05-15,7,55,0.6325089397990559,left,probe,ambiguous-switch,-1,-20,right,right,0.233
MHN1998MRNO,2019-09-26-14-05-15,7,56,0.5214936768473118,left,both,ambiguous-switch,95,-20,right,right,0.263
MHN1998MRNO,2019-09-26-14-05-15,7,57,0.6178356965942684,left,probe,biased-switch,-1,-10,right,right,0.245
MHN1998MRNO,2019-09-26-14-05-15,7,58,0.6404847857226129,left,both,biased-switch,102,-10,right,left,0.324
MHN1998MRNO,2019-09-26-14-05-15,7,59,0.6561964732324308,left,probe,biased-switch,-1,-5,right,right,0.25
MHN1998MRNO,2019-09-26-14-05-15,7,60,0.6620339643796498,left,both,biased-switch,93,-5,right,left,0.323
MHN1998MRNO,2019-09-26-14-05-15,8,1,0.552475565205234,left,probe,ambiguous-switch,-1,10,right,right,1.011
MHN1998MRNO,2019-09-26-14-05-15,8,2,0.6491891092875288,left,both,ambiguous-switch,106,10,right,left,0.224
MHN1998MRNO,2019-09-26-14-05-15,8,3,0.5870663201924472,right,probe,ambiguous-stable,-1,5,right,right,0.246
MHN1998MRNO,2019-09-26-14-05-15,8,4,0.6324025167799227,right,both,ambiguous-stable,108,5,left,right,0.227
MHN1998MRNO,2019-09-26-14-05-15,8,5,0.5438998431049687,left,probe,ambiguous-switch,-1,-20,left,left,0.236
MHN1998MRNO,2019-09-26-14-05-15,8,6,0.5505690186593508,left,both,ambiguous-switch,106,-20,left,left,0.294
MHN1998MRNO,2019-09-26-14-05-15,8,7,0.6640180014073499,right,probe,ambiguous-switch,-1,30,left,left,0.242
MHN1998MRNO,2019-09-26-14-05-15,8,8,0.6101145606407076,right,both,ambiguous-switch,96,30,left,left,0.235
MHN1998MRNO,2019-09-26-14-05-15,8,9,0.6761982116020144,left,probe,ambiguous-stable,-1,-5,left,left,0.256
MHN1998MRNO,2019-09-26-14-05-15,8,10,0.6287430948192592,left,both,ambiguous-stable,98,-5,right,left,0.31
MHN1998MRNO,2019-09-26-14-05-15,8,11,0.5602483591015591,left,probe,biased-switch,-1,20,left,left,0.417
MHN1998MRNO,2019-09-26-14-05-15,8,12,0.5377634189220722,left,both,biased-switch,95,20,left,right,0.284
MHN1998MRNO,2019-09-26-14-05-15,8,13,0.5079033830860732,left,probe,ambiguous-stable,-1,20,left,left,0.265
MHN1998MRNO,2019-09-26-14-05-15,8,14,0.6063848822581343,left,both,ambiguous-stable,98,20,right,left,0.328
MHN1998MRNO,2019-09-26-14-05-15,8,15,0.5411167077974492,left,probe,biased-switch,-1,5,left,left,0.284
MHN1998MRNO,2019-09-26-14-05-15,8,16,0.629818419690405,left,both,biased-switch,106,5,left,right,0.294
MHN1998MRNO,2019-09-26-14-05-15,8,17,0.6613775261777844,left,probe,ambiguous-switch,-1,5,left,left,0.24
MHN1998MRNO,2019-09-26-14-05-15,8,18,0.5360349611407534,left,both,ambiguous-switch,109,5,left,right,0.245
MHN1998MRNO,2019-09-26-14-05-15,8,19,0.5661156776654837,left,probe,ambiguous-stable,-1,0,left,left,0.252
MHN1998MRNO,2019-09-26-14-05-15,8,20,0.567645232828295,left,both,ambiguous-stable,98,0,right,left,0.257
MHN1998MRNO,2019-09-26-14-05-15,8,21,0.5105206302318258,right,probe,ambiguous-switch,-1,40,right,right,0.34
MHN1998MRNO,2019-09-26-14-05-15,8,22,0.5857894833901296,right,both,ambiguous-switch,95,40,right,right,0.262
MHN1998MRNO,2019-09-26-14-05-15,8,23,0.5679253820033358,left,probe,ambiguous-stable,-1,30,right,right,0.286
MHN1998MRNO,2019-09-26-14-05-15,8,24,0.5110420900832168,left,both,ambiguous-stable,98,30,left,left,0.232
MHN1998MRNO,2019-09-26-14-05-15,8,25,0.5937630101038051,left,probe,biased-switch,-1,-30,right,right,0.431
MHN1998MRNO,2019-09-26-14-05-15,8,26,0.5044667061607303,left,both,biased-switch,95,-30,right,right,0.43
MHN1998MRNO,2019-09-26-14-05-15,8,27,0.6860122229572144,right,probe,ambiguous-stable,-1,-30,right,right,2.662
MHN1998MRNO,2019-09-26-14-05-15,8,28,0.6401134401209848,right,both,ambiguous-stable,94,-30,left,left,0.299
MHN1998MRNO,2019-09-26-14-05-15,8,29,0.568042386048163,right,probe,ambiguous-switch,-1,20,left,left,0.26
MHN1998MRNO,2019-09-26-14-05-15,8,30,0.5049489896569005,right,both,ambiguous-switch,102,20,left,left,0.219
MHN1998MRNO,2019-09-26-14-05-15,8,31,0.5376328293762308,left,probe,biased-switch,-1,40,left,left,0.241
MHN1998MRNO,2019-09-26-14-05-15,8,32,0.5216430870378574,left,both,biased-switch,100,40,left,left,0.296
MHN1998MRNO,2019-09-26-14-05-15,8,33,0.56835046140311,right,probe,biased-switch,-1,30,left,left,0.23
MHN1998MRNO,2019-09-26-14-05-15,8,34,0.5414326138185341,right,both,biased-switch,99,30,left,left,0.216
MHN1998MRNO,2019-09-26-14-05-15,8,35,0.57817239534666,left,probe,ambiguous-stable,-1,-20,left,left,0.25
MHN1998MRNO,2019-09-26-14-05-15,8,36,0.5998246598012364,left,both,ambiguous-stable,95,-20,right,left,0.177
MHN1998MRNO,2019-09-26-14-05-15,8,37,0.6483194170608044,left,probe,ambiguous-stable,-1,-10,left,left,0.209
MHN1998MRNO,2019-09-26-14-05-15,8,38,0.6209200579087776,left,both,ambiguous-stable,94,-10,right,left,0.259
MHN1998MRNO,2019-09-26-14-05-15,8,39,0.6384716594516409,left,probe,ambiguous-switch,-1,-30,left,left,0.272
MHN1998MRNO,2019-09-26-14-05-15,8,40,0.5353509971461226,left,both,ambiguous-switch,100,-30,left,left,0.253
MHN1998MRNO,2019-09-26-14-05-15,8,41,0.5664933125472509,left,probe,biased-switch,-1,-5,left,left,0.239
MHN1998MRNO,2019-09-26-14-05-15,8,42,0.6474246038546129,left,both,biased-switch,104,-5,left,left,0.263
MHN1998MRNO,2019-09-26-14-05-15,8,43,0.5606682216062533,right,probe,ambiguous-switch,-1,-5,left,left,0.396
MHN1998MRNO,2019-09-26-14-05-15,8,44,0.543826663621549,right,both,ambiguous-switch,106,-5,left,left,0.29
MHN1998MRNO,2019-09-26-14-05-15,8,45,0.5240909490608557,left,probe,biased-switch,-1,10,left,left,0.263
MHN1998MRNO,2019-09-26-14-05-15,8,46,0.6532843519558629,left,both,biased-switch,95,10,left,left,0.266
MHN1998MRNO,2019-09-26-14-05-15,8,47,0.6363109836842347,left,probe,biased-switch,-1,-20,left,left,0.274
MHN1998MRNO,2019-09-26-14-05-15,8,48,0.646511150127701,left,both,biased-switch,103,-20,left,left,0.255
MHN1998MRNO,2019-09-26-14-05-15,8,49,0.6322373078108084,right,probe,ambiguous-switch,-1,-10,left,left,0.262
MHN1998MRNO,2019-09-26-14-05-15,8,50,0.6632591859355952,right,both,ambiguous-switch,95,-10,left,left,0.284
MHN1998MRNO,2019-09-26-14-05-15,8,51,0.5194972607571002,right,probe,ambiguous-switch,-1,0,left,left,0.28
MHN1998MRNO,2019-09-26-14-05-15,8,52,0.6328770859796603,right,both,ambiguous-switch,98,0,left,left,0.266
MHN1998MRNO,2019-09-26-14-05-15,8,53,0.6417012744898416,right,probe,ambiguous-stable,-1,10,left,left,0.304
MHN1998MRNO,2019-09-26-14-05-15,8,54,0.6193655668564835,right,both,ambiguous-stable,93,10,right,left,0.267
MHN1998MRNO,2019-09-26-14-05-15,8,55,0.5789162644249217,right,probe,biased-switch,-1,-10,left,left,0.298
MHN1998MRNO,2019-09-26-14-05-15,8,56,0.6573000810434422,right,both,biased-switch,107,-10,left,left,0.249
MHN1998MRNO,2019-09-26-14-05-15,8,57,0.6661009026464201,right,probe,ambiguous-stable,-1,40,left,left,0.343
MHN1998MRNO,2019-09-26-14-05-15,8,58,0.5103338943459889,right,both,ambiguous-stable,107,40,right,left,0.121
MHN1998MRNO,2019-09-26-14-05-15,8,59,0.5982518762310637,right,probe,biased-switch,-1,0,left,left,0.268
MHN1998MRNO,2019-09-26-14-05-15,8,60,0.6779147041706244,right,both,biased-switch,105,0,left,left,0.149
MHN1998MRNO,2019-09-26-14-05-15,9,1,0.6134394023936888,right,probe,ambiguous-stable,-1,40,left,left,0.226
MHN1998MRNO,2019-09-26-14-05-15,9,2,0.6290772188213812,right,both,ambiguous-stable,107,40,right,left,0.27
MHN1998MRNO,2019-09-26-14-05-15,9,3,0.6490427503142258,left,probe,ambiguous-stable,-1,5,left,left,0.842
MHN1998MRNO,2019-09-26-14-05-15,9,4,0.5012083210629934,left,both,ambiguous-stable,106,5,right,left,0.195
MHN1998MRNO,2019-09-26-14-05-15,9,5,0.6906251810456431,right,probe,ambiguous-switch,-1,20,left,left,0.235
MHN1998MRNO,2019-09-26-14-05-15,9,6,0.5491482067874086,right,both,ambiguous-switch,102,20,left,left,0.29
MHN1998MRNO,2019-09-26-14-05-15,9,7,0.5382283004958821,left,probe,ambiguous-switch,-1,5,left,left,0.603
MHN1998MRNO,2019-09-26-14-05-15,9,8,0.5611472600252775,left,both,ambiguous-switch,101,5,left,right,0.242
MHN1998MRNO,2019-09-26-14-05-15,9,9,0.6082439416698344,right,probe,ambiguous-switch,-1,0,left,left,0.2
MHN1998MRNO,2019-09-26-14-05-15,9,10,0.6833678119774355,right,both,ambiguous-switch,91,0,left,left,0.112
MHN1998MRNO,2019-09-26-14-05-15,9,11,0.6323921705136627,left,probe,ambiguous-stable,-1,-30,left,left,0.139
MHN1998MRNO,2019-09-26-14-05-15,9,12,0.6312746638427825,left,both,ambiguous-stable,105,-30,right,left,0.196
MHN1998MRNO,2019-09-26-14-05-15,9,13,0.5556665073698758,right,probe,biased-switch,-1,-30,left,left,0.207
MHN1998MRNO,2019-09-26-14-05-15,9,14,0.6911562151229101,right,both,biased-switch,107,-30,left,left,0.201
MHN1998MRNO,2019-09-26-14-05-15,9,15,0.5960952022486895,right,probe,ambiguous-switch,-1,-5,left,left,0.213
MHN1998MRNO,2019-09-26-14-05-15,9,16,0.664133827826888,right,both,ambiguous-switch,90,-5,left,left,0.212
MHN1998MRNO,2019-09-26-14-05-15,9,17,0.5681240122017546,left,probe,ambiguous-switch,-1,-20,left,left,0.412
MHN1998MRNO,2019-09-26-14-05-15,9,18,0.6484880702772899,left,both,ambiguous-switch,103,-20,left,left,0.114
MHN1998MRNO,2019-09-26-14-05-15,9,19,0.5609062527570442,right,probe,biased-switch,-1,-5,left,left,0.184
MHN1998MRNO,2019-09-26-14-05-15,9,20,0.5284861466740172,right,both,biased-switch,101,-5,left,left,0.046
MHN1998MRNO,2019-09-26-14-05-15,9,21,0.571873563060998,right,probe,biased-switch,-1,30,left,left,0.227
MHN1998MRNO,2019-09-26-14-05-15,9,22,0.554189381750686,right,both,biased-switch,94,30,left,left,0.215
MHN1998MRNO,2019-09-26-14-05-15,9,23,0.6075630771319953,left,probe,biased-switch,-1,20,left,left,0.168
MHN1998MRNO,2019-09-26-14-05-15,9,24,0.6651369774743756,left,both,biased-switch,92,20,left,left,0.23
MHN1998MRNO,2019-09-26-14-05-15,9,25,0.5396836757008312,left,probe,ambiguous-switch,-1,30,left,left,0.28
MHN1998MRNO,2019-09-26-14-05-15,9,26,0.6639847554208237,left,both,ambiguous-switch,91,30,left,left,0.232
MHN1998MRNO,2019-09-26-14-05-15,9,27,0.6539682066472521,right,probe,biased-switch,-1,5,left,left,0.088
MHN1998MRNO,2019-09-26-14-05-15,9,28,0.5630802888729431,right,both,biased-switch,96,5,left,right,0.252
MHN1998MRNO,2019-09-26-14-05-15,9,29,0.6884748105842688,right,probe,ambiguous-stable,-1,-10,left,left,0.208
MHN1998MRNO,2019-09-26-14-05-15,9,30,0.5528395928549021,right,both,ambiguous-stable,108,-10,right,left,0.154
MHN1998MRNO,2019-09-26-14-05-15,9,31,0.5509592774925551,right,probe,ambiguous-stable,-1,-20,left,left,0.097
MHN1998MRNO,2019-09-26-14-05-15,9,32,0.5242137872491781,right,both,ambiguous-stable,95,-20,right,left,0.2
MHN1998MRNO,2019-09-26-14-05-15,9,33,0.5609606653533905,left,probe,biased-switch,-1,10,right,right,0.127
MHN1998MRNO,2019-09-26-14-05-15,9,34,0.6866009050348818,left,both,biased-switch,102,10,right,left,0.223
MHN1998MRNO,2019-09-26-14-05-15,9,35,0.6985045518383889,right,probe,ambiguous-switch,-1,-10,left,left,0.19
MHN1998MRNO,2019-09-26-14-05-15,9,36,0.6600789127657182,right,both,ambiguous-switch,96,-10,left,left,0.321
MHN1998MRNO,2019-09-26-14-05-15,9,37,0.6668300136571512,right,probe,biased-switch,-1,-20,left,left,0.371
MHN1998MRNO,2019-09-26-14-05-15,9,38,0.5962401170933413,right,both,biased-switch,98,-20,left,left,0.262
MHN1998MRNO,2019-09-26-14-05-15,9,39,0.6874700619704935,left,probe,ambiguous-stable,-1,30,left,left,0.305
MHN1998MRNO,2019-09-26-14-05-15,9,40,0.6253159092582179,left,both,ambiguous-stable,96,30,right,left,0.131
MHN1998MRNO,2019-09-26-14-05-15,9,41,0.643810550974866,right,probe,biased-switch,-1,0,left,left,1.533
MHN1998MRNO,2019-09-26-14-05-15,9,42,0.5570863708213514,right,both,biased-switch,91,0,left,right,0.314
MHN1998MRNO,2019-09-26-14-05-15,9,43,0.6520663480799159,left,probe,ambiguous-stable,-1,0,left,left,0.533
MHN1998MRNO,2019-09-26-14-05-15,9,44,0.5763458350153141,left,both,ambiguous-stable,94,0,right,left,5.978
MHN1998MRNO,2019-09-26-14-05-15,9,45,0.5595215663392755,left,probe,biased-switch,-1,40,left,left,0.278
MHN1998MRNO,2019-09-26-14-05-15,9,46,0.6597815211512197,left,both,biased-switch,106,40,left,left,0.268
MHN1998MRNO,2019-09-26-14-05-15,9,47,0.6251824481288359,left,probe,ambiguous-switch,-1,10,left,left,0.247
MHN1998MRNO,2019-09-26-14-05-15,9,48,0.5370175818889437,left,both,ambiguous-switch,109,10,left,left,0.18
MHN1998MRNO,2019-09-26-14-05-15,9,49,0.6321474921349487,right,probe,ambiguous-stable,-1,-5,left,left,0.258
MHN1998MRNO,2019-09-26-14-05-15,9,50,0.6228746055656472,right,both,ambiguous-stable,109,-5,right,left,0.204
MHN1998MRNO,2019-09-26-14-05-15,9,51,0.6514706897989614,left,probe,ambiguous-stable,-1,20,left,left,0.18
MHN1998MRNO,2019-09-26-14-05-15,9,52,0.6035252997853695,left,both,ambiguous-stable,92,20,right,left,0.137
MHN1998MRNO,2019-09-26-14-05-15,9,53,0.6899962931608785,right,probe,ambiguous-stable,-1,10,left,left,0.238
MHN1998MRNO,2019-09-26-14-05-15,9,54,0.5308742778873907,right,both,ambiguous-stable,109,10,right,left,0.296
MHN1998MRNO,2019-09-26-14-05-15,9,55,0.6159215523328416,right,probe,biased-switch,-1,-10,left,left,0.278
MHN1998MRNO,2019-09-26-14-05-15,9,56,0.5398269120776037,right,both,biased-switch,100,-10,left,left,0.266
MHN1998MRNO,2019-09-26-14-05-15,9,57,0.5415140978969992,left,probe,ambiguous-switch,-1,40,left,left,0.453
MHN1998MRNO,2019-09-26-14-05-15,9,58,0.6634810877161181,left,both,ambiguous-switch,92,40,left,left,0.27
MHN1998MRNO,2019-09-26-14-05-15,9,59,0.540884600682589,right,probe,ambiguous-switch,-1,-30,left,left,0.229
MHN1998MRNO,2019-09-26-14-05-15,9,60,0.5553629605903349,right,both,ambiguous-switch,101,-30,left,left,0.231
MHN1998MRNO,2019-09-26-14-05-15,10,1,0.5049937542411885,right,probe,biased-switch,-1,-20,left,left,0.305
MHN1998MRNO,2019-09-26-14-05-15,10,2,0.6812538211245036,right,both,biased-switch,104,-20,left,left,0.281
MHN1998MRNO,2019-09-26-14-05-15,10,3,0.6008803089140166,left,probe,ambiguous-switch,-1,-5,left,left,0.183
MHN1998MRNO,2019-09-26-14-05-15,10,4,0.6051314395891487,left,both,ambiguous-switch,105,-5,left,left,0.183
MHN1998MRNO,2019-09-26-14-05-15,10,5,0.6976745731128541,left,probe,biased-switch,-1,30,left,left,0.169
MHN1998MRNO,2019-09-26-14-05-15,10,6,0.6689597468833934,left,both,biased-switch,107,30,left,left,0.275
MHN1998MRNO,2019-09-26-14-05-15,10,7,0.5147398705675423,right,probe,biased-switch,-1,40,left,left,0.854
MHN1998MRNO,2019-09-26-14-05-15,10,8,0.5971926021677176,right,both,biased-switch,107,40,left,left,0.25
MHN1998MRNO,2019-09-26-14-05-15,10,9,0.5437524328465587,left,probe,biased-switch,-1,-30,left,left,0.226
MHN1998MRNO,2019-09-26-14-05-15,10,10,0.5954577997456302,left,both,biased-switch,107,-30,left,left,0.262
MHN1998MRNO,2019-09-26-14-05-15,10,11,0.5505723558229599,right,probe,ambiguous-stable,-1,-5,left,left,0.202
MHN1998MRNO,2019-09-26-14-05-15,10,12,0.5996684524320045,right,both,ambiguous-stable,97,-5,right,left,0.233
MHN1998MRNO,2019-09-26-14-05-15,10,13,0.6022305957607199,right,probe,ambiguous-switch,-1,-30,left,left,0.233
MHN1998MRNO,2019-09-26-14-05-15,10,14,0.612889156730817,right,both,ambiguous-switch,91,-30,left,left,0.284
MHN1998MRNO,2019-09-26-14-05-15,10,15,0.5131908943654768,right,probe,ambiguous-stable,-1,0,left,left,0.24
MHN1998MRNO,2019-09-26-14-05-15,10,16,0.6713603382269395,right,both,ambiguous-stable,101,0,right,left,0.269
MHN1998MRNO,2019-09-26-14-05-15,10,17,0.673534781503468,right,probe,biased-switch,-1,0,left,left,0.133
MHN1998MRNO,2019-09-26-14-05-15,10,18,0.6410756529114472,right,both,biased-switch,102,0,left,left,0.061
MHN1998MRNO,2019-09-26-14-05-15,10,19,0.6035834107098171,right,probe,ambiguous-stable,-1,-20,left,left,0.447
MHN1998MRNO,2019-09-26-14-05-15,10,20,0.542354488912515,right,both,ambiguous-stable,95,-20,right,left,0.252
MHN1998MRNO,2019-09-26-14-05-15,10,21,0.523694998874132,right,probe,ambiguous-switch,-1,10,left,left,0.206
MHN1998MRNO,2019-09-26-14-05-15,10,22,0.6901058251686631,right,both,ambiguous-switch,104,10,left,left,0.238
MHN1998MRNO,2019-09-26-14-05-15,10,23,0.6309993453682062,left,probe,ambiguous-switch,-1,0,left,left,0.15
MHN1998MRNO,2019-09-26-14-05-15,10,24,0.532739644170629,left,both,ambiguous-switch,103,0,left,right,0.29
MHN1998MRNO,2019-09-26-14-05-15,10,25,0.5529899580581852,right,probe,biased-switch,-1,-10,left,left,0.239
MHN1998MRNO,2019-09-26-14-05-15,10,26,0.6410419803078564,right,both,biased-switch,96,-10,left,left,0.185
MHN1998MRNO,2019-09-26-14-05-15,10,27,0.6623426844694862,left,probe,ambiguous-switch,-1,40,left,left,0.19
MHN1998MRNO,2019-09-26-14-05-15,10,28,0.5345526863617278,left,both,ambiguous-switch,102,40,left,left,0.178
MHN1998MRNO,2019-09-26-14-05-15,10,29,0.6084828253053218,left,probe,biased-switch,-1,10,left,left,0.203
MHN1998MRNO,2019-09-26-14-05-15,10,30,0.6522609602017229,left,both,biased-switch,94,10,left,left,0.325
MHN1998MRNO,2019-09-26-14-05-15,10,31,0.6883278038292883,right,probe,ambiguous-stable,-1,10,left,left,0.283
MHN1998MRNO,2019-09-26-14-05-15,10,32,0.5963754377424526,right,both,ambiguous-stable,108,10,right,left,0.327
MHN1998MRNO,2019-09-26-14-05-15,10,33,0.6449390238294082,right,probe,ambiguous-switch,-1,5,left,left,0.21
MHN1998MRNO,2019-09-26-14-05-15,10,34,0.5075505132137337,right,both,ambiguous-switch,91,5,left,left,0.115
MHN1998MRNO,2019-09-26-14-05-15,10,35,0.6012476738049871,left,probe,ambiguous-switch,-1,-10,left,left,0.237
MHN1998MRNO,2019-09-26-14-05-15,10,36,0.5805705424381378,left,both,ambiguous-switch,105,-10,left,right,0.322
MHN1998MRNO,2019-09-26-14-05-15,10,37,0.5347205725253894,right,probe,ambiguous-stable,-1,30,left,left,0.637
MHN1998MRNO,2019-09-26-14-05-15,10,38,0.6263531062877241,right,both,ambiguous-stable,105,30,right,left,0.289
MHN1998MRNO,2019-09-26-14-05-15,10,39,0.6464224741580774,left,probe,ambiguous-switch,-1,30,right,right,0.303
MHN1998MRNO,2019-09-26-14-05-15,10,40,0.5974330289485137,left,both,ambiguous-switch,108,30,right,left,0.219
MHN1998MRNO,2019-09-26-14-05-15,10,41,0.5812292357832759,left,probe,ambiguous-stable,-1,20,right,right,0.249
MHN1998MRNO,2019-09-26-14-05-15,10,42,0.5114128738852511,left,both,ambiguous-stable,105,20,left,right,0.291
MHN1998MRNO,2019-09-26-14-05-15,10,43,0.5788459395511019,left,probe,ambiguous-stable,-1,-10,right,right,0.201
MHN1998MRNO,2019-09-26-14-05-15,10,44,0.6910533332469055,left,both,ambiguous-stable,92,-10,left,right,0.303
MHN1998MRNO,2019-09-26-14-05-15,10,45,0.6780800199956117,left,probe,biased-switch,-1,5,right,right,0.249
MHN1998MRNO,2019-09-26-14-05-15,10,46,0.591832408338697,left,both,biased-switch,102,5,right,left,0.263
MHN1998MRNO,2019-09-26-14-05-15,10,47,0.5569286150907172,left,probe,ambiguous-switch,-1,-20,left,left,0.245
MHN1998MRNO,2019-09-26-14-05-15,10,48,0.6458757963418376,left,both,ambiguous-switch,100,-20,left,right,0.27
MHN1998MRNO,2019-09-26-14-05-15,10,49,0.688665585023486,left,probe,ambiguous-stable,-1,40,right,right,0.235
MHN1998MRNO,2019-09-26-14-05-15,10,50,0.6026535586570293,left,both,ambiguous-stable,107,40,left,right,1.48
MHN1998MRNO,2019-09-26-14-05-15,10,51,0.6034093468527861,left,probe,ambiguous-stable,-1,-30,right,right,0.217
MHN1998MRNO,2019-09-26-14-05-15,10,52,0.6434835761387858,left,both,ambiguous-stable,103,-30,left,right,0.178
MHN1998MRNO,2019-09-26-14-05-15,10,53,0.5297727269368911,right,probe,biased-switch,-1,20,left,left,0.496
MHN1998MRNO,2019-09-26-14-05-15,10,54,0.626747645596499,right,both,biased-switch,98,20,left,right,0.215
MHN1998MRNO,2019-09-26-14-05-15,10,55,0.5452532366290234,left,probe,ambiguous-switch,-1,20,right,right,0.228
MHN1998MRNO,2019-09-26-14-05-15,10,56,0.5673188104330222,left,both,ambiguous-switch,109,20,right,right,0.231
MHN1998MRNO,2019-09-26-14-05-15,10,57,0.5575003189453455,right,probe,ambiguous-stable,-1,5,right,right,0.217
MHN1998MRNO,2019-09-26-14-05-15,10,58,0.5204071978769531,right,both,ambiguous-stable,93,5,left,right,0.229
MHN1998MRNO,2019-09-26-14-05-15,10,59,0.6687399327745566,right,probe,biased-switch,-1,-5,right,right,0.202
MHN1998MRNO,2019-09-26-14-05-15,10,60,0.5764506100800213,right,both,biased-switch,94,-5,right,right,0.236
