Participant,Session,Block,Trial,OnsetDelay,ProbeLocation,WhatIsReported,Condition,TriggerTime,ProbeSOA,PrimeDirection,Response,RT
MSB1996WRNO,2019-10-08-12-36-45,1,1,0.6967482071298041,right,probe,ambiguous-switch,-1,20,left,left,0.999
MSB1996WRNO,2019-10-08-12-36-45,1,2,0.6174532859435458,right,both,ambiguous-switch,96,20,left,left,0.201
MSB1996WRNO,2019-10-08-12-36-45,1,3,0.5645371984473704,left,probe,biased-switch,-1,0,left,left,0.176
MSB1996WRNO,2019-10-08-12-36-45,1,4,0.554830077591344,left,both,biased-switch,107,0,left,left,0.234
MSB1996WRNO,2019-10-08-12-36-45,1,5,0.620131851821652,right,probe,biased-switch,-1,-10,right,right,0.27
MSB1996WRNO,2019-10-08-12-36-45,1,6,0.577914475883851,right,both,biased-switch,105,-10,right,left,0.222
MSB1996WRNO,2019-10-08-12-36-45,1,7,0.6500910385655122,left,probe,ambiguous-switch,-1,0,left,left,0.201
MSB1996WRNO,2019-10-08-12-36-45,1,8,0.6057793078550779,left,both,ambiguous-switch,91,0,left,left,0.195
MSB1996WRNO,2019-10-08-12-36-45,1,9,0.5500495174573614,right,probe,ambiguous-switch,-1,-5,left,left,0.223
MSB1996WRNO,2019-10-08-12-36-45,1,10,0.5648888449680788,right,both,ambiguous-switch,90,-5,left,left,0.226
MSB1996WRNO,2019-10-08-12-36-45,1,11,0.6097597666473576,right,probe,ambiguous-switch,-1,-30,right,right,0.21
MSB1996WRNO,2019-10-08-12-36-45,1,12,0.6265421719463967,right,both,ambiguous-switch,105,-30,right,right,0.353
MSB1996WRNO,2019-10-08-12-36-45,1,13,0.6970566030396592,left,probe,biased-switch,-1,5,left,left,0.202
MSB1996WRNO,2019-10-08-12-36-45,1,14,0.5905905729162042,left,both,biased-switch,100,5,left,left,0.102
MSB1996WRNO,2019-10-08-12-36-45,1,15,0.5687828858273818,right,probe,ambiguous-switch,-1,10,right,right,0.124
MSB1996WRNO,2019-10-08-12-36-45,1,16,0.5983213452530729,right,both,ambiguous-switch,108,10,right,right,0.217
MSB1996WRNO,2019-10-08-12-36-45,1,17,0.6386836284439796,right,probe,biased-switch,-1,10,right,right,0.216
MSB1996WRNO,2019-10-08-12-36-45,1,18,0.6335050534346021,right,both,biased-switch,95,10,right,right,0.271
MSB1996WRNO,2019-10-08-12-36-45,1,19,0.544190624203091,right,probe,ambiguous-switch,-1,5,right,right,0.242
MSB1996WRNO,2019-10-08-12-36-45,1,20,0.5473617198222932,right,both,ambiguous-switch,96,5,right,right,0.16
MSB1996WRNO,2019-10-08-12-36-45,1,21,0.6662330871947321,right,probe,biased-switch,-1,20,right,right,0.187
MSB1996WRNO,2019-10-08-12-36-45,1,22,0.63502864561676,right,both,biased-switch,99,20,right,right,0.23
MSB1996WRNO,2019-10-08-12-36-45,1,23,0.5781178164865373,left,probe,ambiguous-switch,-1,-10,left,left,0.18
MSB1996WRNO,2019-10-08-12-36-45,1,24,0.6227512336667439,left,both,ambiguous-switch,100,-10,left,left,0.087
MSB1996WRNO,2019-10-08-12-36-45,1,25,0.6800424024432158,right,probe,ambiguous-switch,-1,-20,right,right,0.099
MSB1996WRNO,2019-10-08-12-36-45,1,26,0.6305715414613583,right,both,ambiguous-switch,102,-20,right,right,0.216
MSB1996WRNO,2019-10-08-12-36-45,1,27,0.5573531813814124,left,probe,biased-switch,-1,-5,left,left,0.138
MSB1996WRNO,2019-10-08-12-36-45,1,28,0.5421908560695231,left,both,biased-switch,105,-5,left,left,0.19
MSB1996WRNO,2019-10-08-12-36-45,1,29,0.5485859770555184,right,probe,biased-switch,-1,30,right,right,0.178
MSB1996WRNO,2019-10-08-12-36-45,1,30,0.668855769775943,right,both,biased-switch,92,30,right,right,0.198
MSB1996WRNO,2019-10-08-12-36-45,1,31,0.6229901386657489,left,probe,biased-switch,-1,-20,left,left,0.143
MSB1996WRNO,2019-10-08-12-36-45,1,32,0.6213357951139757,left,both,biased-switch,107,-20,left,left,0.185
MSB1996WRNO,2019-10-08-12-36-45,1,33,0.6939962298282426,right,probe,biased-switch,-1,-30,right,right,0.181
MSB1996WRNO,2019-10-08-12-36-45,1,34,0.5544572657676046,right,both,biased-switch,100,-30,right,right,0.108
MSB1996WRNO,2019-10-08-12-36-45,1,35,0.591064126686015,left,probe,ambiguous-switch,-1,30,left,left,0.151
MSB1996WRNO,2019-10-08-12-36-45,1,36,0.643531651102281,left,both,ambiguous-switch,102,30,left,left,0.119
MSB1996WRNO,2019-10-08-12-36-45,1,37,0.6566399229464479,left,probe,ambiguous-switch,-1,40,left,left,0.197
MSB1996WRNO,2019-10-08-12-36-45,1,38,0.5460028879460375,left,both,ambiguous-switch,93,40,left,left,0.123
MSB1996WRNO,2019-10-08-12-36-45,1,39,0.6933530141819524,right,probe,biased-switch,-1,40,right,right,0.198
MSB1996WRNO,2019-10-08-12-36-45,1,40,0.5009932869974062,right,both,biased-switch,95,40,right,right,0.244
MSB1996WRNO,2019-10-08-12-36-45,1,41,0.611802353491424,left,probe,ambiguous-switch,-1,20,left,left,0.169
MSB1996WRNO,2019-10-08-12-36-45,1,42,0.6824225604186751,left,both,ambiguous-switch,99,20,left,left,0.158
MSB1996WRNO,2019-10-08-12-36-45,1,43,0.5376777146033744,left,probe,biased-switch,-1,0,left,left,0.176
MSB1996WRNO,2019-10-08-12-36-45,1,44,0.5004430951571455,left,both,biased-switch,91,0,left,left,0.183
MSB1996WRNO,2019-10-08-12-36-45,1,45,0.6853415535385754,left,probe,biased-switch,-1,-10,left,left,0.035
MSB1996WRNO,2019-10-08-12-36-45,1,46,0.6698980357693569,left,both,biased-switch,98,-10,left,left,0.177
MSB1996WRNO,2019-10-08-12-36-45,1,47,0.5205863779692549,right,probe,ambiguous-switch,-1,0,right,right,0.174
MSB1996WRNO,2019-10-08-12-36-45,1,48,0.6931287446633636,right,both,ambiguous-switch,101,0,right,right,0.116
MSB1996WRNO,2019-10-08-12-36-45,1,49,0.5951546262808223,left,probe,ambiguous-switch,-1,-5,left,left,0.173
MSB1996WRNO,2019-10-08-12-36-45,1,50,0.6023522847399192,left,both,ambiguous-switch,110,-5,left,left,0.075
MSB1996WRNO,2019-10-08-12-36-45,1,51,0.5864432369684481,right,probe,ambiguous-switch,-1,-30,right,right,0.166
MSB1996WRNO,2019-10-08-12-36-45,1,52,0.6116574314494404,right,both,ambiguous-switch,107,-30,right,left,0.205
MSB1996WRNO,2019-10-08-12-36-45,1,53,0.5128444538310165,left,probe,biased-switch,-1,5,left,left,0.177
MSB1996WRNO,2019-10-08-12-36-45,1,54,0.6267437786211951,left,both,biased-switch,104,5,left,left,0.058
MSB1996WRNO,2019-10-08-12-36-45,1,55,0.6467765147756288,right,probe,ambiguous-switch,-1,10,right,right,0.176
MSB1996WRNO,2019-10-08-12-36-45,1,56,0.6713907091313752,right,both,ambiguous-switch,109,10,right,right,0.201
MSB1996WRNO,2019-10-08-12-36-45,1,57,0.615692172825909,left,probe,biased-switch,-1,10,left,left,0.173
MSB1996WRNO,2019-10-08-12-36-45,1,58,0.6729106504557414,left,both,biased-switch,105,10,left,left,0.129
MSB1996WRNO,2019-10-08-12-36-45,1,59,0.6631625204311633,right,probe,ambiguous-switch,-1,5,right,right,0.455
MSB1996WRNO,2019-10-08-12-36-45,1,60,0.6589862054013225,right,both,ambiguous-switch,100,5,right,right,0.121
MSB1996WRNO,2019-10-08-12-36-45,1,61,0.6211357722016454,right,probe,biased-switch,-1,20,right,right,0.194
MSB1996WRNO,2019-10-08-12-36-45,1,62,0.5047615081870925,right,both,biased-switch,104,20,right,left,0.2
MSB1996WRNO,2019-10-08-12-36-45,1,63,0.5344475101145496,left,probe,ambiguous-switch,-1,-10,left,left,0.132
MSB1996WRNO,2019-10-08-12-36-45,1,64,0.5593771080408657,left,both,ambiguous-switch,90,-10,left,left,0.144
MSB1996WRNO,2019-10-08-12-36-45,1,65,0.5396874953050416,left,probe,ambiguous-switch,-1,-20,left,left,0.182
MSB1996WRNO,2019-10-08-12-36-45,1,66,0.5450762968980406,left,both,ambiguous-switch,102,-20,left,left,0.201
MSB1996WRNO,2019-10-08-12-36-45,1,67,0.5437387955370581,left,probe,biased-switch,-1,-5,left,left,0.175
MSB1996WRNO,2019-10-08-12-36-45,1,68,0.5493775456733866,left,both,biased-switch,108,-5,left,left,0.961
MSB1996WRNO,2019-10-08-12-36-45,1,69,0.6751444064502563,right,probe,biased-switch,-1,30,right,right,0.184
MSB1996WRNO,2019-10-08-12-36-45,1,70,0.631387306349937,right,both,biased-switch,93,30,right,left,0.161
MSB1996WRNO,2019-10-08-12-36-45,1,71,0.6412628966840938,left,probe,biased-switch,-1,-20,left,left,0.05
MSB1996WRNO,2019-10-08-12-36-45,1,72,0.5632180610983994,left,both,biased-switch,107,-20,left,left,0.927
MSB1996WRNO,2019-10-08-12-36-45,1,73,0.6280293816240998,left,probe,biased-switch,-1,-30,left,left,0.184
MSB1996WRNO,2019-10-08-12-36-45,1,74,0.6322297659779333,left,both,biased-switch,105,-30,left,left,0.182
MSB1996WRNO,2019-10-08-12-36-45,1,75,0.6251058065590611,left,probe,ambiguous-switch,-1,30,left,left,0.164
MSB1996WRNO,2019-10-08-12-36-45,1,76,0.6803906760580761,left,both,ambiguous-switch,94,30,left,left,0.162
MSB1996WRNO,2019-10-08-12-36-45,1,77,0.6622566896597066,right,probe,ambiguous-switch,-1,40,right,right,0.757
MSB1996WRNO,2019-10-08-12-36-45,1,78,0.6753432718192807,right,both,ambiguous-switch,95,40,right,right,0.127
MSB1996WRNO,2019-10-08-12-36-45,1,79,0.512369758050705,right,probe,biased-switch,-1,40,right,right,0.096
MSB1996WRNO,2019-10-08-12-36-45,1,80,0.6263482001274431,right,both,biased-switch,98,40,right,right,0.134
MSB1996WRNO,2019-10-08-12-36-45,2,1,0.6076285374974114,right,probe,ambiguous-switch,-1,20,left,left,0.243
MSB1996WRNO,2019-10-08-12-36-45,2,2,0.5408955089991189,right,both,ambiguous-switch,92,20,left,right,0.212
MSB1996WRNO,2019-10-08-12-36-45,2,3,0.5495326159253493,left,probe,ambiguous-switch,-1,-20,left,left,0.166
MSB1996WRNO,2019-10-08-12-36-45,2,4,0.6120463815153516,left,both,ambiguous-switch,92,-20,left,left,0.189
MSB1996WRNO,2019-10-08-12-36-45,2,5,0.5073599504797045,left,probe,biased-switch,-1,-5,left,left,0.114
MSB1996WRNO,2019-10-08-12-36-45,2,6,0.6436325347274018,left,both,biased-switch,93,-5,left,left,0.066
MSB1996WRNO,2019-10-08-12-36-45,2,7,0.6860094002004471,left,probe,biased-switch,-1,-10,left,left,0.141
MSB1996WRNO,2019-10-08-12-36-45,2,8,0.5499082511984235,left,both,biased-switch,96,-10,left,left,0.103
MSB1996WRNO,2019-10-08-12-36-45,2,9,0.6380464504676754,left,probe,ambiguous-switch,-1,30,left,left,0.151
MSB1996WRNO,2019-10-08-12-36-45,2,10,0.5074335108302177,left,both,ambiguous-switch,98,30,left,left,0.123
MSB1996WRNO,2019-10-08-12-36-45,2,11,0.5372299956088591,left,probe,biased-switch,-1,5,left,left,0.015
MSB1996WRNO,2019-10-08-12-36-45,2,12,0.5287865369524016,left,both,biased-switch,104,5,left,right,1.704
MSB1996WRNO,2019-10-08-12-36-45,2,13,0.542530207499871,right,probe,biased-switch,-1,30,left,left,0.19
MSB1996WRNO,2019-10-08-12-36-45,2,14,0.6602451128742557,right,both,biased-switch,90,30,left,left,0.149
MSB1996WRNO,2019-10-08-12-36-45,2,15,0.6930928092032427,right,probe,ambiguous-switch,-1,10,right,right,0.179
MSB1996WRNO,2019-10-08-12-36-45,2,16,0.6946263780596045,right,both,ambiguous-switch,109,10,right,left,0.212
MSB1996WRNO,2019-10-08-12-36-45,2,17,0.5877993956589137,right,probe,biased-switch,-1,0,left,left,0.166
MSB1996WRNO,2019-10-08-12-36-45,2,18,0.6399760597895712,right,both,biased-switch,93,0,left,right,0.117
MSB1996WRNO,2019-10-08-12-36-45,2,19,0.61459614347361,right,probe,biased-switch,-1,10,left,left,0.167
MSB1996WRNO,2019-10-08-12-36-45,2,20,0.6911907727554201,right,both,biased-switch,94,10,left,left,0.225
MSB1996WRNO,2019-10-08-12-36-45,2,21,0.5845718544220013,left,probe,biased-switch,-1,40,left,left,0.123
MSB1996WRNO,2019-10-08-12-36-45,2,22,0.6156279918357136,left,both,biased-switch,96,40,left,left,0.079
MSB1996WRNO,2019-10-08-12-36-45,2,23,0.6565276465619236,right,probe,biased-switch,-1,-30,right,right,0.236
MSB1996WRNO,2019-10-08-12-36-45,2,24,0.6395938232990569,right,both,biased-switch,108,-30,right,right,0.188
MSB1996WRNO,2019-10-08-12-36-45,2,25,0.6585421662942903,left,probe,ambiguous-switch,-1,-5,left,left,0.141
MSB1996WRNO,2019-10-08-12-36-45,2,26,0.6637226941265713,left,both,ambiguous-switch,93,-5,left,left,0.035
MSB1996WRNO,2019-10-08-12-36-45,2,27,0.6226983019744031,right,probe,ambiguous-switch,-1,-10,left,left,0.337
MSB1996WRNO,2019-10-08-12-36-45,2,28,0.6680248508005893,right,both,ambiguous-switch,97,-10,left,right,0.116
MSB1996WRNO,2019-10-08-12-36-45,2,29,0.6961839973597206,left,probe,ambiguous-switch,-1,5,left,left,0.041
MSB1996WRNO,2019-10-08-12-36-45,2,30,0.5352759449775246,left,both,ambiguous-switch,96,5,left,left,0.122
MSB1996WRNO,2019-10-08-12-36-45,2,31,0.5160942451610919,right,probe,ambiguous-switch,-1,40,right,right,0.207
MSB1996WRNO,2019-10-08-12-36-45,2,32,0.5082726449337225,right,both,ambiguous-switch,103,40,right,right,0.112
MSB1996WRNO,2019-10-08-12-36-45,2,33,0.5256510169049484,left,probe,biased-switch,-1,20,left,left,0.013
MSB1996WRNO,2019-10-08-12-36-45,2,34,0.654094390546049,left,both,biased-switch,107,20,left,left,0.109
MSB1996WRNO,2019-10-08-12-36-45,2,35,0.5868641683235153,right,probe,ambiguous-switch,-1,0,right,right,0.082
MSB1996WRNO,2019-10-08-12-36-45,2,36,0.6205057420753062,right,both,ambiguous-switch,101,0,right,right,0.089
MSB1996WRNO,2019-10-08-12-36-45,2,37,0.6596218546247384,left,probe,ambiguous-switch,-1,-30,left,left,0.023
MSB1996WRNO,2019-10-08-12-36-45,2,38,0.6118061239448943,left,both,ambiguous-switch,95,-30,left,left,0.121
MSB1996WRNO,2019-10-08-12-36-45,2,39,0.6070710131040992,right,probe,biased-switch,-1,-20,right,right,0.146
MSB1996WRNO,2019-10-08-12-36-45,2,40,0.5542659484410709,right,both,biased-switch,101,-20,right,right,0.174
MSB1996WRNO,2019-10-08-12-36-45,2,41,0.676236838565882,right,probe,ambiguous-switch,-1,20,right,right,0.105
MSB1996WRNO,2019-10-08-12-36-45,2,42,0.6194149097218338,right,both,ambiguous-switch,97,20,right,right,0.319
MSB1996WRNO,2019-10-08-12-36-45,2,43,0.5100387656194715,left,probe,ambiguous-switch,-1,-20,left,left,0.031
MSB1996WRNO,2019-10-08-12-36-45,2,44,0.5709144449757907,left,both,ambiguous-switch,101,-20,left,left,0.197
MSB1996WRNO,2019-10-08-12-36-45,2,45,0.6913722661776778,right,probe,biased-switch,-1,-5,right,right,0.127
MSB1996WRNO,2019-10-08-12-36-45,2,46,0.5924786360046815,right,both,biased-switch,108,-5,right,right,1.361
MSB1996WRNO,2019-10-08-12-36-45,2,47,0.6202943548544526,left,probe,biased-switch,-1,-10,left,left,0.175
MSB1996WRNO,2019-10-08-12-36-45,2,48,0.5705348616301572,left,both,biased-switch,102,-10,left,left,0.118
MSB1996WRNO,2019-10-08-12-36-45,2,49,0.5468103302939831,right,probe,ambiguous-switch,-1,30,right,right,0.16
MSB1996WRNO,2019-10-08-12-36-45,2,50,0.6557360498094287,right,both,ambiguous-switch,94,30,right,right,0.232
MSB1996WRNO,2019-10-08-12-36-45,2,51,0.5379609016636313,right,probe,biased-switch,-1,5,right,right,0.186
MSB1996WRNO,2019-10-08-12-36-45,2,52,0.5742927685387743,right,both,biased-switch,92,5,right,right,0.143
MSB1996WRNO,2019-10-08-12-36-45,2,53,0.5497137195619684,left,probe,biased-switch,-1,30,left,left,0.165
MSB1996WRNO,2019-10-08-12-36-45,2,54,0.5976772797840496,left,both,biased-switch,91,30,left,left,0.15
MSB1996WRNO,2019-10-08-12-36-45,2,55,0.6843343439415754,left,probe,ambiguous-switch,-1,10,left,left,0.148
MSB1996WRNO,2019-10-08-12-36-45,2,56,0.638429204672784,left,both,ambiguous-switch,91,10,left,left,0.182
MSB1996WRNO,2019-10-08-12-36-45,2,57,0.5322758544123635,right,probe,biased-switch,-1,0,right,right,0.155
MSB1996WRNO,2019-10-08-12-36-45,2,58,0.6014495152106347,right,both,biased-switch,100,0,right,left,0.2
MSB1996WRNO,2019-10-08-12-36-45,2,59,0.6543327110308853,right,probe,biased-switch,-1,10,right,right,0.011
MSB1996WRNO,2019-10-08-12-36-45,2,60,0.6130536608973254,right,both,biased-switch,100,10,right,left,0.072
MSB1996WRNO,2019-10-08-12-36-45,2,61,0.5163316743746054,right,probe,biased-switch,-1,40,left,left,0.061
MSB1996WRNO,2019-10-08-12-36-45,2,62,0.6153469930000132,right,both,biased-switch,101,40,left,left,1.216
MSB1996WRNO,2019-10-08-12-36-45,2,63,0.693858180685277,right,probe,biased-switch,-1,-30,right,right,1.017
MSB1996WRNO,2019-10-08-12-36-45,2,64,0.6256585515400372,right,both,biased-switch,99,-30,right,left,0.181
MSB1996WRNO,2019-10-08-12-36-45,2,65,0.5428786868355973,right,probe,ambiguous-switch,-1,-5,left,left,0.169
MSB1996WRNO,2019-10-08-12-36-45,2,66,0.6128454087964508,right,both,ambiguous-switch,93,-5,left,left,1.269
MSB1996WRNO,2019-10-08-12-36-45,2,67,0.6950823313823724,right,probe,ambiguous-switch,-1,-10,left,left,0.306
MSB1996WRNO,2019-10-08-12-36-45,2,68,0.5300256053449719,right,both,ambiguous-switch,94,-10,left,left,1.069
MSB1996WRNO,2019-10-08-12-36-45,2,69,0.5694264245525239,right,probe,ambiguous-switch,-1,5,right,right,0.184
MSB1996WRNO,2019-10-08-12-36-45,2,70,0.6766822649340253,right,both,ambiguous-switch,102,5,right,right,0.156
MSB1996WRNO,2019-10-08-12-36-45,2,71,0.6469537273107109,left,probe,ambiguous-switch,-1,40,left,left,0.19
MSB1996WRNO,2019-10-08-12-36-45,2,72,0.5838822434484028,left,both,ambiguous-switch,105,40,left,left,0.103
MSB1996WRNO,2019-10-08-12-36-45,2,73,0.6535201927192729,left,probe,biased-switch,-1,20,left,left,0.198
MSB1996WRNO,2019-10-08-12-36-45,2,74,0.6373309679507085,left,both,biased-switch,90,20,left,left,1.233
MSB1996WRNO,2019-10-08-12-36-45,2,75,0.6107325382930274,left,probe,ambiguous-switch,-1,0,left,left,0.195
MSB1996WRNO,2019-10-08-12-36-45,2,76,0.577526946744749,left,both,ambiguous-switch,93,0,left,left,0.192
MSB1996WRNO,2019-10-08-12-36-45,2,77,0.6701948420514786,left,probe,ambiguous-switch,-1,-30,left,left,0.167
MSB1996WRNO,2019-10-08-12-36-45,2,78,0.6059087337910597,left,both,ambiguous-switch,94,-30,left,left,0.173
MSB1996WRNO,2019-10-08-12-36-45,2,79,0.5812580855965567,right,probe,biased-switch,-1,-20,right,right,0.027
MSB1996WRNO,2019-10-08-12-36-45,2,80,0.6547132283941632,right,both,biased-switch,105,-20,right,right,0.178
MSB1996WRNO,2019-10-08-12-36-45,3,1,0.5676642723545996,right,probe,biased-switch,-1,20,right,right,0.255
MSB1996WRNO,2019-10-08-12-36-45,3,2,0.6094870736174169,right,both,biased-switch,100,20,right,left,0.17
MSB1996WRNO,2019-10-08-12-36-45,3,3,0.5599804098157347,right,probe,biased-switch,-1,5,left,left,0.049
MSB1996WRNO,2019-10-08-12-36-45,3,4,0.6657772672343075,right,both,biased-switch,94,5,left,right,1.138
MSB1996WRNO,2019-10-08-12-36-45,3,5,0.662013126360844,right,probe,ambiguous-switch,-1,-20,right,right,0.208
MSB1996WRNO,2019-10-08-12-36-45,3,6,0.6951405298587862,right,both,ambiguous-switch,107,-20,right,left,0.143
MSB1996WRNO,2019-10-08-12-36-45,3,7,0.687008131689544,left,probe,biased-switch,-1,10,left,left,0.172
MSB1996WRNO,2019-10-08-12-36-45,3,8,0.6236801662798128,left,both,biased-switch,102,10,left,right,0.841
MSB1996WRNO,2019-10-08-12-36-45,3,9,0.6109564891817222,right,probe,ambiguous-switch,-1,30,right,right,0.16
MSB1996WRNO,2019-10-08-12-36-45,3,10,0.6121768850285272,right,both,ambiguous-switch,99,30,right,left,0.669
MSB1996WRNO,2019-10-08-12-36-45,3,11,0.5753894011371969,right,probe,biased-switch,-1,0,right,right,0.077
MSB1996WRNO,2019-10-08-12-36-45,3,12,0.5941038232895455,right,both,biased-switch,106,0,right,right,0.19
MSB1996WRNO,2019-10-08-12-36-45,3,13,0.6657027692585775,left,probe,ambiguous-switch,-1,0,left,left,0.171
MSB1996WRNO,2019-10-08-12-36-45,3,14,0.5300019773620661,left,both,ambiguous-switch,90,0,left,left,0.069
MSB1996WRNO,2019-10-08-12-36-45,3,15,0.6009601980234848,right,probe,biased-switch,-1,40,right,right,0.095
MSB1996WRNO,2019-10-08-12-36-45,3,16,0.5604519897456568,right,both,biased-switch,102,40,right,right,0.109
MSB1996WRNO,2019-10-08-12-36-45,3,17,0.599996661116751,right,probe,biased-switch,-1,-10,right,right,0.173
MSB1996WRNO,2019-10-08-12-36-45,3,18,0.5658377220617453,right,both,biased-switch,91,-10,right,right,0.148
MSB1996WRNO,2019-10-08-12-36-45,3,19,0.5719327183609718,left,probe,ambiguous-switch,-1,5,left,left,0.016
MSB1996WRNO,2019-10-08-12-36-45,3,20,0.5952439982281699,left,both,ambiguous-switch,110,5,left,left,0.147
MSB1996WRNO,2019-10-08-12-36-45,3,21,0.6491444894068759,right,probe,ambiguous-switch,-1,10,right,right,0.218
MSB1996WRNO,2019-10-08-12-36-45,3,22,0.6012764396659084,right,both,ambiguous-switch,108,10,right,right,0.173
MSB1996WRNO,2019-10-08-12-36-45,3,23,0.6858483628672478,left,probe,biased-switch,-1,30,left,left,0.123
MSB1996WRNO,2019-10-08-12-36-45,3,24,0.6479816052770048,left,both,biased-switch,100,30,left,left,1.037
MSB1996WRNO,2019-10-08-12-36-45,3,25,0.6864094068537734,right,probe,ambiguous-switch,-1,-5,right,right,0.181
MSB1996WRNO,2019-10-08-12-36-45,3,26,0.6298712230078197,right,both,ambiguous-switch,96,-5,right,right,0.14
MSB1996WRNO,2019-10-08-12-36-45,3,27,0.5334363220211388,right,probe,biased-switch,-1,-30,right,right,0.199
MSB1996WRNO,2019-10-08-12-36-45,3,28,0.5985218289695968,right,both,biased-switch,96,-30,right,right,0.19
MSB1996WRNO,2019-10-08-12-36-45,3,29,0.507071252424541,left,probe,ambiguous-switch,-1,-30,left,left,0.168
MSB1996WRNO,2019-10-08-12-36-45,3,30,0.566696958116531,left,both,ambiguous-switch,95,-30,left,left,0.031
MSB1996WRNO,2019-10-08-12-36-45,3,31,0.5120835003965626,right,probe,ambiguous-switch,-1,-10,right,right,0.181
MSB1996WRNO,2019-10-08-12-36-45,3,32,0.6386371806830821,right,both,ambiguous-switch,101,-10,right,right,0.04
MSB1996WRNO,2019-10-08-12-36-45,3,33,0.5457264959030914,right,probe,ambiguous-switch,-1,40,right,right,0.096
MSB1996WRNO,2019-10-08-12-36-45,3,34,0.6993210794993925,right,both,ambiguous-switch,95,40,right,left,0.06
MSB1996WRNO,2019-10-08-12-36-45,3,35,0.6122781276223507,right,probe,ambiguous-switch,-1,20,right,right,0.202
MSB1996WRNO,2019-10-08-12-36-45,3,36,0.5952031906005437,right,both,ambiguous-switch,97,20,right,right,0.179
MSB1996WRNO,2019-10-08-12-36-45,3,37,0.5976657230957452,left,probe,biased-switch,-1,-5,left,left,0.181
MSB1996WRNO,2019-10-08-12-36-45,3,38,0.5651024438979569,left,both,biased-switch,107,-5,left,left,0.119
MSB1996WRNO,2019-10-08-12-36-45,3,39,0.6578841728274581,right,probe,biased-switch,-1,-20,right,right,0.162
MSB1996WRNO,2019-10-08-12-36-45,3,40,0.5890781339559895,right,both,biased-switch,92,-20,right,right,0.148
MSB1996WRNO,2019-10-08-12-36-45,3,41,0.693422073431204,left,probe,biased-switch,-1,20,left,left,0.065
MSB1996WRNO,2019-10-08-12-36-45,3,42,0.6470761705059774,left,both,biased-switch,97,20,left,left,0.07
MSB1996WRNO,2019-10-08-12-36-45,3,43,0.5491251305153644,left,probe,biased-switch,-1,5,left,left,0.04
MSB1996WRNO,2019-10-08-12-36-45,3,44,0.5026482164519013,left,both,biased-switch,95,5,left,left,0.207
MSB1996WRNO,2019-10-08-12-36-45,3,45,0.6544071607762486,left,probe,ambiguous-switch,-1,-20,left,left,0.175
MSB1996WRNO,2019-10-08-12-36-45,3,46,0.6765774493520851,left,both,ambiguous-switch,109,-20,left,left,0.073
MSB1996WRNO,2019-10-08-12-36-45,3,47,0.5095640803339798,right,probe,biased-switch,-1,10,right,right,0.284
MSB1996WRNO,2019-10-08-12-36-45,3,48,0.565960975733785,right,both,biased-switch,98,10,right,left,0.338
MSB1996WRNO,2019-10-08-12-36-45,3,49,0.5448859787650598,left,probe,ambiguous-switch,-1,30,left,left,0.169
MSB1996WRNO,2019-10-08-12-36-45,3,50,0.6282849909601469,left,both,ambiguous-switch,106,30,left,left,0.126
MSB1996WRNO,2019-10-08-12-36-45,3,51,0.5967298957502101,right,probe,biased-switch,-1,0,right,right,0.115
MSB1996WRNO,2019-10-08-12-36-45,3,52,0.5749650061598068,right,both,biased-switch,97,0,right,right,0.134
MSB1996WRNO,2019-10-08-12-36-45,3,53,0.5619603403593249,right,probe,ambiguous-switch,-1,0,left,left,0.178
MSB1996WRNO,2019-10-08-12-36-45,3,54,0.6160889073098662,right,both,ambiguous-switch,94,0,left,right,2.776
MSB1996WRNO,2019-10-08-12-36-45,3,55,0.5639608278869037,right,probe,biased-switch,-1,40,left,left,0.124
MSB1996WRNO,2019-10-08-12-36-45,3,56,0.5201431457842872,right,both,biased-switch,108,40,left,right,0.089
MSB1996WRNO,2019-10-08-12-36-45,3,57,0.651417146063056,left,probe,biased-switch,-1,-10,left,left,0.04
MSB1996WRNO,2019-10-08-12-36-45,3,58,0.5862053129918358,left,both,biased-switch,102,-10,left,left,0.018
MSB1996WRNO,2019-10-08-12-36-45,3,59,0.6871285826424678,left,probe,ambiguous-switch,-1,5,left,left,0.084
MSB1996WRNO,2019-10-08-12-36-45,3,60,0.5510919972042737,left,both,ambiguous-switch,97,5,left,left,0.114
MSB1996WRNO,2019-10-08-12-36-45,3,61,0.6497455863824223,right,probe,ambiguous-switch,-1,10,right,right,0.07
MSB1996WRNO,2019-10-08-12-36-45,3,62,0.6947560053838118,right,both,ambiguous-switch,104,10,right,right,0.154
MSB1996WRNO,2019-10-08-12-36-45,3,63,0.6497005777143259,right,probe,biased-switch,-1,30,right,right,0.19
MSB1996WRNO,2019-10-08-12-36-45,3,64,0.6194922225515915,right,both,biased-switch,110,30,right,right,0.188
MSB1996WRNO,2019-10-08-12-36-45,3,65,0.6638722418156565,right,probe,ambiguous-switch,-1,-5,left,left,0.213
MSB1996WRNO,2019-10-08-12-36-45,3,66,0.6883094172691955,right,both,ambiguous-switch,109,-5,left,right,0.04
MSB1996WRNO,2019-10-08-12-36-45,3,67,0.591659207383957,left,probe,biased-switch,-1,-30,left,left,0.148
MSB1996WRNO,2019-10-08-12-36-45,3,68,0.5609603628337962,left,both,biased-switch,107,-30,left,left,0.073
MSB1996WRNO,2019-10-08-12-36-45,3,69,0.5836381790983035,right,probe,ambiguous-switch,-1,-30,right,right,0.176
MSB1996WRNO,2019-10-08-12-36-45,3,70,0.578776383565158,right,both,ambiguous-switch,106,-30,right,right,0.169
MSB1996WRNO,2019-10-08-12-36-45,3,71,0.6547841410809859,right,probe,ambiguous-switch,-1,-10,right,right,0.175
MSB1996WRNO,2019-10-08-12-36-45,3,72,0.6125650886939447,right,both,ambiguous-switch,102,-10,right,left,0.041
MSB1996WRNO,2019-10-08-12-36-45,3,73,0.6923348132449643,right,probe,ambiguous-switch,-1,40,right,right,0.08
MSB1996WRNO,2019-10-08-12-36-45,3,74,0.6058922298149023,right,both,ambiguous-switch,103,40,right,right,0.141
MSB1996WRNO,2019-10-08-12-36-45,3,75,0.5166649855345488,right,probe,ambiguous-switch,-1,20,right,right,0.194
MSB1996WRNO,2019-10-08-12-36-45,3,76,0.5844893138842245,right,both,ambiguous-switch,92,20,right,left,0.081
MSB1996WRNO,2019-10-08-12-36-45,3,77,0.6062869989328012,left,probe,biased-switch,-1,-5,left,left,0.083
MSB1996WRNO,2019-10-08-12-36-45,3,78,0.5236225558069928,left,both,biased-switch,106,-5,left,left,0.294
MSB1996WRNO,2019-10-08-12-36-45,3,79,0.5228445886569529,left,probe,biased-switch,-1,-20,left,left,0.208
MSB1996WRNO,2019-10-08-12-36-45,3,80,0.5584582420462934,left,both,biased-switch,106,-20,left,left,0.047
MSB1996WRNO,2019-10-08-12-36-45,4,1,0.5857849619791333,right,probe,biased-switch,-1,-20,right,right,0.205
MSB1996WRNO,2019-10-08-12-36-45,4,2,0.5829608152078777,right,both,biased-switch,93,-20,right,left,0.097
MSB1996WRNO,2019-10-08-12-36-45,4,3,0.5855208238350673,left,probe,biased-switch,-1,0,left,left,0.232
MSB1996WRNO,2019-10-08-12-36-45,4,4,0.6090305789859655,left,both,biased-switch,108,0,left,left,0.171
MSB1996WRNO,2019-10-08-12-36-45,4,5,0.6516408483697174,left,probe,ambiguous-switch,-1,-10,left,left,0.186
MSB1996WRNO,2019-10-08-12-36-45,4,6,0.5249082787360956,left,both,ambiguous-switch,93,-10,left,left,0.093
MSB1996WRNO,2019-10-08-12-36-45,4,7,0.6060093418138315,right,probe,biased-switch,-1,5,right,right,0.136
MSB1996WRNO,2019-10-08-12-36-45,4,8,0.6234026280526144,right,both,biased-switch,91,5,right,right,0.19
MSB1996WRNO,2019-10-08-12-36-45,4,9,0.679825838139903,right,probe,biased-switch,-1,10,right,right,0.184
MSB1996WRNO,2019-10-08-12-36-45,4,10,0.6065209951260135,right,both,biased-switch,100,10,right,right,1.37
MSB1996WRNO,2019-10-08-12-36-45,4,11,0.6488335646810701,right,probe,ambiguous-switch,-1,-30,right,right,0.155
MSB1996WRNO,2019-10-08-12-36-45,4,12,0.5443983192732633,right,both,ambiguous-switch,105,-30,right,right,0.01
MSB1996WRNO,2019-10-08-12-36-45,4,13,0.5825268999990937,left,probe,ambiguous-switch,-1,20,left,left,0.05
MSB1996WRNO,2019-10-08-12-36-45,4,14,0.5881496035410908,left,both,ambiguous-switch,92,20,left,left,1.169
MSB1996WRNO,2019-10-08-12-36-45,4,15,0.6808213410926306,left,probe,ambiguous-switch,-1,10,left,left,0.113
MSB1996WRNO,2019-10-08-12-36-45,4,16,0.6405740949266858,left,both,ambiguous-switch,108,10,left,left,0.18
MSB1996WRNO,2019-10-08-12-36-45,4,17,0.5520380025585429,right,probe,ambiguous-switch,-1,-5,right,right,0.034
MSB1996WRNO,2019-10-08-12-36-45,4,18,0.5124335905158957,right,both,ambiguous-switch,103,-5,right,right,0.035
MSB1996WRNO,2019-10-08-12-36-45,4,19,0.6808618185211057,left,probe,biased-switch,-1,-10,left,left,0.224
MSB1996WRNO,2019-10-08-12-36-45,4,20,0.6788400866928399,left,both,biased-switch,93,-10,left,left,0.113
MSB1996WRNO,2019-10-08-12-36-45,4,21,0.5737555895994482,left,probe,biased-switch,-1,-30,left,left,0.148
MSB1996WRNO,2019-10-08-12-36-45,4,22,0.5459011872877304,left,both,biased-switch,107,-30,left,left,0.158
MSB1996WRNO,2019-10-08-12-36-45,4,23,0.6671538509535283,right,probe,ambiguous-switch,-1,30,right,right,0.191
MSB1996WRNO,2019-10-08-12-36-45,4,24,0.565206801710508,right,both,ambiguous-switch,104,30,right,right,0.093
MSB1996WRNO,2019-10-08-12-36-45,4,25,0.6187466288167623,left,probe,biased-switch,-1,20,left,left,0.055
MSB1996WRNO,2019-10-08-12-36-45,4,26,0.6015356975408173,left,both,biased-switch,109,20,left,left,0.983
MSB1996WRNO,2019-10-08-12-36-45,4,27,0.6898974973612526,right,probe,biased-switch,-1,-5,right,right,0.218
MSB1996WRNO,2019-10-08-12-36-45,4,28,0.5031184491196136,right,both,biased-switch,101,-5,right,right,0.345
MSB1996WRNO,2019-10-08-12-36-45,4,29,0.5090877564745238,right,probe,biased-switch,-1,30,right,right,0.179
MSB1996WRNO,2019-10-08-12-36-45,4,30,0.6202351443412495,right,both,biased-switch,104,30,right,right,3.198
MSB1996WRNO,2019-10-08-12-36-45,4,31,0.6066003667024866,left,probe,ambiguous-switch,-1,40,left,left,0.078
MSB1996WRNO,2019-10-08-12-36-45,4,32,0.5454141732990252,left,both,ambiguous-switch,100,40,left,left,0.136
MSB1996WRNO,2019-10-08-12-36-45,4,33,0.5213782673548295,left,probe,ambiguous-switch,-1,0,left,left,0.064
MSB1996WRNO,2019-10-08-12-36-45,4,34,0.5239156851144486,left,both,ambiguous-switch,99,0,left,left,0.069
MSB1996WRNO,2019-10-08-12-36-45,4,35,0.6494628550709101,left,probe,ambiguous-switch,-1,5,left,left,1.11
MSB1996WRNO,2019-10-08-12-36-45,4,36,0.637035973884977,left,both,ambiguous-switch,103,5,left,left,0.183
MSB1996WRNO,2019-10-08-12-36-45,4,37,0.5101381168165227,left,probe,biased-switch,-1,40,left,left,0.926
MSB1996WRNO,2019-10-08-12-36-45,4,38,0.6545753212200339,left,both,biased-switch,109,40,left,left,0.144
MSB1996WRNO,2019-10-08-12-36-45,4,39,0.5664484265679683,right,probe,ambiguous-switch,-1,-20,right,right,0.164
MSB1996WRNO,2019-10-08-12-36-45,4,40,0.5622726096026609,right,both,ambiguous-switch,103,-20,right,right,0.029
MSB1996WRNO,2019-10-08-12-36-45,4,41,0.6682973552431122,right,probe,biased-switch,-1,-20,right,right,1.044
MSB1996WRNO,2019-10-08-12-36-45,4,42,0.6438725404766074,right,both,biased-switch,96,-20,right,right,0.18
MSB1996WRNO,2019-10-08-12-36-45,4,43,0.6059146458156964,right,probe,biased-switch,-1,0,right,right,0.17
MSB1996WRNO,2019-10-08-12-36-45,4,44,0.5614699887025473,right,both,biased-switch,106,0,right,right,0.017
MSB1996WRNO,2019-10-08-12-36-45,4,45,0.6903603857068155,right,probe,ambiguous-switch,-1,-10,right,right,1.742
MSB1996WRNO,2019-10-08-12-36-45,4,46,0.588717667858893,right,both,ambiguous-switch,96,-10,right,left,0.306
MSB1996WRNO,2019-10-08-12-36-45,4,47,0.6591929178270428,right,probe,biased-switch,-1,5,right,right,0.064
MSB1996WRNO,2019-10-08-12-36-45,4,48,0.668108112396958,right,both,biased-switch,92,5,right,left,0.099
MSB1996WRNO,2019-10-08-12-36-45,4,49,0.616985755240535,left,probe,biased-switch,-1,10,left,left,0.205
MSB1996WRNO,2019-10-08-12-36-45,4,50,0.6372734824663033,left,both,biased-switch,97,10,left,left,0.098
MSB1996WRNO,2019-10-08-12-36-45,4,51,0.5163080759184514,left,probe,ambiguous-switch,-1,-30,left,left,0.182
MSB1996WRNO,2019-10-08-12-36-45,4,52,0.6084839441197964,left,both,ambiguous-switch,107,-30,left,left,0.213
MSB1996WRNO,2019-10-08-12-36-45,4,53,0.6421709546135722,right,probe,ambiguous-switch,-1,20,right,right,0.253
MSB1996WRNO,2019-10-08-12-36-45,4,54,0.5933664749008335,right,both,ambiguous-switch,101,20,right,left,0.207
MSB1996WRNO,2019-10-08-12-36-45,4,55,0.5511945594534813,left,probe,ambiguous-switch,-1,10,left,left,0.192
MSB1996WRNO,2019-10-08-12-36-45,4,56,0.6413109776474493,left,both,ambiguous-switch,103,10,left,left,0.172
MSB1996WRNO,2019-10-08-12-36-45,4,57,0.6796122876460806,left,probe,ambiguous-switch,-1,-5,left,left,0.184
MSB1996WRNO,2019-10-08-12-36-45,4,58,0.5635233029705145,left,both,ambiguous-switch,105,-5,left,left,0.177
MSB1996WRNO,2019-10-08-12-36-45,4,59,0.6419932213316263,right,probe,biased-switch,-1,-10,right,right,0.133
MSB1996WRNO,2019-10-08-12-36-45,4,60,0.6866713512218386,right,both,biased-switch,99,-10,right,right,0.266
MSB1996WRNO,2019-10-08-12-36-45,4,61,0.6180415222932226,right,probe,biased-switch,-1,-30,right,right,0.179
MSB1996WRNO,2019-10-08-12-36-45,4,62,0.5111413200713222,right,both,biased-switch,98,-30,right,right,0.926
MSB1996WRNO,2019-10-08-12-36-45,4,63,0.5690199924694279,right,probe,ambiguous-switch,-1,30,right,right,0.209
MSB1996WRNO,2019-10-08-12-36-45,4,64,0.5014606582767105,right,both,ambiguous-switch,105,30,right,left,0.113
MSB1996WRNO,2019-10-08-12-36-45,4,65,0.6291217374203333,left,probe,biased-switch,-1,20,left,left,0.177
MSB1996WRNO,2019-10-08-12-36-45,4,66,0.6611379668619866,left,both,biased-switch,97,20,left,left,0.134
MSB1996WRNO,2019-10-08-12-36-45,4,67,0.5379217346270225,right,probe,biased-switch,-1,-5,right,right,0.184
MSB1996WRNO,2019-10-08-12-36-45,4,68,0.5723433709311777,right,both,biased-switch,104,-5,right,right,0.065
MSB1996WRNO,2019-10-08-12-36-45,4,69,0.6715285106210517,left,probe,biased-switch,-1,30,left,left,0.13
MSB1996WRNO,2019-10-08-12-36-45,4,70,0.691450948174532,left,both,biased-switch,104,30,left,left,0.236
MSB1996WRNO,2019-10-08-12-36-45,4,71,0.6333633455603404,right,probe,ambiguous-switch,-1,40,right,right,0.227
MSB1996WRNO,2019-10-08-12-36-45,4,72,0.6173159210566372,right,both,ambiguous-switch,105,40,right,right,0.162
MSB1996WRNO,2019-10-08-12-36-45,4,73,0.6632642469904335,right,probe,ambiguous-switch,-1,0,right,right,0.112
MSB1996WRNO,2019-10-08-12-36-45,4,74,0.5932520204226374,right,both,ambiguous-switch,105,0,right,right,0.065
MSB1996WRNO,2019-10-08-12-36-45,4,75,0.5012760376214042,right,probe,ambiguous-switch,-1,5,right,right,0.183
MSB1996WRNO,2019-10-08-12-36-45,4,76,0.5655999495431405,right,both,ambiguous-switch,93,5,right,right,0.657
MSB1996WRNO,2019-10-08-12-36-45,4,77,0.5759297355302986,left,probe,biased-switch,-1,40,left,left,0.128
MSB1996WRNO,2019-10-08-12-36-45,4,78,0.6392867897367446,left,both,biased-switch,106,40,left,left,0.065
MSB1996WRNO,2019-10-08-12-36-45,4,79,0.6548279847526383,right,probe,ambiguous-switch,-1,-20,right,right,0.119
MSB1996WRNO,2019-10-08-12-36-45,4,80,0.6492755709214107,right,both,ambiguous-switch,107,-20,right,right,0.066
MSB1996WRNO,2019-10-08-12-36-45,5,1,0.5925243240713364,left,probe,ambiguous-switch,-1,40,left,left,0.218
MSB1996WRNO,2019-10-08-12-36-45,5,2,0.663384726517007,left,both,ambiguous-switch,102,40,left,left,0.116
MSB1996WRNO,2019-10-08-12-36-45,5,3,0.5966515647693772,left,probe,ambiguous-switch,-1,20,left,left,0.008
MSB1996WRNO,2019-10-08-12-36-45,5,4,0.6451547315106387,left,both,ambiguous-switch,109,20,left,left,0.056
MSB1996WRNO,2019-10-08-12-36-45,5,5,0.6627850273253972,left,probe,ambiguous-switch,-1,-5,left,left,0.035
MSB1996WRNO,2019-10-08-12-36-45,5,6,0.6784972888944815,left,both,ambiguous-switch,93,-5,left,left,0.15
MSB1996WRNO,2019-10-08-12-36-45,5,7,0.5414271359503773,left,probe,ambiguous-switch,-1,-30,left,left,0.582
MSB1996WRNO,2019-10-08-12-36-45,5,8,0.5047354899439196,left,both,ambiguous-switch,94,-30,left,left,0.219
MSB1996WRNO,2019-10-08-12-36-45,5,9,0.6077289814805296,left,probe,ambiguous-switch,-1,10,left,left,0.405
MSB1996WRNO,2019-10-08-12-36-45,5,10,0.5663878995717964,left,both,ambiguous-switch,105,10,left,left,0.125
MSB1996WRNO,2019-10-08-12-36-45,5,11,0.6115545357456702,left,probe,biased-switch,-1,-5,left,left,0.188
MSB1996WRNO,2019-10-08-12-36-45,5,12,0.6293902227610929,left,both,biased-switch,108,-5,left,left,0.154
MSB1996WRNO,2019-10-08-12-36-45,5,13,0.5323302898743317,right,probe,biased-switch,-1,-10,right,right,0.191
MSB1996WRNO,2019-10-08-12-36-45,5,14,0.6902926320071878,right,both,biased-switch,97,-10,right,left,0.154
MSB1996WRNO,2019-10-08-12-36-45,5,15,0.6285882428130377,left,probe,biased-switch,-1,30,left,left,0.151
MSB1996WRNO,2019-10-08-12-36-45,5,16,0.5467163516814841,left,both,biased-switch,97,30,left,left,0.169
MSB1996WRNO,2019-10-08-12-36-45,5,17,0.663424326946319,right,probe,ambiguous-switch,-1,-10,right,right,0.187
MSB1996WRNO,2019-10-08-12-36-45,5,18,0.5756248728410198,right,both,ambiguous-switch,94,-10,right,left,0.114
MSB1996WRNO,2019-10-08-12-36-45,5,19,0.5011095034048092,left,probe,biased-switch,-1,-20,left,left,0.129
MSB1996WRNO,2019-10-08-12-36-45,5,20,0.6685171158691349,left,both,biased-switch,92,-20,left,left,0.172
MSB1996WRNO,2019-10-08-12-36-45,5,21,0.6762217286045853,right,probe,biased-switch,-1,5,right,right,0.133
MSB1996WRNO,2019-10-08-12-36-45,5,22,0.6536461327921017,right,both,biased-switch,97,5,right,right,0.091
MSB1996WRNO,2019-10-08-12-36-45,5,23,0.5168341957130951,right,probe,ambiguous-switch,-1,5,right,right,0.123
MSB1996WRNO,2019-10-08-12-36-45,5,24,0.6940272012711576,right,both,ambiguous-switch,105,5,right,right,0.165
MSB1996WRNO,2019-10-08-12-36-45,5,25,0.5436537891440761,left,probe,biased-switch,-1,10,left,left,0.073
MSB1996WRNO,2019-10-08-12-36-45,5,26,0.6049438144033943,left,both,biased-switch,97,10,left,left,0.174
MSB1996WRNO,2019-10-08-12-36-45,5,27,0.556913829054559,right,probe,ambiguous-switch,-1,-20,right,right,0.114
MSB1996WRNO,2019-10-08-12-36-45,5,28,0.5460451176353529,right,both,ambiguous-switch,94,-20,right,right,0.244
MSB1996WRNO,2019-10-08-12-36-45,5,29,0.5762549661589584,right,probe,biased-switch,-1,0,left,left,0.223
MSB1996WRNO,2019-10-08-12-36-45,5,30,0.6336676757460665,right,both,biased-switch,106,0,left,right,2.96
MSB1996WRNO,2019-10-08-12-36-45,5,31,0.5488999910248492,right,probe,ambiguous-switch,-1,0,right,right,0.139
MSB1996WRNO,2019-10-08-12-36-45,5,32,0.6338051204511082,right,both,ambiguous-switch,94,0,right,right,0.11
MSB1996WRNO,2019-10-08-12-36-45,5,33,0.5911691060531425,right,probe,biased-switch,-1,40,right,right,0.018
MSB1996WRNO,2019-10-08-12-36-45,5,34,0.5908158959295157,right,both,biased-switch,103,40,right,left,0.945
MSB1996WRNO,2019-10-08-12-36-45,5,35,0.6004152678233678,left,probe,biased-switch,-1,20,left,left,0.117
MSB1996WRNO,2019-10-08-12-36-45,5,36,0.5461337582818269,left,both,biased-switch,91,20,left,left,0.195
MSB1996WRNO,2019-10-08-12-36-45,5,37,0.510765753797729,left,probe,biased-switch,-1,-30,left,left,0.163
MSB1996WRNO,2019-10-08-12-36-45,5,38,0.5830816468785311,left,both,biased-switch,102,-30,left,left,0.203
MSB1996WRNO,2019-10-08-12-36-45,5,39,0.6509190698358186,left,probe,ambiguous-switch,-1,30,left,left,0.085
MSB1996WRNO,2019-10-08-12-36-45,5,40,0.6087339743995678,left,both,ambiguous-switch,96,30,left,left,0.054
MSB1996WRNO,2019-10-08-12-36-45,5,41,0.6394370108556112,left,probe,ambiguous-switch,-1,40,left,left,0.134
MSB1996WRNO,2019-10-08-12-36-45,5,42,0.6556045154805988,left,both,ambiguous-switch,94,40,left,left,0.197
MSB1996WRNO,2019-10-08-12-36-45,5,43,0.5492951429154959,right,probe,ambiguous-switch,-1,20,right,right,0.214
MSB1996WRNO,2019-10-08-12-36-45,5,44,0.6435963814758081,right,both,ambiguous-switch,110,20,right,left,0.412
MSB1996WRNO,2019-10-08-12-36-45,5,45,0.6468677200224807,right,probe,ambiguous-switch,-1,-5,right,right,0.148
MSB1996WRNO,2019-10-08-12-36-45,5,46,0.6035233735526704,right,both,ambiguous-switch,96,-5,right,right,0.105
MSB1996WRNO,2019-10-08-12-36-45,5,47,0.6102130865182107,left,probe,ambiguous-switch,-1,-30,left,left,0.193
MSB1996WRNO,2019-10-08-12-36-45,5,48,0.5682198653578321,left,both,ambiguous-switch,97,-30,left,left,0.128
MSB1996WRNO,2019-10-08-12-36-45,5,49,0.5556393562860916,right,probe,ambiguous-switch,-1,10,right,right,0.168
MSB1996WRNO,2019-10-08-12-36-45,5,50,0.6467003659882586,right,both,ambiguous-switch,107,10,right,right,0.103
MSB1996WRNO,2019-10-08-12-36-45,5,51,0.5961398889493448,left,probe,biased-switch,-1,-5,left,left,0.121
MSB1996WRNO,2019-10-08-12-36-45,5,52,0.5516068285051408,left,both,biased-switch,96,-5,left,left,0.088
MSB1996WRNO,2019-10-08-12-36-45,5,53,0.6074534801473249,left,probe,biased-switch,-1,-10,left,left,0.174
MSB1996WRNO,2019-10-08-12-36-45,5,54,0.6436619087977924,left,both,biased-switch,106,-10,left,left,0.189
MSB1996WRNO,2019-10-08-12-36-45,5,55,0.6807396093590324,left,probe,biased-switch,-1,30,left,left,0.176
MSB1996WRNO,2019-10-08-12-36-45,5,56,0.5146028525956262,left,both,biased-switch,97,30,left,left,0.161
MSB1996WRNO,2019-10-08-12-36-45,5,57,0.5727064908498962,left,probe,ambiguous-switch,-1,-10,left,left,0.106
MSB1996WRNO,2019-10-08-12-36-45,5,58,0.5708859486063508,left,both,ambiguous-switch,96,-10,left,left,0.285
MSB1996WRNO,2019-10-08-12-36-45,5,59,0.5266784627789741,right,probe,biased-switch,-1,-20,right,right,0.248
MSB1996WRNO,2019-10-08-12-36-45,5,60,0.6106166615382519,right,both,biased-switch,102,-20,right,right,0.215
MSB1996WRNO,2019-10-08-12-36-45,5,61,0.6858435319271964,right,probe,biased-switch,-1,5,right,right,0.036
MSB1996WRNO,2019-10-08-12-36-45,5,62,0.5761763419179635,right,both,biased-switch,104,5,right,right,0.1
MSB1996WRNO,2019-10-08-12-36-45,5,63,0.5987981053955105,right,probe,ambiguous-switch,-1,5,left,left,0.205
MSB1996WRNO,2019-10-08-12-36-45,5,64,0.6725797787469666,right,both,ambiguous-switch,92,5,left,right,0.094
MSB1996WRNO,2019-10-08-12-36-45,5,65,0.5442842659418896,right,probe,biased-switch,-1,10,left,left,0.231
MSB1996WRNO,2019-10-08-12-36-45,5,66,0.5567558615921337,right,both,biased-switch,105,10,left,left,0.141
MSB1996WRNO,2019-10-08-12-36-45,5,67,0.6498907329064587,left,probe,ambiguous-switch,-1,-20,left,left,0.14
MSB1996WRNO,2019-10-08-12-36-45,5,68,0.536212441405608,left,both,ambiguous-switch,102,-20,left,left,0.009
MSB1996WRNO,2019-10-08-12-36-45,5,69,0.6711297051509463,left,probe,biased-switch,-1,0,left,left,0.243
MSB1996WRNO,2019-10-08-12-36-45,5,70,0.6095301797544842,left,both,biased-switch,99,0,left,left,0.126
MSB1996WRNO,2019-10-08-12-36-45,5,71,0.5412439947367191,right,probe,ambiguous-switch,-1,0,right,right,0.14
MSB1996WRNO,2019-10-08-12-36-45,5,72,0.5392051177544099,right,both,ambiguous-switch,104,0,right,right,0.292
MSB1996WRNO,2019-10-08-12-36-45,5,73,0.5106395478075957,right,probe,biased-switch,-1,40,right,right,0.154
MSB1996WRNO,2019-10-08-12-36-45,5,74,0.5790256244701115,right,both,biased-switch,96,40,right,right,0.229
MSB1996WRNO,2019-10-08-12-36-45,5,75,0.667205539684859,right,probe,biased-switch,-1,20,right,right,0.06
MSB1996WRNO,2019-10-08-12-36-45,5,76,0.6216822009003506,right,both,biased-switch,104,20,right,right,1.188
MSB1996WRNO,2019-10-08-12-36-45,5,77,0.6834137571827347,right,probe,biased-switch,-1,-30,right,right,0.171
MSB1996WRNO,2019-10-08-12-36-45,5,78,0.622293415386618,right,both,biased-switch,100,-30,right,right,0.252
MSB1996WRNO,2019-10-08-12-36-45,5,79,0.608176676481119,left,probe,ambiguous-switch,-1,30,right,right,1.239
MSB1996WRNO,2019-10-08-12-36-45,5,80,0.6829263091195173,left,both,ambiguous-switch,108,30,right,left,0.238
MSB1996WRNO,2019-10-08-12-36-45,6,1,0.5999943999590185,left,probe,biased-switch,-1,-5,left,left,0.183
MSB1996WRNO,2019-10-08-12-36-45,6,2,0.6038953392232919,left,both,biased-switch,100,-5,left,left,0.209
MSB1996WRNO,2019-10-08-12-36-45,6,3,0.5680586730449955,left,probe,biased-switch,-1,-10,left,left,0.138
MSB1996WRNO,2019-10-08-12-36-45,6,4,0.6712418013649843,left,both,biased-switch,92,-10,left,left,0.17
MSB1996WRNO,2019-10-08-12-36-45,6,5,0.5026913641224496,right,probe,ambiguous-switch,-1,30,right,right,0.087
MSB1996WRNO,2019-10-08-12-36-45,6,6,0.6632317561732932,right,both,ambiguous-switch,95,30,right,left,0.077
MSB1996WRNO,2019-10-08-12-36-45,6,7,0.6189611139703588,right,probe,biased-switch,-1,10,right,right,0.121
MSB1996WRNO,2019-10-08-12-36-45,6,8,0.5514991511529892,right,both,biased-switch,91,10,right,left,0.041
MSB1996WRNO,2019-10-08-12-36-45,6,9,0.5596677917547568,right,probe,biased-switch,-1,-30,right,right,0.298
MSB1996WRNO,2019-10-08-12-36-45,6,10,0.6732619728920528,right,both,biased-switch,94,-30,right,right,0.129
MSB1996WRNO,2019-10-08-12-36-45,6,11,0.6058469865326965,right,probe,ambiguous-switch,-1,-10,right,right,0.085
MSB1996WRNO,2019-10-08-12-36-45,6,12,0.6394792954498045,right,both,ambiguous-switch,109,-10,right,right,0.055
MSB1996WRNO,2019-10-08-12-36-45,6,13,0.5068873151186015,right,probe,biased-switch,-1,5,right,right,0.088
MSB1996WRNO,2019-10-08-12-36-45,6,14,0.6584698629234921,right,both,biased-switch,90,5,right,right,0.065
MSB1996WRNO,2019-10-08-12-36-45,6,15,0.5359815140130763,left,probe,biased-switch,-1,-20,left,left,0.835
MSB1996WRNO,2019-10-08-12-36-45,6,16,0.5787175692877631,left,both,biased-switch,108,-20,left,left,0.083
MSB1996WRNO,2019-10-08-12-36-45,6,17,0.62042786624144,left,probe,biased-switch,-1,0,left,left,0.101
MSB1996WRNO,2019-10-08-12-36-45,6,18,0.5893158981596623,left,both,biased-switch,91,0,left,left,0.09
MSB1996WRNO,2019-10-08-12-36-45,6,19,0.5558342243196699,left,probe,ambiguous-switch,-1,-5,left,left,0.125
MSB1996WRNO,2019-10-08-12-36-45,6,20,0.5922376147394904,left,both,ambiguous-switch,92,-5,left,left,0.199
MSB1996WRNO,2019-10-08-12-36-45,6,21,0.6896264221353225,right,probe,ambiguous-switch,-1,-30,right,right,0.18
MSB1996WRNO,2019-10-08-12-36-45,6,22,0.6851897691055924,right,both,ambiguous-switch,101,-30,right,right,0.143
MSB1996WRNO,2019-10-08-12-36-45,6,23,0.5161073268242196,right,probe,ambiguous-switch,-1,0,right,right,0.055
MSB1996WRNO,2019-10-08-12-36-45,6,24,0.5047530573381869,right,both,ambiguous-switch,96,0,right,right,0.089
MSB1996WRNO,2019-10-08-12-36-45,6,25,0.5526904050803294,left,probe,ambiguous-switch,-1,-20,left,left,0.037
MSB1996WRNO,2019-10-08-12-36-45,6,26,0.6926030274178515,left,both,ambiguous-switch,94,-20,left,left,0.028
MSB1996WRNO,2019-10-08-12-36-45,6,27,0.6250771883243171,left,probe,ambiguous-switch,-1,5,left,left,0.102
MSB1996WRNO,2019-10-08-12-36-45,6,28,0.5033307358261822,left,both,ambiguous-switch,97,5,left,left,0.007
MSB1996WRNO,2019-10-08-12-36-45,6,29,0.6141208266170342,left,probe,biased-switch,-1,20,left,left,0.031
MSB1996WRNO,2019-10-08-12-36-45,6,30,0.661614332879688,left,both,biased-switch,104,20,left,left,0.091
MSB1996WRNO,2019-10-08-12-36-45,6,31,0.5936882700995773,left,probe,biased-switch,-1,30,left,left,0.052
MSB1996WRNO,2019-10-08-12-36-45,6,32,0.5080666658894258,left,both,biased-switch,105,30,left,left,0.184
MSB1996WRNO,2019-10-08-12-36-45,6,33,0.5253547968594773,right,probe,ambiguous-switch,-1,10,right,right,0.154
MSB1996WRNO,2019-10-08-12-36-45,6,34,0.5663990098811613,right,both,ambiguous-switch,109,10,right,right,0.082
MSB1996WRNO,2019-10-08-12-36-45,6,35,0.6401930553598579,left,probe,ambiguous-switch,-1,40,left,left,0.176
MSB1996WRNO,2019-10-08-12-36-45,6,36,0.5178184934660928,left,both,ambiguous-switch,102,40,left,left,0.197
MSB1996WRNO,2019-10-08-12-36-45,6,37,0.5104339485991752,left,probe,biased-switch,-1,40,left,left,0.064
MSB1996WRNO,2019-10-08-12-36-45,6,38,0.6486560288745449,left,both,biased-switch,105,40,left,left,0.064
MSB1996WRNO,2019-10-08-12-36-45,6,39,0.6867325125081425,right,probe,ambiguous-switch,-1,20,right,right,0.182
MSB1996WRNO,2019-10-08-12-36-45,6,40,0.6465291103296291,right,both,ambiguous-switch,109,20,right,right,0.025
MSB1996WRNO,2019-10-08-12-36-45,6,41,0.5014969793932839,left,probe,biased-switch,-1,-5,left,left,0.261
MSB1996WRNO,2019-10-08-12-36-45,6,42,0.5284732502688816,left,both,biased-switch,102,-5,left,left,0.111
MSB1996WRNO,2019-10-08-12-36-45,6,43,0.5111426392713082,right,probe,biased-switch,-1,-10,right,right,0.122
MSB1996WRNO,2019-10-08-12-36-45,6,44,0.6268542977671401,right,both,biased-switch,92,-10,right,left,0.963
MSB1996WRNO,2019-10-08-12-36-45,6,45,0.61255412750286,right,probe,ambiguous-switch,-1,30,right,right,0.173
MSB1996WRNO,2019-10-08-12-36-45,6,46,0.6331198815074888,right,both,ambiguous-switch,107,30,right,right,0.033
MSB1996WRNO,2019-10-08-12-36-45,6,47,0.5829183445287937,right,probe,biased-switch,-1,10,right,right,0.195
MSB1996WRNO,2019-10-08-12-36-45,6,48,0.5628825773930844,right,both,biased-switch,96,10,right,left,0.202
MSB1996WRNO,2019-10-08-12-36-45,6,49,0.5281993959445878,right,probe,biased-switch,-1,-30,right,right,0.397
MSB1996WRNO,2019-10-08-12-36-45,6,50,0.5448809136324636,right,both,biased-switch,99,-30,right,left,0.235
MSB1996WRNO,2019-10-08-12-36-45,6,51,0.5570183747879522,right,probe,ambiguous-switch,-1,-10,right,right,0.085
MSB1996WRNO,2019-10-08-12-36-45,6,52,0.6033355118073859,right,both,ambiguous-switch,107,-10,right,left,0.12
MSB1996WRNO,2019-10-08-12-36-45,6,53,0.5034017710756026,right,probe,biased-switch,-1,5,right,right,0.075
MSB1996WRNO,2019-10-08-12-36-45,6,54,0.5459369300705006,right,both,biased-switch,101,5,right,left,0.251
MSB1996WRNO,2019-10-08-12-36-45,6,55,0.6390082014321633,right,probe,biased-switch,-1,-20,left,left,0.121
MSB1996WRNO,2019-10-08-12-36-45,6,56,0.6458455487735804,right,both,biased-switch,96,-20,left,right,0.129
MSB1996WRNO,2019-10-08-12-36-45,6,57,0.5493504962149223,right,probe,biased-switch,-1,0,right,right,0.204
MSB1996WRNO,2019-10-08-12-36-45,6,58,0.6788651676216949,right,both,biased-switch,97,0,right,right,0.528
MSB1996WRNO,2019-10-08-12-36-45,6,59,0.5753822482069071,left,probe,ambiguous-switch,-1,-5,left,left,0.153
MSB1996WRNO,2019-10-08-12-36-45,6,60,0.6165373269693709,left,both,ambiguous-switch,94,-5,left,left,0.209
MSB1996WRNO,2019-10-08-12-36-45,6,61,0.5790925803800343,right,probe,ambiguous-switch,-1,-30,right,right,0.047
MSB1996WRNO,2019-10-08-12-36-45,6,62,0.5984093704519516,right,both,ambiguous-switch,104,-30,right,right,0.087
MSB1996WRNO,2019-10-08-12-36-45,6,63,0.5542509906461657,right,probe,ambiguous-switch,-1,0,left,left,0.349
MSB1996WRNO,2019-10-08-12-36-45,6,64,0.5934319366598396,right,both,ambiguous-switch,109,0,left,right,0.062
MSB1996WRNO,2019-10-08-12-36-45,6,65,0.6729419852805032,right,probe,ambiguous-switch,-1,-20,right,right,0.064
MSB1996WRNO,2019-10-08-12-36-45,6,66,0.5638597173582769,right,both,ambiguous-switch,99,-20,right,left,0.149
MSB1996WRNO,2019-10-08-12-36-45,6,67,0.5174885415799347,left,probe,ambiguous-switch,-1,5,left,left,0.146
MSB1996WRNO,2019-10-08-12-36-45,6,68,0.6852659187386497,left,both,ambiguous-switch,110,5,left,left,0.18
MSB1996WRNO,2019-10-08-12-36-45,6,69,0.5513634266715837,right,probe,biased-switch,-1,20,right,right,0.467
MSB1996WRNO,2019-10-08-12-36-45,6,70,0.5112595351949368,right,both,biased-switch,104,20,right,right,0.051
MSB1996WRNO,2019-10-08-12-36-45,6,71,0.5753735396743151,right,probe,biased-switch,-1,30,right,right,0.191
MSB1996WRNO,2019-10-08-12-36-45,6,72,0.6347330227309091,right,both,biased-switch,103,30,right,right,1.22
MSB1996WRNO,2019-10-08-12-36-45,6,73,0.6567041828409409,right,probe,ambiguous-switch,-1,10,right,right,0.188
MSB1996WRNO,2019-10-08-12-36-45,6,74,0.6161198202142052,right,both,ambiguous-switch,103,10,right,right,0.138
MSB1996WRNO,2019-10-08-12-36-45,6,75,0.5442352649849558,left,probe,ambiguous-switch,-1,40,left,left,0.167
MSB1996WRNO,2019-10-08-12-36-45,6,76,0.6939082072156763,left,both,ambiguous-switch,99,40,left,left,0.181
MSB1996WRNO,2019-10-08-12-36-45,6,77,0.695677233166315,left,probe,biased-switch,-1,40,left,left,0.234
MSB1996WRNO,2019-10-08-12-36-45,6,78,0.6075092576363906,left,both,biased-switch,93,40,left,left,0.251
MSB1996WRNO,2019-10-08-12-36-45,6,79,0.6650620812779585,right,probe,ambiguous-switch,-1,20,right,right,0.218
MSB1996WRNO,2019-10-08-12-36-45,6,80,0.5018845608973505,right,both,ambiguous-switch,92,20,right,right,0.178
MSB1996WRNO,2019-10-08-12-36-45,7,1,0.5581725790948939,left,probe,biased-switch,-1,-10,left,left,0.241
MSB1996WRNO,2019-10-08-12-36-45,7,2,0.5009193410494637,left,both,biased-switch,90,-10,left,left,0.151
MSB1996WRNO,2019-10-08-12-36-45,7,3,0.6552663834173194,left,probe,biased-switch,-1,-5,left,left,0.175
MSB1996WRNO,2019-10-08-12-36-45,7,4,0.5704796447851496,left,both,biased-switch,102,-5,left,left,0.382
MSB1996WRNO,2019-10-08-12-36-45,7,5,0.6856060374482236,left,probe,ambiguous-switch,-1,40,left,left,0.16
MSB1996WRNO,2019-10-08-12-36-45,7,6,0.6819232053872233,left,both,ambiguous-switch,104,40,left,left,0.094
MSB1996WRNO,2019-10-08-12-36-45,7,7,0.5445539837472447,left,probe,biased-switch,-1,20,left,left,0.211
MSB1996WRNO,2019-10-08-12-36-45,7,8,0.5813208998001277,left,both,biased-switch,92,20,left,left,0.186
MSB1996WRNO,2019-10-08-12-36-45,7,9,0.5869411650773478,right,probe,ambiguous-switch,-1,-5,right,right,0.116
MSB1996WRNO,2019-10-08-12-36-45,7,10,0.6748832074092828,right,both,ambiguous-switch,95,-5,right,right,0.066
MSB1996WRNO,2019-10-08-12-36-45,7,11,0.6961619707628071,left,probe,ambiguous-switch,-1,10,left,left,0.089
MSB1996WRNO,2019-10-08-12-36-45,7,12,0.5256729790945877,left,both,ambiguous-switch,96,10,left,left,0.146
MSB1996WRNO,2019-10-08-12-36-45,7,13,0.5840956026220194,right,probe,biased-switch,-1,10,left,left,0.141
MSB1996WRNO,2019-10-08-12-36-45,7,14,0.5534296312334821,right,both,biased-switch,95,10,left,right,1.154
MSB1996WRNO,2019-10-08-12-36-45,7,15,0.6177010346545939,left,probe,ambiguous-switch,-1,-30,left,left,0.153
MSB1996WRNO,2019-10-08-12-36-45,7,16,0.6027610920225724,left,both,ambiguous-switch,98,-30,left,left,0.257
MSB1996WRNO,2019-10-08-12-36-45,7,17,0.5401633331871017,left,probe,ambiguous-switch,-1,30,left,left,0.182
MSB1996WRNO,2019-10-08-12-36-45,7,18,0.56917889486382,left,both,ambiguous-switch,106,30,left,left,0.173
MSB1996WRNO,2019-10-08-12-36-45,7,19,0.6240540559028197,left,probe,biased-switch,-1,5,left,left,0.152
MSB1996WRNO,2019-10-08-12-36-45,7,20,0.6104708864485391,left,both,biased-switch,109,5,left,left,0.098
MSB1996WRNO,2019-10-08-12-36-45,7,21,0.6999511213038537,right,probe,biased-switch,-1,40,right,right,0.09
MSB1996WRNO,2019-10-08-12-36-45,7,22,0.5118792182500869,right,both,biased-switch,93,40,right,right,0.16
MSB1996WRNO,2019-10-08-12-36-45,7,23,0.6719560949069082,left,probe,biased-switch,-1,0,left,left,0.144
MSB1996WRNO,2019-10-08-12-36-45,7,24,0.6674059098670196,left,both,biased-switch,99,0,left,left,0.144
MSB1996WRNO,2019-10-08-12-36-45,7,25,0.6969837925564519,right,probe,ambiguous-switch,-1,20,right,right,0.186
MSB1996WRNO,2019-10-08-12-36-45,7,26,0.5303203336714843,right,both,ambiguous-switch,104,20,right,right,0.135
MSB1996WRNO,2019-10-08-12-36-45,7,27,0.5440940100709,left,probe,ambiguous-switch,-1,5,left,left,0.112
MSB1996WRNO,2019-10-08-12-36-45,7,28,0.6644695496093904,left,both,ambiguous-switch,94,5,left,right,0.258
MSB1996WRNO,2019-10-08-12-36-45,7,29,0.5405022709355152,left,probe,biased-switch,-1,-30,left,left,0.136
MSB1996WRNO,2019-10-08-12-36-45,7,30,0.5850775846627853,left,both,biased-switch,97,-30,left,left,0.201
MSB1996WRNO,2019-10-08-12-36-45,7,31,0.578785037037588,right,probe,ambiguous-switch,-1,-20,right,right,0.136
MSB1996WRNO,2019-10-08-12-36-45,7,32,0.6514050841033874,right,both,ambiguous-switch,97,-20,right,right,0.165
MSB1996WRNO,2019-10-08-12-36-45,7,33,0.5985550009247561,left,probe,ambiguous-switch,-1,-10,left,left,0.225
MSB1996WRNO,2019-10-08-12-36-45,7,34,0.5552369337834417,left,both,ambiguous-switch,104,-10,left,left,0.216
MSB1996WRNO,2019-10-08-12-36-45,7,35,0.6375756626532355,right,probe,ambiguous-switch,-1,0,right,right,0.202
MSB1996WRNO,2019-10-08-12-36-45,7,36,0.5223404283402391,right,both,ambiguous-switch,100,0,right,right,0.161
MSB1996WRNO,2019-10-08-12-36-45,7,37,0.5054796641015376,left,probe,biased-switch,-1,30,left,left,0.228
MSB1996WRNO,2019-10-08-12-36-45,7,38,0.5589912584488896,left,both,biased-switch,92,30,left,left,0.125
MSB1996WRNO,2019-10-08-12-36-45,7,39,0.5614686030317375,right,probe,biased-switch,-1,-20,right,right,0.382
MSB1996WRNO,2019-10-08-12-36-45,7,40,0.5154364083011966,right,both,biased-switch,108,-20,right,right,0.263
MSB1996WRNO,2019-10-08-12-36-45,7,41,0.5406842456673115,right,probe,biased-switch,-1,-10,right,right,0.179
MSB1996WRNO,2019-10-08-12-36-45,7,42,0.5485839406091266,right,both,biased-switch,94,-10,right,right,0.144
MSB1996WRNO,2019-10-08-12-36-45,7,43,0.699868346554188,right,probe,biased-switch,-1,-5,left,left,0.292
MSB1996WRNO,2019-10-08-12-36-45,7,44,0.5889802553038682,right,both,biased-switch,99,-5,left,right,0.447
MSB1996WRNO,2019-10-08-12-36-45,7,45,0.5931167681016004,left,probe,ambiguous-switch,-1,40,left,left,0.2
MSB1996WRNO,2019-10-08-12-36-45,7,46,0.5390429592026416,left,both,ambiguous-switch,107,40,left,left,0.204
MSB1996WRNO,2019-10-08-12-36-45,7,47,0.6980507850207246,right,probe,biased-switch,-1,20,right,right,0.176
MSB1996WRNO,2019-10-08-12-36-45,7,48,0.5813838957881429,right,both,biased-switch,108,20,right,left,0.186
MSB1996WRNO,2019-10-08-12-36-45,7,49,0.619901369911644,left,probe,ambiguous-switch,-1,-5,left,left,0.125
MSB1996WRNO,2019-10-08-12-36-45,7,50,0.6735535055951336,left,both,ambiguous-switch,109,-5,left,left,0.168
MSB1996WRNO,2019-10-08-12-36-45,7,51,0.616730540522792,left,probe,ambiguous-switch,-1,10,left,left,0.129
MSB1996WRNO,2019-10-08-12-36-45,7,52,0.6871881293554756,left,both,ambiguous-switch,109,10,left,left,0.049
MSB1996WRNO,2019-10-08-12-36-45,7,53,0.6819190323092021,left,probe,biased-switch,-1,10,left,left,0.185
MSB1996WRNO,2019-10-08-12-36-45,7,54,0.5846942491157012,left,both,biased-switch,94,10,left,left,0.098
MSB1996WRNO,2019-10-08-12-36-45,7,55,0.6889677749265826,right,probe,ambiguous-switch,-1,-30,right,right,0.242
MSB1996WRNO,2019-10-08-12-36-45,7,56,0.6206210494850515,right,both,ambiguous-switch,106,-30,right,right,0.168
MSB1996WRNO,2019-10-08-12-36-45,7,57,0.6373839676063198,right,probe,ambiguous-switch,-1,30,right,right,0.161
MSB1996WRNO,2019-10-08-12-36-45,7,58,0.5105771453604776,right,both,ambiguous-switch,106,30,right,right,0.092
MSB1996WRNO,2019-10-08-12-36-45,7,59,0.6271334597706264,left,probe,biased-switch,-1,5,left,left,0.183
MSB1996WRNO,2019-10-08-12-36-45,7,60,0.6685009268468213,left,both,biased-switch,98,5,left,left,0.164
MSB1996WRNO,2019-10-08-12-36-45,7,61,0.6818303380563403,right,probe,biased-switch,-1,40,right,right,0.192
MSB1996WRNO,2019-10-08-12-36-45,7,62,0.6001885018799387,right,both,biased-switch,106,40,right,right,0.186
MSB1996WRNO,2019-10-08-12-36-45,7,63,0.6758830352621229,right,probe,biased-switch,-1,0,right,right,0.164
MSB1996WRNO,2019-10-08-12-36-45,7,64,0.6873742363016058,right,both,biased-switch,109,0,right,right,0.051
MSB1996WRNO,2019-10-08-12-36-45,7,65,0.5331091993250187,right,probe,ambiguous-switch,-1,20,right,right,0.175
MSB1996WRNO,2019-10-08-12-36-45,7,66,0.5367155321122701,right,both,ambiguous-switch,106,20,right,left,0.315
MSB1996WRNO,2019-10-08-12-36-45,7,67,0.6571196299914797,left,probe,ambiguous-switch,-1,5,left,left,0.158
MSB1996WRNO,2019-10-08-12-36-45,7,68,0.5806733410464563,left,both,ambiguous-switch,97,5,left,left,0.191
MSB1996WRNO,2019-10-08-12-36-45,7,69,0.6832279592376013,right,probe,biased-switch,-1,-30,right,right,0.098
MSB1996WRNO,2019-10-08-12-36-45,7,70,0.5580425806603233,right,both,biased-switch,94,-30,right,right,0.236
MSB1996WRNO,2019-10-08-12-36-45,7,71,0.5577661529266024,left,probe,ambiguous-switch,-1,-20,left,left,0.151
MSB1996WRNO,2019-10-08-12-36-45,7,72,0.6192634132970242,left,both,ambiguous-switch,92,-20,left,left,0.143
MSB1996WRNO,2019-10-08-12-36-45,7,73,0.6347935322459903,left,probe,ambiguous-switch,-1,-10,left,left,0.239
MSB1996WRNO,2019-10-08-12-36-45,7,74,0.5842952492769697,left,both,ambiguous-switch,95,-10,left,right,0.051
MSB1996WRNO,2019-10-08-12-36-45,7,75,0.6889082208196063,left,probe,ambiguous-switch,-1,0,left,left,0.212
MSB1996WRNO,2019-10-08-12-36-45,7,76,0.5996537660379814,left,both,ambiguous-switch,99,0,left,left,0.244
MSB1996WRNO,2019-10-08-12-36-45,7,77,0.6367361526360449,left,probe,biased-switch,-1,30,left,left,0.15
MSB1996WRNO,2019-10-08-12-36-45,7,78,0.5479011213834025,left,both,biased-switch,98,30,left,left,0.167
MSB1996WRNO,2019-10-08-12-36-45,7,79,0.5347523165973489,left,probe,biased-switch,-1,-20,left,left,0.107
MSB1996WRNO,2019-10-08-12-36-45,7,80,0.5375447451507763,left,both,biased-switch,94,-20,left,left,0.104
MSB1996WRNO,2019-10-08-12-36-45,8,1,0.6414767514467143,right,probe,biased-switch,-1,0,left,left,0.354
MSB1996WRNO,2019-10-08-12-36-45,8,2,0.528917350023475,right,both,biased-switch,101,0,left,right,1.18
MSB1996WRNO,2019-10-08-12-36-45,8,3,0.6204937503829536,right,probe,ambiguous-switch,-1,0,left,left,0.165
MSB1996WRNO,2019-10-08-12-36-45,8,4,0.6709682870032474,right,both,ambiguous-switch,94,0,left,right,0.081
MSB1996WRNO,2019-10-08-12-36-45,8,5,0.5562368701545711,right,probe,biased-switch,-1,-5,right,right,0.205
MSB1996WRNO,2019-10-08-12-36-45,8,6,0.6301064672288232,right,both,biased-switch,105,-5,right,left,0.022
MSB1996WRNO,2019-10-08-12-36-45,8,7,0.6863084342689734,left,probe,biased-switch,-1,40,left,left,0.083
MSB1996WRNO,2019-10-08-12-36-45,8,8,0.5051261379528479,left,both,biased-switch,95,40,left,left,0.151
MSB1996WRNO,2019-10-08-12-36-45,8,9,0.52379688896374,right,probe,ambiguous-switch,-1,-5,right,right,0.088
MSB1996WRNO,2019-10-08-12-36-45,8,10,0.6563003306558144,right,both,ambiguous-switch,94,-5,right,left,0.028
MSB1996WRNO,2019-10-08-12-36-45,8,11,0.5206456960961614,right,probe,ambiguous-switch,-1,-20,right,right,0.192
MSB1996WRNO,2019-10-08-12-36-45,8,12,0.6846873906147872,right,both,ambiguous-switch,104,-20,right,left,0.132
MSB1996WRNO,2019-10-08-12-36-45,8,13,0.5318422511275783,right,probe,ambiguous-switch,-1,-30,left,left,0.087
MSB1996WRNO,2019-10-08-12-36-45,8,14,0.6404462657150302,right,both,ambiguous-switch,93,-30,left,left,0.179
MSB1996WRNO,2019-10-08-12-36-45,8,15,0.6958693878000806,left,probe,ambiguous-switch,-1,30,left,left,0.05
MSB1996WRNO,2019-10-08-12-36-45,8,16,0.6408072197399877,left,both,ambiguous-switch,99,30,left,left,0.065
MSB1996WRNO,2019-10-08-12-36-45,8,17,0.5154191967269216,right,probe,biased-switch,-1,5,right,right,0.111
MSB1996WRNO,2019-10-08-12-36-45,8,18,0.6360277753742744,right,both,biased-switch,103,5,right,left,0.067
MSB1996WRNO,2019-10-08-12-36-45,8,19,0.5660710792509542,left,probe,biased-switch,-1,30,left,left,0.191
MSB1996WRNO,2019-10-08-12-36-45,8,20,0.6647340581702548,left,both,biased-switch,101,30,left,left,0.147
MSB1996WRNO,2019-10-08-12-36-45,8,21,0.5563278087640099,left,probe,biased-switch,-1,10,left,left,0.07
MSB1996WRNO,2019-10-08-12-36-45,8,22,0.5071547594056051,left,both,biased-switch,92,10,left,right,1.212
MSB1996WRNO,2019-10-08-12-36-45,8,23,0.5455692910456034,right,probe,biased-switch,-1,-30,right,right,0.184
MSB1996WRNO,2019-10-08-12-36-45,8,24,0.579411669634549,right,both,biased-switch,95,-30,right,right,0.251
MSB1996WRNO,2019-10-08-12-36-45,8,25,0.6206687454551132,left,probe,ambiguous-switch,-1,40,left,left,0.07
MSB1996WRNO,2019-10-08-12-36-45,8,26,0.5033383272801345,left,both,ambiguous-switch,103,40,left,left,0.068
MSB1996WRNO,2019-10-08-12-36-45,8,27,0.5690434727327829,left,probe,biased-switch,-1,20,left,left,0.146
MSB1996WRNO,2019-10-08-12-36-45,8,28,0.6800185011149569,left,both,biased-switch,106,20,left,left,3.136
MSB1996WRNO,2019-10-08-12-36-45,8,29,0.5311542552593962,left,probe,ambiguous-switch,-1,5,left,left,0.038
MSB1996WRNO,2019-10-08-12-36-45,8,30,0.5999780188599528,left,both,ambiguous-switch,110,5,left,left,0.019
MSB1996WRNO,2019-10-08-12-36-45,8,31,0.5911654119206283,right,probe,ambiguous-switch,-1,-10,right,right,0.14
MSB1996WRNO,2019-10-08-12-36-45,8,32,0.5745150668730938,right,both,ambiguous-switch,94,-10,right,left,0.184
MSB1996WRNO,2019-10-08-12-36-45,8,33,0.574579329680978,left,probe,biased-switch,-1,-10,left,left,0.011
MSB1996WRNO,2019-10-08-12-36-45,8,34,0.6947400656428276,left,both,biased-switch,108,-10,left,left,0.195
MSB1996WRNO,2019-10-08-12-36-45,8,35,0.6682683656391885,right,probe,ambiguous-switch,-1,10,right,right,0.153
MSB1996WRNO,2019-10-08-12-36-45,8,36,0.574778641067738,right,both,ambiguous-switch,92,10,right,left,0.119
MSB1996WRNO,2019-10-08-12-36-45,8,37,0.5349580611106943,left,probe,ambiguous-switch,-1,20,left,left,0.112
MSB1996WRNO,2019-10-08-12-36-45,8,38,0.5044038244334778,left,both,ambiguous-switch,110,20,left,left,0.179
MSB1996WRNO,2019-10-08-12-36-45,8,39,0.6001384464226779,right,probe,biased-switch,-1,-20,right,right,0.105
MSB1996WRNO,2019-10-08-12-36-45,8,40,0.6169239542225691,right,both,biased-switch,110,-20,right,right,0.089
MSB1996WRNO,2019-10-08-12-36-45,8,41,0.5254668463455859,right,probe,biased-switch,-1,0,right,right,0.073
MSB1996WRNO,2019-10-08-12-36-45,8,42,0.5760175874777564,right,both,biased-switch,98,0,right,left,0.144
MSB1996WRNO,2019-10-08-12-36-45,8,43,0.6179143943558992,left,probe,ambiguous-switch,-1,0,left,left,1.816
MSB1996WRNO,2019-10-08-12-36-45,8,44,0.6207083405595788,left,both,ambiguous-switch,100,0,left,left,0.12
MSB1996WRNO,2019-10-08-12-36-45,8,45,0.6293170200793547,right,probe,biased-switch,-1,-5,right,right,0.024
MSB1996WRNO,2019-10-08-12-36-45,8,46,0.616543301264537,right,both,biased-switch,109,-5,right,left,2.708
MSB1996WRNO,2019-10-08-12-36-45,8,47,0.6551962789213475,right,probe,biased-switch,-1,40,right,right,0.079
MSB1996WRNO,2019-10-08-12-36-45,8,48,0.5062463517405164,right,both,biased-switch,110,40,right,right,0.002
MSB1996WRNO,2019-10-08-12-36-45,8,49,0.6049824855039675,left,probe,ambiguous-switch,-1,-5,left,left,0.053
MSB1996WRNO,2019-10-08-12-36-45,8,50,0.5758470157783553,left,both,ambiguous-switch,103,-5,left,left,0.21
MSB1996WRNO,2019-10-08-12-36-45,8,51,0.5487477394821866,left,probe,ambiguous-switch,-1,-20,left,left,0.099
MSB1996WRNO,2019-10-08-12-36-45,8,52,0.6249433296006066,left,both,ambiguous-switch,105,-20,left,left,0.09
MSB1996WRNO,2019-10-08-12-36-45,8,53,0.5807727355949995,right,probe,ambiguous-switch,-1,-30,right,right,0.004
MSB1996WRNO,2019-10-08-12-36-45,8,54,0.544652928830557,right,both,ambiguous-switch,101,-30,right,right,0.0
MSB1996WRNO,2019-10-08-12-36-45,8,55,0.6320791041496657,right,probe,ambiguous-switch,-1,30,right,right,0.054
MSB1996WRNO,2019-10-08-12-36-45,8,56,0.6103277473788987,right,both,ambiguous-switch,103,30,right,right,0.055
MSB1996WRNO,2019-10-08-12-36-45,8,57,0.5444884841836695,right,probe,biased-switch,-1,5,right,right,0.0
MSB1996WRNO,2019-10-08-12-36-45,8,58,0.568513989999708,right,both,biased-switch,100,5,right,right,1.288
MSB1996WRNO,2019-10-08-12-36-45,8,59,0.6251918933923087,right,probe,biased-switch,-1,30,right,right,0.249
MSB1996WRNO,2019-10-08-12-36-45,8,60,0.604682027181625,right,both,biased-switch,92,30,right,right,3.137
MSB1996WRNO,2019-10-08-12-36-45,8,61,0.6048647098026438,left,probe,biased-switch,-1,10,left,left,0.002
MSB1996WRNO,2019-10-08-12-36-45,8,62,0.5508486575149165,left,both,biased-switch,108,10,left,left,0.025
MSB1996WRNO,2019-10-08-12-36-45,8,63,0.6036435530233005,left,probe,biased-switch,-1,-30,left,left,0.042
MSB1996WRNO,2019-10-08-12-36-45,8,64,0.5576367359671852,left,both,biased-switch,105,-30,left,left,0.065
MSB1996WRNO,2019-10-08-12-36-45,8,65,0.5416568313911492,left,probe,ambiguous-switch,-1,40,left,left,0.175
MSB1996WRNO,2019-10-08-12-36-45,8,66,0.6541809584481846,left,both,ambiguous-switch,92,40,left,left,0.057
MSB1996WRNO,2019-10-08-12-36-45,8,67,0.5485202913689967,right,probe,biased-switch,-1,20,right,right,0.027
MSB1996WRNO,2019-10-08-12-36-45,8,68,0.5847362490756983,right,both,biased-switch,104,20,right,right,0.139
MSB1996WRNO,2019-10-08-12-36-45,8,69,0.531366943650461,left,probe,ambiguous-switch,-1,5,left,left,0.203
MSB1996WRNO,2019-10-08-12-36-45,8,70,0.6424517005792566,left,both,ambiguous-switch,97,5,left,right,0.411
MSB1996WRNO,2019-10-08-12-36-45,8,71,0.6016086032547883,left,probe,ambiguous-switch,-1,-10,left,left,0.285
MSB1996WRNO,2019-10-08-12-36-45,8,72,0.5959154158441315,left,both,ambiguous-switch,108,-10,left,left,0.237
MSB1996WRNO,2019-10-08-12-36-45,8,73,0.6472339394047072,left,probe,biased-switch,-1,-10,left,left,0.264
MSB1996WRNO,2019-10-08-12-36-45,8,74,0.5054645909601425,left,both,biased-switch,98,-10,left,left,0.082
MSB1996WRNO,2019-10-08-12-36-45,8,75,0.5847513992318828,right,probe,ambiguous-switch,-1,10,right,right,0.148
MSB1996WRNO,2019-10-08-12-36-45,8,76,0.5398313332346506,right,both,ambiguous-switch,100,10,right,right,0.188
MSB1996WRNO,2019-10-08-12-36-45,8,77,0.5140267495119832,left,probe,ambiguous-switch,-1,20,left,left,0.125
MSB1996WRNO,2019-10-08-12-36-45,8,78,0.6997152042957383,left,both,ambiguous-switch,101,20,left,left,0.086
MSB1996WRNO,2019-10-08-12-36-45,8,79,0.5075182262160067,left,probe,biased-switch,-1,-20,left,left,0.113
MSB1996WRNO,2019-10-08-12-36-45,8,80,0.6598393392053674,left,both,biased-switch,109,-20,left,left,0.107
MSB1996WRNO,2019-10-08-12-36-45,9,1,0.6949532343589578,right,probe,ambiguous-switch,-1,-5,right,right,0.184
MSB1996WRNO,2019-10-08-12-36-45,9,2,0.5995629778022926,right,both,ambiguous-switch,96,-5,right,right,0.091
MSB1996WRNO,2019-10-08-12-36-45,9,3,0.5240617478596256,left,probe,biased-switch,-1,5,left,left,0.065
MSB1996WRNO,2019-10-08-12-36-45,9,4,0.6958625667661359,left,both,biased-switch,104,5,left,left,0.873
MSB1996WRNO,2019-10-08-12-36-45,9,5,0.6147350703243019,right,probe,biased-switch,-1,30,right,right,0.19
MSB1996WRNO,2019-10-08-12-36-45,9,6,0.6984043477428725,right,both,biased-switch,90,30,right,left,1.077
MSB1996WRNO,2019-10-08-12-36-45,9,7,0.6447634144489236,left,probe,ambiguous-switch,-1,30,left,left,0.156
MSB1996WRNO,2019-10-08-12-36-45,9,8,0.6582638994404237,left,both,ambiguous-switch,91,30,left,left,0.052
MSB1996WRNO,2019-10-08-12-36-45,9,9,0.6530006317565983,left,probe,biased-switch,-1,0,left,left,0.133
MSB1996WRNO,2019-10-08-12-36-45,9,10,0.633945320218278,left,both,biased-switch,99,0,left,left,0.177
MSB1996WRNO,2019-10-08-12-36-45,9,11,0.6036396573537294,right,probe,ambiguous-switch,-1,5,right,right,0.131
MSB1996WRNO,2019-10-08-12-36-45,9,12,0.5521260932026484,right,both,ambiguous-switch,103,5,right,left,0.072
MSB1996WRNO,2019-10-08-12-36-45,9,13,0.643720295290818,right,probe,biased-switch,-1,40,left,left,0.047
MSB1996WRNO,2019-10-08-12-36-45,9,14,0.6486090316447379,right,both,biased-switch,96,40,left,right,0.079
MSB1996WRNO,2019-10-08-12-36-45,9,15,0.5928966104469068,left,probe,ambiguous-switch,-1,-10,left,left,0.241
MSB1996WRNO,2019-10-08-12-36-45,9,16,0.5931084924189667,left,both,ambiguous-switch,103,-10,left,left,0.187
MSB1996WRNO,2019-10-08-12-36-45,9,17,0.5825765353565358,right,probe,ambiguous-switch,-1,20,right,right,0.171
MSB1996WRNO,2019-10-08-12-36-45,9,18,0.6233112419756602,right,both,ambiguous-switch,108,20,right,right,0.102
MSB1996WRNO,2019-10-08-12-36-45,9,19,0.5054922681603907,right,probe,biased-switch,-1,-5,right,right,0.208
MSB1996WRNO,2019-10-08-12-36-45,9,20,0.696940384189521,right,both,biased-switch,96,-5,right,right,0.071
MSB1996WRNO,2019-10-08-12-36-45,9,21,0.5200885373187714,right,probe,biased-switch,-1,-20,right,right,0.165
MSB1996WRNO,2019-10-08-12-36-45,9,22,0.5150965502926602,right,both,biased-switch,109,-20,right,right,0.027
MSB1996WRNO,2019-10-08-12-36-45,9,23,0.6456191024850033,left,probe,ambiguous-switch,-1,-20,left,left,0.17
MSB1996WRNO,2019-10-08-12-36-45,9,24,0.6795441003403634,left,both,ambiguous-switch,107,-20,left,left,0.21
MSB1996WRNO,2019-10-08-12-36-45,9,25,0.611446030330076,left,probe,ambiguous-switch,-1,40,left,left,0.186
MSB1996WRNO,2019-10-08-12-36-45,9,26,0.5953009115356943,left,both,ambiguous-switch,106,40,left,left,0.237
MSB1996WRNO,2019-10-08-12-36-45,9,27,0.5848606030517605,left,probe,ambiguous-switch,-1,10,left,left,0.265
MSB1996WRNO,2019-10-08-12-36-45,9,28,0.6041129609835909,left,both,ambiguous-switch,92,10,left,right,0.149
MSB1996WRNO,2019-10-08-12-36-45,9,29,0.6725766845598361,left,probe,biased-switch,-1,20,left,left,0.163
MSB1996WRNO,2019-10-08-12-36-45,9,30,0.5671230115113792,left,both,biased-switch,95,20,left,left,0.14
MSB1996WRNO,2019-10-08-12-36-45,9,31,0.6071322116394507,left,probe,ambiguous-switch,-1,-30,left,left,0.154
MSB1996WRNO,2019-10-08-12-36-45,9,32,0.6556215026643875,left,both,ambiguous-switch,97,-30,left,left,0.229
MSB1996WRNO,2019-10-08-12-36-45,9,33,0.6647782735576319,left,probe,biased-switch,-1,-30,left,left,0.111
MSB1996WRNO,2019-10-08-12-36-45,9,34,0.6490774437566995,left,both,biased-switch,92,-30,left,left,0.216
MSB1996WRNO,2019-10-08-12-36-45,9,35,0.5833290763558614,right,probe,biased-switch,-1,-10,right,right,0.088
MSB1996WRNO,2019-10-08-12-36-45,9,36,0.5359779647158971,right,both,biased-switch,106,-10,right,right,0.058
MSB1996WRNO,2019-10-08-12-36-45,9,37,0.5673658864918453,left,probe,ambiguous-switch,-1,0,left,left,0.083
MSB1996WRNO,2019-10-08-12-36-45,9,38,0.6069971461990266,left,both,ambiguous-switch,96,0,left,left,1.056
MSB1996WRNO,2019-10-08-12-36-45,9,39,0.6956045776776995,left,probe,biased-switch,-1,10,left,left,0.112
MSB1996WRNO,2019-10-08-12-36-45,9,40,0.6980727541435936,left,both,biased-switch,108,10,left,right,0.773
MSB1996WRNO,2019-10-08-12-36-45,9,41,0.6921261377684933,left,probe,ambiguous-switch,-1,-5,left,left,0.192
MSB1996WRNO,2019-10-08-12-36-45,9,42,0.5280317185403486,left,both,ambiguous-switch,104,-5,left,left,0.075
MSB1996WRNO,2019-10-08-12-36-45,9,43,0.559713418361867,right,probe,biased-switch,-1,5,right,right,0.152
MSB1996WRNO,2019-10-08-12-36-45,9,44,0.5776449485624668,right,both,biased-switch,102,5,right,right,0.029
MSB1996WRNO,2019-10-08-12-36-45,9,45,0.6728224830839438,left,probe,biased-switch,-1,30,left,left,0.328
MSB1996WRNO,2019-10-08-12-36-45,9,46,0.5946046574194773,left,both,biased-switch,93,30,left,left,0.192
MSB1996WRNO,2019-10-08-12-36-45,9,47,0.5849885229012544,right,probe,ambiguous-switch,-1,30,right,right,0.047
MSB1996WRNO,2019-10-08-12-36-45,9,48,0.5462839048432109,right,both,ambiguous-switch,96,30,right,right,0.046
MSB1996WRNO,2019-10-08-12-36-45,9,49,0.5969173279489592,right,probe,biased-switch,-1,0,right,right,0.156
MSB1996WRNO,2019-10-08-12-36-45,9,50,0.615262719265057,right,both,biased-switch,107,0,right,right,2.897
MSB1996WRNO,2019-10-08-12-36-45,9,51,0.5553234068507387,right,probe,ambiguous-switch,-1,5,right,right,0.184
MSB1996WRNO,2019-10-08-12-36-45,9,52,0.6124781584471266,right,both,ambiguous-switch,108,5,right,right,1.054
MSB1996WRNO,2019-10-08-12-36-45,9,53,0.6932260484071049,right,probe,biased-switch,-1,40,right,right,0.16
MSB1996WRNO,2019-10-08-12-36-45,9,54,0.6967213042957174,right,both,biased-switch,108,40,right,right,0.082
MSB1996WRNO,2019-10-08-12-36-45,9,55,0.6009780036827324,left,probe,ambiguous-switch,-1,-10,left,left,0.207
MSB1996WRNO,2019-10-08-12-36-45,9,56,0.5549214393147249,left,both,ambiguous-switch,106,-10,left,left,0.247
MSB1996WRNO,2019-10-08-12-36-45,9,57,0.5672349654375761,left,probe,ambiguous-switch,-1,20,left,left,0.165
MSB1996WRNO,2019-10-08-12-36-45,9,58,0.6473120403511531,left,both,ambiguous-switch,102,20,left,left,0.173
MSB1996WRNO,2019-10-08-12-36-45,9,59,0.5514448825266917,left,probe,biased-switch,-1,-5,left,left,0.241
MSB1996WRNO,2019-10-08-12-36-45,9,60,0.5904878730703554,left,both,biased-switch,99,-5,left,left,0.297
MSB1996WRNO,2019-10-08-12-36-45,9,61,0.5242207345213595,left,probe,biased-switch,-1,-20,left,left,0.246
MSB1996WRNO,2019-10-08-12-36-45,9,62,0.597950296134362,left,both,biased-switch,94,-20,left,left,0.198
MSB1996WRNO,2019-10-08-12-36-45,9,63,0.5809623517994699,left,probe,ambiguous-switch,-1,-20,left,left,0.138
MSB1996WRNO,2019-10-08-12-36-45,9,64,0.6411543412942372,left,both,ambiguous-switch,110,-20,left,left,0.17
MSB1996WRNO,2019-10-08-12-36-45,9,65,0.6018554196817456,right,probe,ambiguous-switch,-1,40,right,right,0.093
MSB1996WRNO,2019-10-08-12-36-45,9,66,0.5777457191706222,right,both,ambiguous-switch,95,40,right,right,0.257
MSB1996WRNO,2019-10-08-12-36-45,9,67,0.5563606808358195,left,probe,ambiguous-switch,-1,10,left,left,0.142
MSB1996WRNO,2019-10-08-12-36-45,9,68,0.5850811201828444,left,both,ambiguous-switch,101,10,left,left,0.114
MSB1996WRNO,2019-10-08-12-36-45,9,69,0.5803224739781665,right,probe,biased-switch,-1,20,right,right,0.035
MSB1996WRNO,2019-10-08-12-36-45,9,70,0.5528719611418598,right,both,biased-switch,108,20,right,right,0.031
MSB1996WRNO,2019-10-08-12-36-45,9,71,0.5020946372133698,left,probe,ambiguous-switch,-1,-30,left,left,0.346
MSB1996WRNO,2019-10-08-12-36-45,9,72,0.6881906811213534,left,both,ambiguous-switch,94,-30,left,left,0.245
MSB1996WRNO,2019-10-08-12-36-45,9,73,0.6644523520269036,left,probe,biased-switch,-1,-30,left,left,0.068
MSB1996WRNO,2019-10-08-12-36-45,9,74,0.6077124721300029,left,both,biased-switch,102,-30,left,left,0.073
MSB1996WRNO,2019-10-08-12-36-45,9,75,0.5494779282089146,right,probe,biased-switch,-1,-10,right,right,0.097
MSB1996WRNO,2019-10-08-12-36-45,9,76,0.6931646340528802,right,both,biased-switch,106,-10,right,right,0.049
MSB1996WRNO,2019-10-08-12-36-45,9,77,0.5636012024621571,right,probe,ambiguous-switch,-1,0,right,right,0.185
MSB1996WRNO,2019-10-08-12-36-45,9,78,0.5903786782713891,right,both,ambiguous-switch,108,0,right,right,0.164
MSB1996WRNO,2019-10-08-12-36-45,9,79,0.6040089115674702,left,probe,biased-switch,-1,10,left,left,0.169
MSB1996WRNO,2019-10-08-12-36-45,9,80,0.6104474572077183,left,both,biased-switch,94,10,left,left,0.119
MSB1996WRNO,2019-10-08-12-36-45,10,1,0.5593322546722312,left,probe,biased-switch,-1,-20,left,left,0.186
MSB1996WRNO,2019-10-08-12-36-45,10,2,0.6280171285122502,left,both,biased-switch,97,-20,left,left,0.152
MSB1996WRNO,2019-10-08-12-36-45,10,3,0.5129855055829697,right,probe,biased-switch,-1,40,right,right,0.016
MSB1996WRNO,2019-10-08-12-36-45,10,4,0.6647649926415508,right,both,biased-switch,104,40,right,left,0.158
MSB1996WRNO,2019-10-08-12-36-45,10,5,0.5698789349114329,left,probe,biased-switch,-1,-30,right,right,0.354
MSB1996WRNO,2019-10-08-12-36-45,10,6,0.6100858053152192,left,both,biased-switch,109,-30,right,left,0.214
MSB1996WRNO,2019-10-08-12-36-45,10,7,0.571173033318747,left,probe,ambiguous-switch,-1,40,left,left,0.187
MSB1996WRNO,2019-10-08-12-36-45,10,8,0.5299619690116343,left,both,ambiguous-switch,96,40,left,left,0.063
MSB1996WRNO,2019-10-08-12-36-45,10,9,0.6048584023438762,right,probe,biased-switch,-1,0,right,right,0.079
MSB1996WRNO,2019-10-08-12-36-45,10,10,0.6490685420179186,right,both,biased-switch,110,0,right,right,1.067
MSB1996WRNO,2019-10-08-12-36-45,10,11,0.5489013908430753,right,probe,ambiguous-switch,-1,0,right,right,1.667
MSB1996WRNO,2019-10-08-12-36-45,10,12,0.5013185097077958,right,both,ambiguous-switch,94,0,right,right,4.147
MSB1996WRNO,2019-10-08-12-36-45,10,13,0.6551037375133755,right,probe,biased-switch,-1,20,right,right,0.088
MSB1996WRNO,2019-10-08-12-36-45,10,14,0.6951519826092453,right,both,biased-switch,105,20,right,right,0.131
MSB1996WRNO,2019-10-08-12-36-45,10,15,0.6508983810582756,left,probe,ambiguous-switch,-1,10,left,left,0.178
MSB1996WRNO,2019-10-08-12-36-45,10,16,0.625002131696097,left,both,ambiguous-switch,108,10,left,right,0.056
MSB1996WRNO,2019-10-08-12-36-45,10,17,0.6721418782160297,right,probe,biased-switch,-1,-5,right,right,0.126
MSB1996WRNO,2019-10-08-12-36-45,10,18,0.5394295217658158,right,both,biased-switch,103,-5,right,right,0.189
MSB1996WRNO,2019-10-08-12-36-45,10,19,0.6943564716835642,left,probe,biased-switch,-1,-10,left,left,0.161
MSB1996WRNO,2019-10-08-12-36-45,10,20,0.5368330382531544,left,both,biased-switch,99,-10,left,left,0.197
MSB1996WRNO,2019-10-08-12-36-45,10,21,0.6408766927601341,right,probe,ambiguous-switch,-1,30,right,right,0.042
MSB1996WRNO,2019-10-08-12-36-45,10,22,0.5572520054396087,right,both,ambiguous-switch,104,30,right,right,0.049
MSB1996WRNO,2019-10-08-12-36-45,10,23,0.6850382106374155,right,probe,biased-switch,-1,30,right,right,0.01
MSB1996WRNO,2019-10-08-12-36-45,10,24,0.5743790496652639,right,both,biased-switch,95,30,right,left,0.139
MSB1996WRNO,2019-10-08-12-36-45,10,25,0.5619451628503646,left,probe,ambiguous-switch,-1,-10,left,left,0.019
MSB1996WRNO,2019-10-08-12-36-45,10,26,0.5524931642580189,left,both,ambiguous-switch,98,-10,left,left,0.151
MSB1996WRNO,2019-10-08-12-36-45,10,27,0.6102087908248164,left,probe,ambiguous-switch,-1,-30,left,left,0.132
MSB1996WRNO,2019-10-08-12-36-45,10,28,0.5974462789794636,left,both,ambiguous-switch,102,-30,left,left,2.504
MSB1996WRNO,2019-10-08-12-36-45,10,29,0.6266338369380777,left,probe,ambiguous-switch,-1,-20,left,left,0.069
MSB1996WRNO,2019-10-08-12-36-45,10,30,0.501888797427076,left,both,ambiguous-switch,94,-20,left,left,0.201
MSB1996WRNO,2019-10-08-12-36-45,10,31,0.675247327688762,left,probe,ambiguous-switch,-1,-5,left,left,0.145
MSB1996WRNO,2019-10-08-12-36-45,10,32,0.5939654643114732,left,both,ambiguous-switch,104,-5,left,left,0.051
MSB1996WRNO,2019-10-08-12-36-45,10,33,0.5366973370703834,left,probe,ambiguous-switch,-1,5,left,left,0.045
MSB1996WRNO,2019-10-08-12-36-45,10,34,0.5002302192361677,left,both,ambiguous-switch,106,5,left,left,0.147
MSB1996WRNO,2019-10-08-12-36-45,10,35,0.5086402080225413,right,probe,biased-switch,-1,5,right,right,0.17
MSB1996WRNO,2019-10-08-12-36-45,10,36,0.5651300305063545,right,both,biased-switch,101,5,right,right,1.224
MSB1996WRNO,2019-10-08-12-36-45,10,37,0.6393538997000696,right,probe,ambiguous-switch,-1,20,right,right,0.097
MSB1996WRNO,2019-10-08-12-36-45,10,38,0.5284987979790966,right,both,ambiguous-switch,103,20,right,right,0.021
MSB1996WRNO,2019-10-08-12-36-45,10,39,0.6909381204815632,left,probe,biased-switch,-1,10,left,left,0.21
MSB1996WRNO,2019-10-08-12-36-45,10,40,0.665099223635759,left,both,biased-switch,102,10,left,left,0.084
MSB1996WRNO,2019-10-08-12-36-45,10,41,0.6409812843468096,right,probe,biased-switch,-1,-20,right,right,0.109
MSB1996WRNO,2019-10-08-12-36-45,10,42,0.6188027634196762,right,both,biased-switch,98,-20,right,right,1.18
MSB1996WRNO,2019-10-08-12-36-45,10,43,0.5720780148760246,right,probe,biased-switch,-1,40,right,right,0.161
MSB1996WRNO,2019-10-08-12-36-45,10,44,0.6494945025238713,right,both,biased-switch,102,40,right,right,0.129
MSB1996WRNO,2019-10-08-12-36-45,10,45,0.5339218406119224,right,probe,biased-switch,-1,-30,right,right,0.005
MSB1996WRNO,2019-10-08-12-36-45,10,46,0.6346826057814372,right,both,biased-switch,101,-30,right,right,0.314
MSB1996WRNO,2019-10-08-12-36-45,10,47,0.6566882629429687,left,probe,ambiguous-switch,-1,40,left,left,0.058
MSB1996WRNO,2019-10-08-12-36-45,10,48,0.5517746055321366,left,both,ambiguous-switch,110,40,left,left,0.094
MSB1996WRNO,2019-10-08-12-36-45,10,49,0.6593820042660501,right,probe,biased-switch,-1,0,right,right,0.286
MSB1996WRNO,2019-10-08-12-36-45,10,50,0.5210986821074528,right,both,biased-switch,103,0,right,right,0.024
MSB1996WRNO,2019-10-08-12-36-45,10,51,0.5253493573308629,right,probe,ambiguous-switch,-1,0,left,left,0.193
MSB1996WRNO,2019-10-08-12-36-45,10,52,0.5238938616927337,right,both,ambiguous-switch,91,0,left,right,0.001
MSB1996WRNO,2019-10-08-12-36-45,10,53,0.5371168040464163,left,probe,biased-switch,-1,20,left,left,0.168
MSB1996WRNO,2019-10-08-12-36-45,10,54,0.6104975828817715,left,both,biased-switch,93,20,left,left,0.028
MSB1996WRNO,2019-10-08-12-36-45,10,55,0.5628232875897468,left,probe,ambiguous-switch,-1,10,left,left,0.062
MSB1996WRNO,2019-10-08-12-36-45,10,56,0.6621495357542238,left,both,ambiguous-switch,94,10,left,left,0.25
MSB1996WRNO,2019-10-08-12-36-45,10,57,0.6422800932998033,right,probe,biased-switch,-1,-5,right,right,0.108
MSB1996WRNO,2019-10-08-12-36-45,10,58,0.6906995113560788,right,both,biased-switch,101,-5,right,right,0.025
MSB1996WRNO,2019-10-08-12-36-45,10,59,0.6488532776710305,right,probe,biased-switch,-1,-10,right,right,0.195
MSB1996WRNO,2019-10-08-12-36-45,10,60,0.5863339442496862,right,both,biased-switch,95,-10,right,right,0.036
MSB1996WRNO,2019-10-08-12-36-45,10,61,0.5630166608155555,left,probe,ambiguous-switch,-1,30,left,left,1.096
MSB1996WRNO,2019-10-08-12-36-45,10,62,0.5461530367051737,left,both,ambiguous-switch,104,30,left,left,0.107
MSB1996WRNO,2019-10-08-12-36-45,10,63,0.5636052914949385,right,probe,biased-switch,-1,30,right,right,1.009
MSB1996WRNO,2019-10-08-12-36-45,10,64,0.667041089644015,right,both,biased-switch,105,30,right,right,0.122
MSB1996WRNO,2019-10-08-12-36-45,10,65,0.5046099800732425,left,probe,ambiguous-switch,-1,-10,left,left,1.116
MSB1996WRNO,2019-10-08-12-36-45,10,66,0.6806930726570254,left,both,ambiguous-switch,99,-10,left,left,0.157
MSB1996WRNO,2019-10-08-12-36-45,10,67,0.689198243746147,left,probe,ambiguous-switch,-1,-30,left,left,0.147
MSB1996WRNO,2019-10-08-12-36-45,10,68,0.570515492260389,left,both,ambiguous-switch,106,-30,left,left,0.022
MSB1996WRNO,2019-10-08-12-36-45,10,69,0.6717810718008761,right,probe,ambiguous-switch,-1,-20,right,right,0.1
MSB1996WRNO,2019-10-08-12-36-45,10,70,0.624175746411103,right,both,ambiguous-switch,91,-20,right,right,0.133
MSB1996WRNO,2019-10-08-12-36-45,10,71,0.5436592370905724,right,probe,ambiguous-switch,-1,-5,right,right,0.254
MSB1996WRNO,2019-10-08-12-36-45,10,72,0.5667828307103884,right,both,ambiguous-switch,95,-5,right,right,1.083
MSB1996WRNO,2019-10-08-12-36-45,10,73,0.5611336259224053,left,probe,ambiguous-switch,-1,5,left,left,0.014
MSB1996WRNO,2019-10-08-12-36-45,10,74,0.5284435904128287,left,both,ambiguous-switch,103,5,left,left,0.032
MSB1996WRNO,2019-10-08-12-36-45,10,75,0.5306912022497536,left,probe,biased-switch,-1,5,left,left,0.025
MSB1996WRNO,2019-10-08-12-36-45,10,76,0.6688018504256306,left,both,biased-switch,98,5,left,left,1.04
MSB1996WRNO,2019-10-08-12-36-45,10,77,0.5638080573006161,right,probe,ambiguous-switch,-1,20,right,right,0.111
MSB1996WRNO,2019-10-08-12-36-45,10,78,0.5860596826342639,right,both,ambiguous-switch,108,20,right,right,0.186
MSB1996WRNO,2019-10-08-12-36-45,10,79,0.6111413035771291,left,probe,biased-switch,-1,10,left,left,0.133
MSB1996WRNO,2019-10-08-12-36-45,10,80,0.6997559772765366,left,both,biased-switch,91,10,left,left,0.067
