Participant,Session,Block,Trial,OnsetDelay,ProbeLocation,WhatIsReported,Condition,TriggerTime,ProbeSOA,PrimeDirection,Response,RT
MSB1996WRNO,2019-10-04-14-21-29,1,1,0.5825173909206888,left,probe,ambiguous-switch,-1,-20,left,left,0.467
MSB1996WRNO,2019-10-04-14-21-29,1,2,0.5244592732547395,left,both,ambiguous-switch,109,-20,left,left,0.187
MSB1996WRNO,2019-10-04-14-21-29,1,3,0.6297847463184794,right,probe,biased-switch,-1,-5,right,right,0.283
MSB1996WRNO,2019-10-04-14-21-29,1,4,0.6809839544524701,right,both,biased-switch,105,-5,right,left,0.238
MSB1996WRNO,2019-10-04-14-21-29,1,5,0.5694942755823201,right,probe,ambiguous-switch,-1,0,right,right,0.167
MSB1996WRNO,2019-10-04-14-21-29,1,6,0.6928711667979535,right,both,ambiguous-switch,102,0,right,right,0.154
MSB1996WRNO,2019-10-04-14-21-29,1,7,0.663784569950029,left,probe,biased-switch,-1,0,left,left,0.142
MSB1996WRNO,2019-10-04-14-21-29,1,8,0.6608524758593908,left,both,biased-switch,92,0,left,right,0.148
MSB1996WRNO,2019-10-04-14-21-29,1,9,0.6936209080324536,right,probe,biased-switch,-1,10,right,right,0.173
MSB1996WRNO,2019-10-04-14-21-29,1,10,0.5983990299232793,right,both,biased-switch,105,10,right,right,0.103
MSB1996WRNO,2019-10-04-14-21-29,1,11,0.6472508962982597,left,probe,ambiguous-switch,-1,20,right,right,0.177
MSB1996WRNO,2019-10-04-14-21-29,1,12,0.6171659870400044,left,both,ambiguous-switch,104,20,right,left,0.003
MSB1996WRNO,2019-10-04-14-21-29,1,13,0.6504183254323619,left,probe,biased-switch,-1,-30,left,left,0.18
MSB1996WRNO,2019-10-04-14-21-29,1,14,0.5895606701545866,left,both,biased-switch,93,-30,left,left,0.151
MSB1996WRNO,2019-10-04-14-21-29,1,15,0.567758745706894,right,probe,biased-switch,-1,20,right,right,0.144
MSB1996WRNO,2019-10-04-14-21-29,1,16,0.5389305056421937,right,both,biased-switch,107,20,right,right,0.157
MSB1996WRNO,2019-10-04-14-21-29,1,17,0.5748267274377347,left,probe,ambiguous-switch,-1,-10,left,left,0.171
MSB1996WRNO,2019-10-04-14-21-29,1,18,0.6305383131127573,left,both,ambiguous-switch,97,-10,left,left,0.163
MSB1996WRNO,2019-10-04-14-21-29,1,19,0.5969719861166422,left,probe,ambiguous-switch,-1,-30,left,left,0.184
MSB1996WRNO,2019-10-04-14-21-29,1,20,0.520214232347996,left,both,ambiguous-switch,106,-30,left,left,0.222
MSB1996WRNO,2019-10-04-14-21-29,1,21,0.655748807350175,left,probe,ambiguous-switch,-1,5,left,left,0.287
MSB1996WRNO,2019-10-04-14-21-29,1,22,0.5431034681176843,left,both,ambiguous-switch,91,5,left,left,0.096
MSB1996WRNO,2019-10-04-14-21-29,1,23,0.5131931148150497,right,probe,ambiguous-switch,-1,-5,right,right,0.133
MSB1996WRNO,2019-10-04-14-21-29,1,24,0.5615963185617014,right,both,ambiguous-switch,94,-5,right,right,0.235
MSB1996WRNO,2019-10-04-14-21-29,1,25,0.6144444434173145,left,probe,biased-switch,-1,40,left,left,0.178
MSB1996WRNO,2019-10-04-14-21-29,1,26,0.6181325277087535,left,both,biased-switch,109,40,left,left,0.172
MSB1996WRNO,2019-10-04-14-21-29,1,27,0.6336407824223111,right,probe,biased-switch,-1,30,right,right,0.144
MSB1996WRNO,2019-10-04-14-21-29,1,28,0.6723491566735535,right,both,biased-switch,108,30,right,right,0.918
MSB1996WRNO,2019-10-04-14-21-29,1,29,0.5417988728602849,left,probe,biased-switch,-1,5,left,left,0.19
MSB1996WRNO,2019-10-04-14-21-29,1,30,0.5572058719881574,left,both,biased-switch,95,5,left,right,0.187
MSB1996WRNO,2019-10-04-14-21-29,1,31,0.6457955732468106,right,probe,biased-switch,-1,-10,right,right,0.166
MSB1996WRNO,2019-10-04-14-21-29,1,32,0.6452234338866821,right,both,biased-switch,96,-10,right,right,0.159
MSB1996WRNO,2019-10-04-14-21-29,1,33,0.5267913211269333,left,probe,biased-switch,-1,-20,left,left,0.156
MSB1996WRNO,2019-10-04-14-21-29,1,34,0.5415870622551802,left,both,biased-switch,94,-20,left,left,0.157
MSB1996WRNO,2019-10-04-14-21-29,1,35,0.5239247043682255,right,probe,ambiguous-switch,-1,40,right,right,0.151
MSB1996WRNO,2019-10-04-14-21-29,1,36,0.6840282021196968,right,both,ambiguous-switch,104,40,right,right,0.193
MSB1996WRNO,2019-10-04-14-21-29,1,37,0.6946929930980583,left,probe,ambiguous-switch,-1,30,left,left,0.165
MSB1996WRNO,2019-10-04-14-21-29,1,38,0.6907106316206005,left,both,ambiguous-switch,105,30,left,left,0.165
MSB1996WRNO,2019-10-04-14-21-29,1,39,0.6548385170387762,left,probe,ambiguous-switch,-1,10,left,left,0.133
MSB1996WRNO,2019-10-04-14-21-29,1,40,0.5594590746814735,left,both,ambiguous-switch,101,10,left,left,0.191
MSB1996WRNO,2019-10-04-14-21-29,1,41,0.6821906213619677,right,probe,ambiguous-switch,-1,-20,right,right,0.141
MSB1996WRNO,2019-10-04-14-21-29,1,42,0.5599785586531668,right,both,ambiguous-switch,101,-20,right,right,0.153
MSB1996WRNO,2019-10-04-14-21-29,1,43,0.5489915399402071,right,probe,biased-switch,-1,-5,right,right,0.148
MSB1996WRNO,2019-10-04-14-21-29,1,44,0.6083139908990615,right,both,biased-switch,104,-5,right,right,0.183
MSB1996WRNO,2019-10-04-14-21-29,1,45,0.5724286733845337,left,probe,ambiguous-switch,-1,0,left,left,0.146
MSB1996WRNO,2019-10-04-14-21-29,1,46,0.6370172537920339,left,both,ambiguous-switch,106,0,left,left,0.186
MSB1996WRNO,2019-10-04-14-21-29,1,47,0.6745934891588307,left,probe,biased-switch,-1,0,left,left,0.149
MSB1996WRNO,2019-10-04-14-21-29,1,48,0.6504078485473209,left,both,biased-switch,109,0,left,left,0.179
MSB1996WRNO,2019-10-04-14-21-29,1,49,0.5591928421233161,left,probe,biased-switch,-1,10,left,left,0.141
MSB1996WRNO,2019-10-04-14-21-29,1,50,0.637053331230226,left,both,biased-switch,90,10,left,left,0.166
MSB1996WRNO,2019-10-04-14-21-29,1,51,0.6497967146480679,right,probe,ambiguous-switch,-1,20,right,right,0.173
MSB1996WRNO,2019-10-04-14-21-29,1,52,0.5608696532110147,right,both,ambiguous-switch,105,20,right,right,0.603
MSB1996WRNO,2019-10-04-14-21-29,1,53,0.5906585940738446,right,probe,biased-switch,-1,-30,right,right,0.176
MSB1996WRNO,2019-10-04-14-21-29,1,54,0.6097613150086869,right,both,biased-switch,101,-30,right,right,0.172
MSB1996WRNO,2019-10-04-14-21-29,1,55,0.6017764521063448,right,probe,biased-switch,-1,20,right,right,0.074
MSB1996WRNO,2019-10-04-14-21-29,1,56,0.5488236994717717,right,both,biased-switch,105,20,right,right,0.22
MSB1996WRNO,2019-10-04-14-21-29,1,57,0.6933265513959072,left,probe,ambiguous-switch,-1,-10,left,left,0.196
MSB1996WRNO,2019-10-04-14-21-29,1,58,0.6409815042465544,left,both,ambiguous-switch,100,-10,left,left,0.164
MSB1996WRNO,2019-10-04-14-21-29,1,59,0.6127912910653062,left,probe,ambiguous-switch,-1,-30,left,left,0.161
MSB1996WRNO,2019-10-04-14-21-29,1,60,0.5369202626965142,left,both,ambiguous-switch,102,-30,left,left,0.184
MSB1996WRNO,2019-10-04-14-21-29,1,61,0.5001418462247184,left,probe,ambiguous-switch,-1,5,left,left,0.171
MSB1996WRNO,2019-10-04-14-21-29,1,62,0.6572112677281835,left,both,ambiguous-switch,108,5,left,left,1.05
MSB1996WRNO,2019-10-04-14-21-29,1,63,0.5418773034551929,right,probe,ambiguous-switch,-1,-5,right,right,0.328
MSB1996WRNO,2019-10-04-14-21-29,1,64,0.6542693991937828,right,both,ambiguous-switch,96,-5,right,right,0.163
MSB1996WRNO,2019-10-04-14-21-29,1,65,0.5059901360051593,left,probe,biased-switch,-1,40,left,left,0.153
MSB1996WRNO,2019-10-04-14-21-29,1,66,0.6475014148016734,left,both,biased-switch,93,40,left,left,0.168
MSB1996WRNO,2019-10-04-14-21-29,1,67,0.6328220715569967,left,probe,biased-switch,-1,30,left,left,0.169
MSB1996WRNO,2019-10-04-14-21-29,1,68,0.5997999642284453,left,both,biased-switch,99,30,left,left,0.129
MSB1996WRNO,2019-10-04-14-21-29,1,69,0.6272952886853602,right,probe,biased-switch,-1,5,right,right,0.198
MSB1996WRNO,2019-10-04-14-21-29,1,70,0.551376293886637,right,both,biased-switch,96,5,right,right,0.182
MSB1996WRNO,2019-10-04-14-21-29,1,71,0.5452383193668462,right,probe,biased-switch,-1,-10,right,right,0.165
MSB1996WRNO,2019-10-04-14-21-29,1,72,0.5829255253243009,right,both,biased-switch,106,-10,right,left,0.39
MSB1996WRNO,2019-10-04-14-21-29,1,73,0.5249557683827403,left,probe,biased-switch,-1,-20,left,left,0.143
MSB1996WRNO,2019-10-04-14-21-29,1,74,0.5461903544488859,left,both,biased-switch,105,-20,left,left,0.128
MSB1996WRNO,2019-10-04-14-21-29,1,75,0.5642739157138039,right,probe,ambiguous-switch,-1,40,right,right,0.185
MSB1996WRNO,2019-10-04-14-21-29,1,76,0.5206449640481304,right,both,ambiguous-switch,102,40,right,right,0.218
MSB1996WRNO,2019-10-04-14-21-29,1,77,0.5320024855403468,left,probe,ambiguous-switch,-1,30,left,left,0.181
MSB1996WRNO,2019-10-04-14-21-29,1,78,0.5038605811506706,left,both,ambiguous-switch,97,30,left,left,0.093
MSB1996WRNO,2019-10-04-14-21-29,1,79,0.6422788522125868,right,probe,ambiguous-switch,-1,10,right,right,0.166
MSB1996WRNO,2019-10-04-14-21-29,1,80,0.5407132330551787,right,both,ambiguous-switch,100,10,right,left,0.168
MSB1996WRNO,2019-10-04-14-21-29,2,1,0.6957628949379688,right,probe,biased-switch,-1,5,left,left,0.263
MSB1996WRNO,2019-10-04-14-21-29,2,2,0.6730399243434457,right,both,biased-switch,107,5,left,right,0.159
MSB1996WRNO,2019-10-04-14-21-29,2,3,0.606996804679831,left,probe,biased-switch,-1,10,left,left,0.167
MSB1996WRNO,2019-10-04-14-21-29,2,4,0.6764290192905151,left,both,biased-switch,98,10,left,left,1.029
MSB1996WRNO,2019-10-04-14-21-29,2,5,0.5686307113202937,right,probe,ambiguous-switch,-1,30,right,right,0.184
MSB1996WRNO,2019-10-04-14-21-29,2,6,0.5212161443326995,right,both,ambiguous-switch,92,30,right,right,0.184
MSB1996WRNO,2019-10-04-14-21-29,2,7,0.5112097776648853,right,probe,biased-switch,-1,20,right,right,0.212
MSB1996WRNO,2019-10-04-14-21-29,2,8,0.5036248614007903,right,both,biased-switch,100,20,right,right,0.172
MSB1996WRNO,2019-10-04-14-21-29,2,9,0.5596462916725414,left,probe,biased-switch,-1,-10,left,left,0.128
MSB1996WRNO,2019-10-04-14-21-29,2,10,0.5420355305612212,left,both,biased-switch,102,-10,left,left,0.176
MSB1996WRNO,2019-10-04-14-21-29,2,11,0.5797154220260349,left,probe,ambiguous-switch,-1,20,left,left,0.184
MSB1996WRNO,2019-10-04-14-21-29,2,12,0.5515330608746993,left,both,ambiguous-switch,110,20,left,left,0.173
MSB1996WRNO,2019-10-04-14-21-29,2,13,0.6995307249751704,right,probe,ambiguous-switch,-1,5,right,right,0.235
MSB1996WRNO,2019-10-04-14-21-29,2,14,0.5386313367342404,right,both,ambiguous-switch,96,5,right,right,0.136
MSB1996WRNO,2019-10-04-14-21-29,2,15,0.6236721126557123,left,probe,ambiguous-switch,-1,-5,left,left,0.109
MSB1996WRNO,2019-10-04-14-21-29,2,16,0.5225843786792833,left,both,ambiguous-switch,103,-5,left,left,0.162
MSB1996WRNO,2019-10-04-14-21-29,2,17,0.5612941784904866,left,probe,biased-switch,-1,0,left,left,0.161
MSB1996WRNO,2019-10-04-14-21-29,2,18,0.6941825807679199,left,both,biased-switch,110,0,left,left,0.285
MSB1996WRNO,2019-10-04-14-21-29,2,19,0.5913856095633622,right,probe,biased-switch,-1,-20,right,right,0.27
MSB1996WRNO,2019-10-04-14-21-29,2,20,0.5773821704146141,right,both,biased-switch,102,-20,right,left,0.165
MSB1996WRNO,2019-10-04-14-21-29,2,21,0.665907837036406,right,probe,ambiguous-switch,-1,-20,left,left,0.175
MSB1996WRNO,2019-10-04-14-21-29,2,22,0.5620582209824474,right,both,ambiguous-switch,93,-20,left,left,0.134
MSB1996WRNO,2019-10-04-14-21-29,2,23,0.5626202529331689,right,probe,biased-switch,-1,-30,left,left,0.162
MSB1996WRNO,2019-10-04-14-21-29,2,24,0.6390687638020314,right,both,biased-switch,100,-30,left,right,0.17
MSB1996WRNO,2019-10-04-14-21-29,2,25,0.5998620015865448,left,probe,ambiguous-switch,-1,0,left,left,0.139
MSB1996WRNO,2019-10-04-14-21-29,2,26,0.6619376620348811,left,both,ambiguous-switch,101,0,left,left,0.176
MSB1996WRNO,2019-10-04-14-21-29,2,27,0.6263468409641106,right,probe,biased-switch,-1,30,right,right,0.232
MSB1996WRNO,2019-10-04-14-21-29,2,28,0.682448425380584,right,both,biased-switch,102,30,right,left,0.222
MSB1996WRNO,2019-10-04-14-21-29,2,29,0.63302648329268,left,probe,biased-switch,-1,40,left,left,0.157
MSB1996WRNO,2019-10-04-14-21-29,2,30,0.5760126508213597,left,both,biased-switch,96,40,left,left,3.06
MSB1996WRNO,2019-10-04-14-21-29,2,31,0.5368634675593369,right,probe,ambiguous-switch,-1,40,left,left,0.235
MSB1996WRNO,2019-10-04-14-21-29,2,32,0.6394327547220647,right,both,ambiguous-switch,93,40,left,right,0.179
MSB1996WRNO,2019-10-04-14-21-29,2,33,0.6169120294110811,right,probe,ambiguous-switch,-1,10,left,left,0.195
MSB1996WRNO,2019-10-04-14-21-29,2,34,0.6120540723345034,right,both,ambiguous-switch,100,10,left,right,0.115
MSB1996WRNO,2019-10-04-14-21-29,2,35,0.5449358403222074,left,probe,ambiguous-switch,-1,-30,left,left,0.141
MSB1996WRNO,2019-10-04-14-21-29,2,36,0.5295194117714129,left,both,ambiguous-switch,96,-30,left,left,0.196
MSB1996WRNO,2019-10-04-14-21-29,2,37,0.6887721650582869,left,probe,biased-switch,-1,-5,left,left,0.174
MSB1996WRNO,2019-10-04-14-21-29,2,38,0.6511213260258565,left,both,biased-switch,95,-5,left,left,0.089
MSB1996WRNO,2019-10-04-14-21-29,2,39,0.6304355375432212,left,probe,ambiguous-switch,-1,-10,left,left,0.341
MSB1996WRNO,2019-10-04-14-21-29,2,40,0.633440301617251,left,both,ambiguous-switch,95,-10,left,left,0.166
MSB1996WRNO,2019-10-04-14-21-29,2,41,0.5940490522429768,right,probe,biased-switch,-1,5,right,right,0.191
MSB1996WRNO,2019-10-04-14-21-29,2,42,0.5903239846552688,right,both,biased-switch,95,5,right,right,0.216
MSB1996WRNO,2019-10-04-14-21-29,2,43,0.5655869285627738,right,probe,biased-switch,-1,10,right,right,0.155
MSB1996WRNO,2019-10-04-14-21-29,2,44,0.6842729368803812,right,both,biased-switch,101,10,right,left,0.183
MSB1996WRNO,2019-10-04-14-21-29,2,45,0.6307255726028119,left,probe,ambiguous-switch,-1,30,left,left,0.299
MSB1996WRNO,2019-10-04-14-21-29,2,46,0.6230192122580218,left,both,ambiguous-switch,97,30,left,left,0.16
MSB1996WRNO,2019-10-04-14-21-29,2,47,0.5490759403739864,left,probe,biased-switch,-1,20,left,left,0.4
MSB1996WRNO,2019-10-04-14-21-29,2,48,0.5085916640243646,left,both,biased-switch,91,20,left,left,0.166
MSB1996WRNO,2019-10-04-14-21-29,2,49,0.6631504397552368,left,probe,biased-switch,-1,-10,left,left,0.159
MSB1996WRNO,2019-10-04-14-21-29,2,50,0.6169477780894956,left,both,biased-switch,110,-10,left,left,0.038
MSB1996WRNO,2019-10-04-14-21-29,2,51,0.6640046171765381,left,probe,ambiguous-switch,-1,20,left,left,0.181
MSB1996WRNO,2019-10-04-14-21-29,2,52,0.6219253286736833,left,both,ambiguous-switch,98,20,left,left,0.144
MSB1996WRNO,2019-10-04-14-21-29,2,53,0.5985533723066273,left,probe,ambiguous-switch,-1,5,left,left,0.169
MSB1996WRNO,2019-10-04-14-21-29,2,54,0.5576265739388394,left,both,ambiguous-switch,110,5,left,left,0.152
MSB1996WRNO,2019-10-04-14-21-29,2,55,0.5797597284319449,right,probe,ambiguous-switch,-1,-5,right,right,0.206
MSB1996WRNO,2019-10-04-14-21-29,2,56,0.5569241263136306,right,both,ambiguous-switch,105,-5,right,right,0.203
MSB1996WRNO,2019-10-04-14-21-29,2,57,0.5654607486903586,right,probe,biased-switch,-1,0,left,left,0.193
MSB1996WRNO,2019-10-04-14-21-29,2,58,0.6980595132234498,right,both,biased-switch,94,0,left,right,0.152
MSB1996WRNO,2019-10-04-14-21-29,2,59,0.5105170668693784,left,probe,biased-switch,-1,-20,left,left,0.116
MSB1996WRNO,2019-10-04-14-21-29,2,60,0.6355097074276774,left,both,biased-switch,98,-20,left,left,0.127
MSB1996WRNO,2019-10-04-14-21-29,2,61,0.5248214260946312,right,probe,ambiguous-switch,-1,-20,right,right,0.155
MSB1996WRNO,2019-10-04-14-21-29,2,62,0.5451060066274701,right,both,ambiguous-switch,104,-20,right,right,0.057
MSB1996WRNO,2019-10-04-14-21-29,2,63,0.6760165259705454,right,probe,biased-switch,-1,-30,right,right,0.067
MSB1996WRNO,2019-10-04-14-21-29,2,64,0.5226598257898691,right,both,biased-switch,105,-30,right,right,0.194
MSB1996WRNO,2019-10-04-14-21-29,2,65,0.5627073927036528,left,probe,ambiguous-switch,-1,0,left,left,0.164
MSB1996WRNO,2019-10-04-14-21-29,2,66,0.5863477359010325,left,both,ambiguous-switch,103,0,left,left,0.044
MSB1996WRNO,2019-10-04-14-21-29,2,67,0.5044556730294913,right,probe,biased-switch,-1,30,left,left,0.121
MSB1996WRNO,2019-10-04-14-21-29,2,68,0.5416926505062819,right,both,biased-switch,101,30,left,right,0.173
MSB1996WRNO,2019-10-04-14-21-29,2,69,0.5519236249079684,right,probe,biased-switch,-1,40,right,right,0.149
MSB1996WRNO,2019-10-04-14-21-29,2,70,0.5439371797035106,right,both,biased-switch,94,40,right,left,0.085
MSB1996WRNO,2019-10-04-14-21-29,2,71,0.542779044354191,right,probe,ambiguous-switch,-1,40,left,left,0.156
MSB1996WRNO,2019-10-04-14-21-29,2,72,0.5461780649292074,right,both,ambiguous-switch,105,40,left,left,0.158
MSB1996WRNO,2019-10-04-14-21-29,2,73,0.5789074216964913,left,probe,ambiguous-switch,-1,10,left,left,0.144
MSB1996WRNO,2019-10-04-14-21-29,2,74,0.618492774043828,left,both,ambiguous-switch,96,10,left,right,0.08
MSB1996WRNO,2019-10-04-14-21-29,2,75,0.5861061740669037,right,probe,ambiguous-switch,-1,-30,right,right,0.183
MSB1996WRNO,2019-10-04-14-21-29,2,76,0.6745157555609811,right,both,ambiguous-switch,103,-30,right,right,0.158
MSB1996WRNO,2019-10-04-14-21-29,2,77,0.648050926334568,right,probe,biased-switch,-1,-5,right,right,0.137
MSB1996WRNO,2019-10-04-14-21-29,2,78,0.6689296234597234,right,both,biased-switch,98,-5,right,right,0.102
MSB1996WRNO,2019-10-04-14-21-29,2,79,0.6265251743638266,left,probe,ambiguous-switch,-1,-10,left,left,0.139
MSB1996WRNO,2019-10-04-14-21-29,2,80,0.6163354284365075,left,both,ambiguous-switch,100,-10,left,left,1.053
MSB1996WRNO,2019-10-04-14-21-29,3,1,0.5534421665844169,right,probe,ambiguous-switch,-1,10,right,right,0.505
MSB1996WRNO,2019-10-04-14-21-29,3,2,0.5311639544716439,right,both,ambiguous-switch,106,10,right,right,0.223
MSB1996WRNO,2019-10-04-14-21-29,3,3,0.6040095680340426,right,probe,ambiguous-switch,-1,0,right,right,0.164
MSB1996WRNO,2019-10-04-14-21-29,3,4,0.570244272121775,right,both,ambiguous-switch,104,0,right,right,0.967
MSB1996WRNO,2019-10-04-14-21-29,3,5,0.5144169277331682,right,probe,biased-switch,-1,5,right,right,0.166
MSB1996WRNO,2019-10-04-14-21-29,3,6,0.5141709727337404,right,both,biased-switch,106,5,right,right,0.157
MSB1996WRNO,2019-10-04-14-21-29,3,7,0.536755791075943,right,probe,ambiguous-switch,-1,30,right,right,0.18
MSB1996WRNO,2019-10-04-14-21-29,3,8,0.6965736422587042,right,both,ambiguous-switch,93,30,right,left,0.33
MSB1996WRNO,2019-10-04-14-21-29,3,9,0.5752882351050214,right,probe,biased-switch,-1,0,left,left,0.157
MSB1996WRNO,2019-10-04-14-21-29,3,10,0.578732197231049,right,both,biased-switch,108,0,left,right,0.169
MSB1996WRNO,2019-10-04-14-21-29,3,11,0.5283137823464111,right,probe,biased-switch,-1,-10,right,right,0.131
MSB1996WRNO,2019-10-04-14-21-29,3,12,0.6132102333448448,right,both,biased-switch,97,-10,right,right,0.18
MSB1996WRNO,2019-10-04-14-21-29,3,13,0.5437798688708761,right,probe,ambiguous-switch,-1,-5,left,left,0.116
MSB1996WRNO,2019-10-04-14-21-29,3,14,0.5273019124114867,right,both,ambiguous-switch,91,-5,left,right,0.145
MSB1996WRNO,2019-10-04-14-21-29,3,15,0.6159706394134482,left,probe,biased-switch,-1,20,left,left,0.137
MSB1996WRNO,2019-10-04-14-21-29,3,16,0.5412725463808457,left,both,biased-switch,104,20,left,left,0.167
MSB1996WRNO,2019-10-04-14-21-29,3,17,0.6435679156613884,right,probe,ambiguous-switch,-1,-20,right,right,0.17
MSB1996WRNO,2019-10-04-14-21-29,3,18,0.5545876503747436,right,both,ambiguous-switch,104,-20,right,right,0.154
MSB1996WRNO,2019-10-04-14-21-29,3,19,0.5957019942930782,right,probe,biased-switch,-1,40,right,right,0.178
MSB1996WRNO,2019-10-04-14-21-29,3,20,0.5385657217745743,right,both,biased-switch,99,40,right,left,0.162
MSB1996WRNO,2019-10-04-14-21-29,3,21,0.6031732162022111,right,probe,ambiguous-switch,-1,-10,left,left,0.175
MSB1996WRNO,2019-10-04-14-21-29,3,22,0.6447975916284003,right,both,ambiguous-switch,100,-10,left,left,0.162
MSB1996WRNO,2019-10-04-14-21-29,3,23,0.5937134395230608,right,probe,biased-switch,-1,10,left,left,0.153
MSB1996WRNO,2019-10-04-14-21-29,3,24,0.5219805000466204,right,both,biased-switch,93,10,left,left,0.493
MSB1996WRNO,2019-10-04-14-21-29,3,25,0.5871141050336816,left,probe,ambiguous-switch,-1,-30,left,left,0.135
MSB1996WRNO,2019-10-04-14-21-29,3,26,0.580252705987649,left,both,ambiguous-switch,103,-30,left,left,0.201
MSB1996WRNO,2019-10-04-14-21-29,3,27,0.6674372950588101,right,probe,biased-switch,-1,30,right,right,0.151
MSB1996WRNO,2019-10-04-14-21-29,3,28,0.6657878814466717,right,both,biased-switch,98,30,right,right,0.184
MSB1996WRNO,2019-10-04-14-21-29,3,29,0.5249176387795702,left,probe,ambiguous-switch,-1,20,left,left,0.177
MSB1996WRNO,2019-10-04-14-21-29,3,30,0.5842343176859215,left,both,ambiguous-switch,99,20,left,left,0.159
MSB1996WRNO,2019-10-04-14-21-29,3,31,0.6026808371056094,left,probe,ambiguous-switch,-1,40,left,left,0.084
MSB1996WRNO,2019-10-04-14-21-29,3,32,0.6266181485209223,left,both,ambiguous-switch,102,40,left,left,0.161
MSB1996WRNO,2019-10-04-14-21-29,3,33,0.5869690853950735,right,probe,biased-switch,-1,-5,right,right,0.187
MSB1996WRNO,2019-10-04-14-21-29,3,34,0.5206355837597081,right,both,biased-switch,109,-5,right,right,0.174
MSB1996WRNO,2019-10-04-14-21-29,3,35,0.625968195859044,right,probe,biased-switch,-1,-20,right,right,0.142
MSB1996WRNO,2019-10-04-14-21-29,3,36,0.5919324821881613,right,both,biased-switch,91,-20,right,right,0.163
MSB1996WRNO,2019-10-04-14-21-29,3,37,0.6446944541994106,left,probe,ambiguous-switch,-1,5,left,left,0.172
MSB1996WRNO,2019-10-04-14-21-29,3,38,0.6583627164656045,left,both,ambiguous-switch,110,5,left,left,0.167
MSB1996WRNO,2019-10-04-14-21-29,3,39,0.5907643894942196,left,probe,biased-switch,-1,-30,left,left,0.057
MSB1996WRNO,2019-10-04-14-21-29,3,40,0.6981122528553745,left,both,biased-switch,94,-30,left,left,0.151
MSB1996WRNO,2019-10-04-14-21-29,3,41,0.6210592202718122,left,probe,ambiguous-switch,-1,10,left,left,0.144
MSB1996WRNO,2019-10-04-14-21-29,3,42,0.6582325190060982,left,both,ambiguous-switch,105,10,left,left,0.19
MSB1996WRNO,2019-10-04-14-21-29,3,43,0.6980836023091087,right,probe,ambiguous-switch,-1,0,right,right,0.169
MSB1996WRNO,2019-10-04-14-21-29,3,44,0.5818402034970395,right,both,ambiguous-switch,99,0,right,right,0.105
MSB1996WRNO,2019-10-04-14-21-29,3,45,0.6330064931449857,right,probe,biased-switch,-1,5,right,right,0.271
MSB1996WRNO,2019-10-04-14-21-29,3,46,0.6077927278291512,right,both,biased-switch,98,5,right,right,0.144
MSB1996WRNO,2019-10-04-14-21-29,3,47,0.527661845948946,left,probe,ambiguous-switch,-1,30,left,left,0.146
MSB1996WRNO,2019-10-04-14-21-29,3,48,0.5965290607390697,left,both,ambiguous-switch,106,30,left,left,0.195
MSB1996WRNO,2019-10-04-14-21-29,3,49,0.5120769777379326,left,probe,biased-switch,-1,0,left,left,0.138
MSB1996WRNO,2019-10-04-14-21-29,3,50,0.6786395236334442,left,both,biased-switch,110,0,left,left,0.203
MSB1996WRNO,2019-10-04-14-21-29,3,51,0.5498023206830093,left,probe,biased-switch,-1,-10,left,left,0.179
MSB1996WRNO,2019-10-04-14-21-29,3,52,0.6002119014205546,left,both,biased-switch,94,-10,left,left,0.139
MSB1996WRNO,2019-10-04-14-21-29,3,53,0.534973715917925,left,probe,ambiguous-switch,-1,-5,left,left,0.148
MSB1996WRNO,2019-10-04-14-21-29,3,54,0.6925258772295954,left,both,ambiguous-switch,107,-5,left,left,0.083
MSB1996WRNO,2019-10-04-14-21-29,3,55,0.5354396883231476,left,probe,biased-switch,-1,20,left,left,0.224
MSB1996WRNO,2019-10-04-14-21-29,3,56,0.6565145342207588,left,both,biased-switch,99,20,left,left,0.175
MSB1996WRNO,2019-10-04-14-21-29,3,57,0.6265221234265883,left,probe,ambiguous-switch,-1,-20,left,left,0.09
MSB1996WRNO,2019-10-04-14-21-29,3,58,0.5590362586420712,left,both,ambiguous-switch,92,-20,left,left,0.124
MSB1996WRNO,2019-10-04-14-21-29,3,59,0.5004070260450794,right,probe,biased-switch,-1,40,right,right,0.27
MSB1996WRNO,2019-10-04-14-21-29,3,60,0.6801985523142913,right,both,biased-switch,106,40,right,right,0.161
MSB1996WRNO,2019-10-04-14-21-29,3,61,0.6936913326786813,right,probe,ambiguous-switch,-1,-10,right,right,0.169
MSB1996WRNO,2019-10-04-14-21-29,3,62,0.5415020387770721,right,both,ambiguous-switch,101,-10,right,left,0.169
MSB1996WRNO,2019-10-04-14-21-29,3,63,0.6629052261411426,right,probe,biased-switch,-1,10,right,right,0.133
MSB1996WRNO,2019-10-04-14-21-29,3,64,0.5150752717773559,right,both,biased-switch,103,10,right,left,0.144
MSB1996WRNO,2019-10-04-14-21-29,3,65,0.6264407519074647,right,probe,ambiguous-switch,-1,-30,left,left,0.108
MSB1996WRNO,2019-10-04-14-21-29,3,66,0.6581284780632431,right,both,ambiguous-switch,99,-30,left,left,0.163
MSB1996WRNO,2019-10-04-14-21-29,3,67,0.5272673222868229,left,probe,biased-switch,-1,30,left,left,0.128
MSB1996WRNO,2019-10-04-14-21-29,3,68,0.6703331449938601,left,both,biased-switch,109,30,left,left,0.092
MSB1996WRNO,2019-10-04-14-21-29,3,69,0.6929828015343622,left,probe,ambiguous-switch,-1,20,left,left,0.168
MSB1996WRNO,2019-10-04-14-21-29,3,70,0.6829295973838818,left,both,ambiguous-switch,91,20,left,left,0.171
MSB1996WRNO,2019-10-04-14-21-29,3,71,0.6302718902896416,right,probe,ambiguous-switch,-1,40,right,right,0.146
MSB1996WRNO,2019-10-04-14-21-29,3,72,0.6074932078338436,right,both,ambiguous-switch,101,40,right,right,0.175
MSB1996WRNO,2019-10-04-14-21-29,3,73,0.6101955405325982,left,probe,biased-switch,-1,-5,left,left,0.168
MSB1996WRNO,2019-10-04-14-21-29,3,74,0.5336904710440882,left,both,biased-switch,91,-5,left,left,0.181
MSB1996WRNO,2019-10-04-14-21-29,3,75,0.5974109877709646,right,probe,biased-switch,-1,-20,right,right,0.199
MSB1996WRNO,2019-10-04-14-21-29,3,76,0.6330736741924194,right,both,biased-switch,102,-20,right,right,0.136
MSB1996WRNO,2019-10-04-14-21-29,3,77,0.5903977111101061,right,probe,ambiguous-switch,-1,5,left,left,0.163
MSB1996WRNO,2019-10-04-14-21-29,3,78,0.5323030387922618,right,both,ambiguous-switch,110,5,left,right,0.131
MSB1996WRNO,2019-10-04-14-21-29,3,79,0.6431898702052599,right,probe,biased-switch,-1,-30,right,right,0.166
MSB1996WRNO,2019-10-04-14-21-29,3,80,0.5999741612827405,right,both,biased-switch,92,-30,right,left,0.289
MSB1996WRNO,2019-10-04-14-21-29,4,1,0.6129170750989199,left,probe,biased-switch,-1,20,left,left,0.213
MSB1996WRNO,2019-10-04-14-21-29,4,2,0.562204176768631,left,both,biased-switch,100,20,left,left,0.16
MSB1996WRNO,2019-10-04-14-21-29,4,3,0.5899507354902885,right,probe,biased-switch,-1,-30,right,right,0.132
MSB1996WRNO,2019-10-04-14-21-29,4,4,0.6849805275411587,right,both,biased-switch,91,-30,right,left,0.835
MSB1996WRNO,2019-10-04-14-21-29,4,5,0.506801484167082,right,probe,biased-switch,-1,5,left,left,0.226
MSB1996WRNO,2019-10-04-14-21-29,4,6,0.6780312781640161,right,both,biased-switch,99,5,left,right,0.063
MSB1996WRNO,2019-10-04-14-21-29,4,7,0.5028851978145598,left,probe,biased-switch,-1,40,left,left,0.293
MSB1996WRNO,2019-10-04-14-21-29,4,8,0.6799408003467249,left,both,biased-switch,106,40,left,left,0.023
MSB1996WRNO,2019-10-04-14-21-29,4,9,0.6473188831727759,left,probe,ambiguous-switch,-1,40,left,left,0.117
MSB1996WRNO,2019-10-04-14-21-29,4,10,0.640735818160185,left,both,ambiguous-switch,105,40,left,left,0.119
MSB1996WRNO,2019-10-04-14-21-29,4,11,0.6189957938117602,left,probe,biased-switch,-1,-10,left,left,0.466
MSB1996WRNO,2019-10-04-14-21-29,4,12,0.5959216497984162,left,both,biased-switch,91,-10,left,left,0.199
MSB1996WRNO,2019-10-04-14-21-29,4,13,0.6817856883997957,left,probe,biased-switch,-1,-20,left,left,0.193
MSB1996WRNO,2019-10-04-14-21-29,4,14,0.6289911789649156,left,both,biased-switch,92,-20,left,left,0.174
MSB1996WRNO,2019-10-04-14-21-29,4,15,0.5636294028975462,right,probe,biased-switch,-1,0,right,right,0.189
MSB1996WRNO,2019-10-04-14-21-29,4,16,0.6690718882682938,right,both,biased-switch,97,0,right,right,0.415
MSB1996WRNO,2019-10-04-14-21-29,4,17,0.5909370742229527,left,probe,ambiguous-switch,-1,-10,left,left,0.3
MSB1996WRNO,2019-10-04-14-21-29,4,18,0.5222729557801005,left,both,ambiguous-switch,102,-10,left,left,0.171
MSB1996WRNO,2019-10-04-14-21-29,4,19,0.6681347319978881,left,probe,biased-switch,-1,30,left,left,0.417
MSB1996WRNO,2019-10-04-14-21-29,4,20,0.6368240101595728,left,both,biased-switch,97,30,left,left,0.162
MSB1996WRNO,2019-10-04-14-21-29,4,21,0.6133039998507133,left,probe,ambiguous-switch,-1,0,right,right,0.405
MSB1996WRNO,2019-10-04-14-21-29,4,22,0.5624800399674562,left,both,ambiguous-switch,109,0,right,left,0.234
MSB1996WRNO,2019-10-04-14-21-29,4,23,0.6323399161322705,left,probe,biased-switch,-1,-5,left,left,0.162
MSB1996WRNO,2019-10-04-14-21-29,4,24,0.6288283487161722,left,both,biased-switch,105,-5,left,left,0.189
MSB1996WRNO,2019-10-04-14-21-29,4,25,0.5384985133579363,left,probe,ambiguous-switch,-1,-5,left,left,0.213
MSB1996WRNO,2019-10-04-14-21-29,4,26,0.5950614783500885,left,both,ambiguous-switch,95,-5,left,left,0.093
MSB1996WRNO,2019-10-04-14-21-29,4,27,0.6424912600036811,right,probe,ambiguous-switch,-1,-30,right,right,0.151
MSB1996WRNO,2019-10-04-14-21-29,4,28,0.5298522187127002,right,both,ambiguous-switch,107,-30,right,right,0.117
MSB1996WRNO,2019-10-04-14-21-29,4,29,0.5932676973450288,left,probe,ambiguous-switch,-1,20,left,left,0.17
MSB1996WRNO,2019-10-04-14-21-29,4,30,0.6779819119511371,left,both,ambiguous-switch,95,20,left,left,0.165
MSB1996WRNO,2019-10-04-14-21-29,4,31,0.568999547489839,left,probe,ambiguous-switch,-1,-20,left,left,0.193
MSB1996WRNO,2019-10-04-14-21-29,4,32,0.6620187371665645,left,both,ambiguous-switch,91,-20,left,left,0.122
MSB1996WRNO,2019-10-04-14-21-29,4,33,0.5877375977968311,right,probe,ambiguous-switch,-1,30,right,right,0.107
MSB1996WRNO,2019-10-04-14-21-29,4,34,0.5607936523861132,right,both,ambiguous-switch,101,30,right,right,0.194
MSB1996WRNO,2019-10-04-14-21-29,4,35,0.5893142747819227,left,probe,biased-switch,-1,10,left,left,0.179
MSB1996WRNO,2019-10-04-14-21-29,4,36,0.6075737305433033,left,both,biased-switch,109,10,left,left,0.328
MSB1996WRNO,2019-10-04-14-21-29,4,37,0.674924921429142,left,probe,ambiguous-switch,-1,10,left,left,0.226
MSB1996WRNO,2019-10-04-14-21-29,4,38,0.5618792482548843,left,both,ambiguous-switch,98,10,left,left,0.14
MSB1996WRNO,2019-10-04-14-21-29,4,39,0.688129611698433,left,probe,ambiguous-switch,-1,5,left,left,0.265
MSB1996WRNO,2019-10-04-14-21-29,4,40,0.674285378308205,left,both,ambiguous-switch,110,5,left,left,0.204
MSB1996WRNO,2019-10-04-14-21-29,4,41,0.6291381660043168,right,probe,biased-switch,-1,20,right,right,0.152
MSB1996WRNO,2019-10-04-14-21-29,4,42,0.5180736405707218,right,both,biased-switch,95,20,right,left,0.142
MSB1996WRNO,2019-10-04-14-21-29,4,43,0.5598623497721599,right,probe,biased-switch,-1,-30,left,left,0.186
MSB1996WRNO,2019-10-04-14-21-29,4,44,0.6795318099928583,right,both,biased-switch,96,-30,left,right,0.174
MSB1996WRNO,2019-10-04-14-21-29,4,45,0.5266498478404539,left,probe,biased-switch,-1,5,left,left,0.085
MSB1996WRNO,2019-10-04-14-21-29,4,46,0.6480161346956417,left,both,biased-switch,99,5,left,right,0.153
MSB1996WRNO,2019-10-04-14-21-29,4,47,0.6984665078474047,right,probe,biased-switch,-1,40,right,right,0.154
MSB1996WRNO,2019-10-04-14-21-29,4,48,0.5550989874344652,right,both,biased-switch,98,40,right,left,0.076
MSB1996WRNO,2019-10-04-14-21-29,4,49,0.6912706191270115,left,probe,ambiguous-switch,-1,40,left,left,0.198
MSB1996WRNO,2019-10-04-14-21-29,4,50,0.6558601821501184,left,both,ambiguous-switch,110,40,left,left,0.161
MSB1996WRNO,2019-10-04-14-21-29,4,51,0.6471565296289881,right,probe,biased-switch,-1,-10,right,right,0.17
MSB1996WRNO,2019-10-04-14-21-29,4,52,0.5623287862615522,right,both,biased-switch,91,-10,right,right,0.098
MSB1996WRNO,2019-10-04-14-21-29,4,53,0.5576418773437258,left,probe,biased-switch,-1,-20,left,left,0.189
MSB1996WRNO,2019-10-04-14-21-29,4,54,0.6860796733089682,left,both,biased-switch,92,-20,left,left,0.091
MSB1996WRNO,2019-10-04-14-21-29,4,55,0.6742804107335248,right,probe,biased-switch,-1,0,right,right,0.184
MSB1996WRNO,2019-10-04-14-21-29,4,56,0.6911042130942442,right,both,biased-switch,102,0,right,right,0.159
MSB1996WRNO,2019-10-04-14-21-29,4,57,0.6389194276734229,left,probe,ambiguous-switch,-1,-10,left,left,0.167
MSB1996WRNO,2019-10-04-14-21-29,4,58,0.5906970321087068,left,both,ambiguous-switch,105,-10,left,left,0.147
MSB1996WRNO,2019-10-04-14-21-29,4,59,0.5145779558984098,right,probe,biased-switch,-1,30,right,right,0.137
MSB1996WRNO,2019-10-04-14-21-29,4,60,0.6843753851597247,right,both,biased-switch,107,30,right,right,0.143
MSB1996WRNO,2019-10-04-14-21-29,4,61,0.5983201973296275,left,probe,ambiguous-switch,-1,0,left,left,0.103
MSB1996WRNO,2019-10-04-14-21-29,4,62,0.5530969644890691,left,both,ambiguous-switch,106,0,left,left,0.153
MSB1996WRNO,2019-10-04-14-21-29,4,63,0.5803978712159608,right,probe,biased-switch,-1,-5,right,right,0.142
MSB1996WRNO,2019-10-04-14-21-29,4,64,0.5556760614457724,right,both,biased-switch,93,-5,right,right,0.146
MSB1996WRNO,2019-10-04-14-21-29,4,65,0.5136596874022963,left,probe,ambiguous-switch,-1,-5,left,left,0.0
MSB1996WRNO,2019-10-04-14-21-29,4,66,0.5485993488084049,left,both,ambiguous-switch,95,-5,left,left,0.183
MSB1996WRNO,2019-10-04-14-21-29,4,67,0.6806197243315282,left,probe,ambiguous-switch,-1,-30,left,left,0.101
MSB1996WRNO,2019-10-04-14-21-29,4,68,0.5918738744401675,left,both,ambiguous-switch,94,-30,left,left,1.191
MSB1996WRNO,2019-10-04-14-21-29,4,69,0.503924993424606,left,probe,ambiguous-switch,-1,20,left,left,0.197
MSB1996WRNO,2019-10-04-14-21-29,4,70,0.6253098919186818,left,both,ambiguous-switch,97,20,left,left,0.031
MSB1996WRNO,2019-10-04-14-21-29,4,71,0.6221166121288966,left,probe,ambiguous-switch,-1,-20,right,right,0.751
MSB1996WRNO,2019-10-04-14-21-29,4,72,0.6898940650258145,left,both,ambiguous-switch,102,-20,right,left,0.11
MSB1996WRNO,2019-10-04-14-21-29,4,73,0.6658059752403565,right,probe,ambiguous-switch,-1,30,right,right,0.159
MSB1996WRNO,2019-10-04-14-21-29,4,74,0.5207063309303744,right,both,ambiguous-switch,95,30,right,right,0.072
MSB1996WRNO,2019-10-04-14-21-29,4,75,0.6064917209473633,right,probe,biased-switch,-1,10,left,left,0.208
MSB1996WRNO,2019-10-04-14-21-29,4,76,0.5979889956571777,right,both,biased-switch,109,10,left,left,0.656
MSB1996WRNO,2019-10-04-14-21-29,4,77,0.6236739065455165,left,probe,ambiguous-switch,-1,10,left,left,0.187
MSB1996WRNO,2019-10-04-14-21-29,4,78,0.6864388098821741,left,both,ambiguous-switch,93,10,left,left,0.178
MSB1996WRNO,2019-10-04-14-21-29,4,79,0.5568739872673517,right,probe,ambiguous-switch,-1,5,left,left,0.184
MSB1996WRNO,2019-10-04-14-21-29,4,80,0.6933765540975094,right,both,ambiguous-switch,93,5,left,right,0.152
MSB1996WRNO,2019-10-04-14-21-29,5,1,0.6255264551236286,right,probe,ambiguous-switch,-1,-30,right,right,0.293
MSB1996WRNO,2019-10-04-14-21-29,5,2,0.5028985489562586,right,both,ambiguous-switch,100,-30,right,right,0.163
MSB1996WRNO,2019-10-04-14-21-29,5,3,0.58680647561752,right,probe,ambiguous-switch,-1,-5,right,right,0.153
MSB1996WRNO,2019-10-04-14-21-29,5,4,0.5913402379441179,right,both,ambiguous-switch,96,-5,right,right,0.164
MSB1996WRNO,2019-10-04-14-21-29,5,5,0.5839225998210534,right,probe,biased-switch,-1,-30,right,right,0.183
MSB1996WRNO,2019-10-04-14-21-29,5,6,0.6351227840415326,right,both,biased-switch,94,-30,right,right,0.165
MSB1996WRNO,2019-10-04-14-21-29,5,7,0.6934892037577252,left,probe,biased-switch,-1,-10,left,left,0.092
MSB1996WRNO,2019-10-04-14-21-29,5,8,0.6648469006228492,left,both,biased-switch,100,-10,left,right,2.782
MSB1996WRNO,2019-10-04-14-21-29,5,9,0.6943249521066186,left,probe,ambiguous-switch,-1,20,right,right,0.085
MSB1996WRNO,2019-10-04-14-21-29,5,10,0.6610406056471776,left,both,ambiguous-switch,92,20,right,left,0.135
MSB1996WRNO,2019-10-04-14-21-29,5,11,0.62906540257185,right,probe,ambiguous-switch,-1,30,right,right,0.17
MSB1996WRNO,2019-10-04-14-21-29,5,12,0.6435481782425299,right,both,ambiguous-switch,92,30,right,right,0.178
MSB1996WRNO,2019-10-04-14-21-29,5,13,0.5357318627476475,right,probe,biased-switch,-1,-20,right,right,0.179
MSB1996WRNO,2019-10-04-14-21-29,5,14,0.6773936602606168,right,both,biased-switch,97,-20,right,right,0.186
MSB1996WRNO,2019-10-04-14-21-29,5,15,0.6606429409100485,right,probe,biased-switch,-1,-5,right,right,0.179
MSB1996WRNO,2019-10-04-14-21-29,5,16,0.6864951038234738,right,both,biased-switch,92,-5,right,right,0.342
MSB1996WRNO,2019-10-04-14-21-29,5,17,0.5136083015025338,right,probe,biased-switch,-1,20,right,right,0.156
MSB1996WRNO,2019-10-04-14-21-29,5,18,0.6415343198945356,right,both,biased-switch,103,20,right,right,0.241
MSB1996WRNO,2019-10-04-14-21-29,5,19,0.5448754207231191,right,probe,biased-switch,-1,0,right,right,0.16
MSB1996WRNO,2019-10-04-14-21-29,5,20,0.6529090655757614,right,both,biased-switch,96,0,right,right,0.071
MSB1996WRNO,2019-10-04-14-21-29,5,21,0.6013791638031125,left,probe,biased-switch,-1,5,right,right,0.12
MSB1996WRNO,2019-10-04-14-21-29,5,22,0.5338489577769605,left,both,biased-switch,95,5,right,left,0.09
MSB1996WRNO,2019-10-04-14-21-29,5,23,0.5708405583648101,right,probe,biased-switch,-1,10,right,right,0.207
MSB1996WRNO,2019-10-04-14-21-29,5,24,0.6304050735456173,right,both,biased-switch,108,10,right,left,0.174
MSB1996WRNO,2019-10-04-14-21-29,5,25,0.5670671179235276,left,probe,ambiguous-switch,-1,-10,left,left,0.176
MSB1996WRNO,2019-10-04-14-21-29,5,26,0.6632126426253941,left,both,ambiguous-switch,92,-10,left,left,0.155
MSB1996WRNO,2019-10-04-14-21-29,5,27,0.5443648344883865,right,probe,biased-switch,-1,40,right,right,0.186
MSB1996WRNO,2019-10-04-14-21-29,5,28,0.6831892671971179,right,both,biased-switch,99,40,right,left,0.172
MSB1996WRNO,2019-10-04-14-21-29,5,29,0.5313769678009953,right,probe,ambiguous-switch,-1,40,right,right,0.172
MSB1996WRNO,2019-10-04-14-21-29,5,30,0.5076413500062136,right,both,ambiguous-switch,109,40,right,left,0.197
MSB1996WRNO,2019-10-04-14-21-29,5,31,0.6374280003633747,right,probe,biased-switch,-1,30,right,right,0.18
MSB1996WRNO,2019-10-04-14-21-29,5,32,0.5354090516827049,right,both,biased-switch,96,30,right,right,0.163
MSB1996WRNO,2019-10-04-14-21-29,5,33,0.5035178944774881,right,probe,ambiguous-switch,-1,5,left,left,0.193
MSB1996WRNO,2019-10-04-14-21-29,5,34,0.6341403956347216,right,both,ambiguous-switch,98,5,left,right,0.088
MSB1996WRNO,2019-10-04-14-21-29,5,35,0.5758125502160117,right,probe,ambiguous-switch,-1,0,left,left,0.17
MSB1996WRNO,2019-10-04-14-21-29,5,36,0.6442824956364881,right,both,ambiguous-switch,102,0,left,right,0.125
MSB1996WRNO,2019-10-04-14-21-29,5,37,0.6834314625113999,left,probe,ambiguous-switch,-1,-20,left,left,1.938
MSB1996WRNO,2019-10-04-14-21-29,5,38,0.5582673609530421,left,both,ambiguous-switch,98,-20,left,left,0.168
MSB1996WRNO,2019-10-04-14-21-29,5,39,0.5547551522838328,right,probe,ambiguous-switch,-1,10,right,right,0.165
MSB1996WRNO,2019-10-04-14-21-29,5,40,0.6348730782311685,right,both,ambiguous-switch,95,10,right,right,0.191
MSB1996WRNO,2019-10-04-14-21-29,5,41,0.641133521908307,right,probe,ambiguous-switch,-1,-30,left,left,0.174
MSB1996WRNO,2019-10-04-14-21-29,5,42,0.6377997142274715,right,both,ambiguous-switch,102,-30,left,right,0.09
MSB1996WRNO,2019-10-04-14-21-29,5,43,0.5885117146454477,right,probe,ambiguous-switch,-1,-5,left,left,0.236
MSB1996WRNO,2019-10-04-14-21-29,5,44,0.572725859158945,right,both,ambiguous-switch,107,-5,left,right,0.14
MSB1996WRNO,2019-10-04-14-21-29,5,45,0.5200288003444219,left,probe,biased-switch,-1,-30,right,right,0.082
MSB1996WRNO,2019-10-04-14-21-29,5,46,0.5563128247617548,left,both,biased-switch,106,-30,right,left,1.166
MSB1996WRNO,2019-10-04-14-21-29,5,47,0.504143738197827,left,probe,biased-switch,-1,-10,left,left,0.148
MSB1996WRNO,2019-10-04-14-21-29,5,48,0.6465981673354979,left,both,biased-switch,92,-10,left,left,0.115
MSB1996WRNO,2019-10-04-14-21-29,5,49,0.5532435772314795,right,probe,ambiguous-switch,-1,20,left,left,0.166
MSB1996WRNO,2019-10-04-14-21-29,5,50,0.5300503045603268,right,both,ambiguous-switch,104,20,left,right,0.155
MSB1996WRNO,2019-10-04-14-21-29,5,51,0.6372180118435351,left,probe,ambiguous-switch,-1,30,left,left,0.197
MSB1996WRNO,2019-10-04-14-21-29,5,52,0.6722553647826461,left,both,ambiguous-switch,95,30,left,left,0.171
MSB1996WRNO,2019-10-04-14-21-29,5,53,0.5347307505942083,right,probe,biased-switch,-1,-20,right,right,0.142
MSB1996WRNO,2019-10-04-14-21-29,5,54,0.6623677572518256,right,both,biased-switch,97,-20,right,right,0.153
MSB1996WRNO,2019-10-04-14-21-29,5,55,0.583720763836207,right,probe,biased-switch,-1,-5,left,left,0.155
MSB1996WRNO,2019-10-04-14-21-29,5,56,0.6659785666748538,right,both,biased-switch,93,-5,left,right,0.105
MSB1996WRNO,2019-10-04-14-21-29,5,57,0.6165304400653994,right,probe,biased-switch,-1,20,right,right,0.145
MSB1996WRNO,2019-10-04-14-21-29,5,58,0.6031067301773683,right,both,biased-switch,96,20,right,right,0.12
MSB1996WRNO,2019-10-04-14-21-29,5,59,0.6332500362654414,right,probe,biased-switch,-1,0,right,right,0.174
MSB1996WRNO,2019-10-04-14-21-29,5,60,0.621254815952964,right,both,biased-switch,99,0,right,left,0.196
MSB1996WRNO,2019-10-04-14-21-29,5,61,0.6387153943767792,left,probe,biased-switch,-1,5,left,left,0.168
MSB1996WRNO,2019-10-04-14-21-29,5,62,0.6854342990790299,left,both,biased-switch,104,5,left,right,0.093
MSB1996WRNO,2019-10-04-14-21-29,5,63,0.619470578251337,left,probe,biased-switch,-1,10,left,left,0.136
MSB1996WRNO,2019-10-04-14-21-29,5,64,0.5388485356216706,left,both,biased-switch,108,10,left,right,0.067
MSB1996WRNO,2019-10-04-14-21-29,5,65,0.5984940161911507,left,probe,ambiguous-switch,-1,-10,left,left,0.086
MSB1996WRNO,2019-10-04-14-21-29,5,66,0.5806573718247208,left,both,ambiguous-switch,106,-10,left,right,1.129
MSB1996WRNO,2019-10-04-14-21-29,5,67,0.6522578592853825,left,probe,biased-switch,-1,40,right,right,0.123
MSB1996WRNO,2019-10-04-14-21-29,5,68,0.5422367668735706,left,both,biased-switch,95,40,right,left,0.151
MSB1996WRNO,2019-10-04-14-21-29,5,69,0.5383813250689482,right,probe,ambiguous-switch,-1,40,right,right,0.191
MSB1996WRNO,2019-10-04-14-21-29,5,70,0.6778981053586981,right,both,ambiguous-switch,103,40,right,right,0.138
MSB1996WRNO,2019-10-04-14-21-29,5,71,0.629269004672316,left,probe,biased-switch,-1,30,right,right,0.035
MSB1996WRNO,2019-10-04-14-21-29,5,72,0.6807108422744361,left,both,biased-switch,106,30,right,left,0.184
MSB1996WRNO,2019-10-04-14-21-29,5,73,0.5224814624822463,right,probe,ambiguous-switch,-1,5,right,right,0.154
MSB1996WRNO,2019-10-04-14-21-29,5,74,0.5487141335243625,right,both,ambiguous-switch,103,5,right,right,0.16
MSB1996WRNO,2019-10-04-14-21-29,5,75,0.5522254471133639,right,probe,ambiguous-switch,-1,0,right,right,0.532
MSB1996WRNO,2019-10-04-14-21-29,5,76,0.5092613925052075,right,both,ambiguous-switch,106,0,right,right,0.18
MSB1996WRNO,2019-10-04-14-21-29,5,77,0.6654179624682186,right,probe,ambiguous-switch,-1,-20,right,right,0.213
MSB1996WRNO,2019-10-04-14-21-29,5,78,0.6082140556894486,right,both,ambiguous-switch,94,-20,right,right,0.131
MSB1996WRNO,2019-10-04-14-21-29,5,79,0.5112296520995808,left,probe,ambiguous-switch,-1,10,right,right,0.159
MSB1996WRNO,2019-10-04-14-21-29,5,80,0.591549638257827,left,both,ambiguous-switch,99,10,right,left,0.096
MSB1996WRNO,2019-10-04-14-21-29,6,1,0.5344061043527879,left,probe,ambiguous-switch,-1,40,left,left,0.181
MSB1996WRNO,2019-10-04-14-21-29,6,2,0.5449310628063389,left,both,ambiguous-switch,103,40,left,left,0.062
MSB1996WRNO,2019-10-04-14-21-29,6,3,0.5340770871819034,left,probe,ambiguous-switch,-1,10,left,left,0.003
MSB1996WRNO,2019-10-04-14-21-29,6,4,0.599771797982892,left,both,ambiguous-switch,98,10,left,left,1.166
MSB1996WRNO,2019-10-04-14-21-29,6,5,0.6670624482983321,left,probe,biased-switch,-1,10,left,left,0.163
MSB1996WRNO,2019-10-04-14-21-29,6,6,0.5093821630204798,left,both,biased-switch,110,10,left,right,0.19
MSB1996WRNO,2019-10-04-14-21-29,6,7,0.6782832647982847,right,probe,biased-switch,-1,30,right,right,0.172
MSB1996WRNO,2019-10-04-14-21-29,6,8,0.6122634786439902,right,both,biased-switch,96,30,right,right,0.163
MSB1996WRNO,2019-10-04-14-21-29,6,9,0.6219265047299966,right,probe,ambiguous-switch,-1,20,right,right,0.164
MSB1996WRNO,2019-10-04-14-21-29,6,10,0.6651461246200066,right,both,ambiguous-switch,103,20,right,right,0.125
MSB1996WRNO,2019-10-04-14-21-29,6,11,0.6968182554041666,right,probe,biased-switch,-1,40,right,right,0.014
MSB1996WRNO,2019-10-04-14-21-29,6,12,0.5029175508319246,right,both,biased-switch,105,40,right,right,0.097
MSB1996WRNO,2019-10-04-14-21-29,6,13,0.6563104016449135,right,probe,biased-switch,-1,-20,right,right,0.191
MSB1996WRNO,2019-10-04-14-21-29,6,14,0.51972344335002,right,both,biased-switch,93,-20,right,right,0.095
MSB1996WRNO,2019-10-04-14-21-29,6,15,0.6353438675684868,right,probe,ambiguous-switch,-1,0,right,right,0.231
MSB1996WRNO,2019-10-04-14-21-29,6,16,0.612084867495668,right,both,ambiguous-switch,98,0,right,right,0.134
MSB1996WRNO,2019-10-04-14-21-29,6,17,0.622757386278502,left,probe,ambiguous-switch,-1,5,right,right,0.138
MSB1996WRNO,2019-10-04-14-21-29,6,18,0.6408572855592267,left,both,ambiguous-switch,94,5,right,left,0.16
MSB1996WRNO,2019-10-04-14-21-29,6,19,0.5455682676214728,right,probe,ambiguous-switch,-1,-30,right,right,0.176
MSB1996WRNO,2019-10-04-14-21-29,6,20,0.5890873830221228,right,both,ambiguous-switch,103,-30,right,right,0.217
MSB1996WRNO,2019-10-04-14-21-29,6,21,0.5098677167759146,left,probe,biased-switch,-1,-30,left,left,0.137
MSB1996WRNO,2019-10-04-14-21-29,6,22,0.6398229658828596,left,both,biased-switch,101,-30,left,left,0.08
MSB1996WRNO,2019-10-04-14-21-29,6,23,0.6089422027657735,left,probe,biased-switch,-1,-5,left,left,0.904
MSB1996WRNO,2019-10-04-14-21-29,6,24,0.6220453362152611,left,both,biased-switch,103,-5,left,left,0.172
MSB1996WRNO,2019-10-04-14-21-29,6,25,0.6102533639648707,right,probe,biased-switch,-1,-10,right,right,0.164
MSB1996WRNO,2019-10-04-14-21-29,6,26,0.6111686346736432,right,both,biased-switch,91,-10,right,right,0.186
MSB1996WRNO,2019-10-04-14-21-29,6,27,0.6233531012738727,left,probe,biased-switch,-1,0,left,left,0.149
MSB1996WRNO,2019-10-04-14-21-29,6,28,0.5597791349662615,left,both,biased-switch,106,0,left,left,0.138
MSB1996WRNO,2019-10-04-14-21-29,6,29,0.5073222503477366,right,probe,biased-switch,-1,20,right,right,0.124
MSB1996WRNO,2019-10-04-14-21-29,6,30,0.5060589260163053,right,both,biased-switch,98,20,right,right,0.15
MSB1996WRNO,2019-10-04-14-21-29,6,31,0.6453918682377278,right,probe,biased-switch,-1,5,right,right,0.16
MSB1996WRNO,2019-10-04-14-21-29,6,32,0.6080193469500856,right,both,biased-switch,97,5,right,right,0.173
MSB1996WRNO,2019-10-04-14-21-29,6,33,0.518982723380238,left,probe,ambiguous-switch,-1,-10,left,left,0.155
MSB1996WRNO,2019-10-04-14-21-29,6,34,0.5099387734720102,left,both,ambiguous-switch,92,-10,left,left,0.161
MSB1996WRNO,2019-10-04-14-21-29,6,35,0.5798910204420503,left,probe,ambiguous-switch,-1,-5,left,left,0.062
MSB1996WRNO,2019-10-04-14-21-29,6,36,0.5543099310213336,left,both,ambiguous-switch,91,-5,left,left,0.114
MSB1996WRNO,2019-10-04-14-21-29,6,37,0.5498050399357666,left,probe,ambiguous-switch,-1,30,left,left,0.082
MSB1996WRNO,2019-10-04-14-21-29,6,38,0.5607933693698275,left,both,ambiguous-switch,108,30,left,left,0.074
MSB1996WRNO,2019-10-04-14-21-29,6,39,0.6992863204015436,right,probe,ambiguous-switch,-1,-20,right,right,0.182
MSB1996WRNO,2019-10-04-14-21-29,6,40,0.6800950111750835,right,both,ambiguous-switch,105,-20,right,right,0.11
MSB1996WRNO,2019-10-04-14-21-29,6,41,0.5463256500072243,right,probe,ambiguous-switch,-1,40,right,right,0.205
MSB1996WRNO,2019-10-04-14-21-29,6,42,0.5996480986822905,right,both,ambiguous-switch,95,40,right,right,0.111
MSB1996WRNO,2019-10-04-14-21-29,6,43,0.5456442957528824,right,probe,ambiguous-switch,-1,10,right,right,0.188
MSB1996WRNO,2019-10-04-14-21-29,6,44,0.5105073354476035,right,both,ambiguous-switch,92,10,right,right,0.094
MSB1996WRNO,2019-10-04-14-21-29,6,45,0.6631993948642856,right,probe,biased-switch,-1,10,right,right,0.142
MSB1996WRNO,2019-10-04-14-21-29,6,46,0.5441086727473131,right,both,biased-switch,96,10,right,right,0.147
MSB1996WRNO,2019-10-04-14-21-29,6,47,0.6408265029424586,right,probe,biased-switch,-1,30,left,left,0.189
MSB1996WRNO,2019-10-04-14-21-29,6,48,0.6888388266666825,right,both,biased-switch,110,30,left,right,0.166
MSB1996WRNO,2019-10-04-14-21-29,6,49,0.5509703635185396,left,probe,ambiguous-switch,-1,20,left,left,0.125
MSB1996WRNO,2019-10-04-14-21-29,6,50,0.5027584872744238,left,both,ambiguous-switch,97,20,left,left,0.173
MSB1996WRNO,2019-10-04-14-21-29,6,51,0.6783362910795958,left,probe,biased-switch,-1,40,left,left,0.193
MSB1996WRNO,2019-10-04-14-21-29,6,52,0.6994314713603875,left,both,biased-switch,102,40,left,left,0.148
MSB1996WRNO,2019-10-04-14-21-29,6,53,0.5907006948433698,left,probe,biased-switch,-1,-20,left,left,0.022
MSB1996WRNO,2019-10-04-14-21-29,6,54,0.5156803679347609,left,both,biased-switch,102,-20,left,left,0.164
MSB1996WRNO,2019-10-04-14-21-29,6,55,0.5493701842993244,right,probe,ambiguous-switch,-1,0,right,right,0.239
MSB1996WRNO,2019-10-04-14-21-29,6,56,0.6677735726350063,right,both,ambiguous-switch,103,0,right,right,0.093
MSB1996WRNO,2019-10-04-14-21-29,6,57,0.5146559557296022,right,probe,ambiguous-switch,-1,5,right,right,2.005
MSB1996WRNO,2019-10-04-14-21-29,6,58,0.5101715689401847,right,both,ambiguous-switch,110,5,right,right,0.158
MSB1996WRNO,2019-10-04-14-21-29,6,59,0.66633344186615,right,probe,ambiguous-switch,-1,-30,right,right,0.195
MSB1996WRNO,2019-10-04-14-21-29,6,60,0.5418097019708217,right,both,ambiguous-switch,101,-30,right,right,1.969
MSB1996WRNO,2019-10-04-14-21-29,6,61,0.5061829190998329,right,probe,biased-switch,-1,-30,right,right,0.176
MSB1996WRNO,2019-10-04-14-21-29,6,62,0.5660031099863498,right,both,biased-switch,106,-30,right,right,0.214
MSB1996WRNO,2019-10-04-14-21-29,6,63,0.5519062428833182,left,probe,biased-switch,-1,-5,left,left,0.152
MSB1996WRNO,2019-10-04-14-21-29,6,64,0.6314820457133661,left,both,biased-switch,106,-5,left,left,0.162
MSB1996WRNO,2019-10-04-14-21-29,6,65,0.6697737503227182,right,probe,biased-switch,-1,-10,right,right,0.178
MSB1996WRNO,2019-10-04-14-21-29,6,66,0.6354756061377665,right,both,biased-switch,95,-10,right,right,0.151
MSB1996WRNO,2019-10-04-14-21-29,6,67,0.5891681646342531,right,probe,biased-switch,-1,0,right,right,0.084
MSB1996WRNO,2019-10-04-14-21-29,6,68,0.6410552252528756,right,both,biased-switch,104,0,right,right,0.18
MSB1996WRNO,2019-10-04-14-21-29,6,69,0.5712606450049821,left,probe,biased-switch,-1,20,left,left,0.016
MSB1996WRNO,2019-10-04-14-21-29,6,70,0.5834136066507253,left,both,biased-switch,107,20,left,left,0.113
MSB1996WRNO,2019-10-04-14-21-29,6,71,0.6806860978753484,left,probe,biased-switch,-1,5,left,left,0.045
MSB1996WRNO,2019-10-04-14-21-29,6,72,0.6815597797038877,left,both,biased-switch,93,5,left,left,0.157
MSB1996WRNO,2019-10-04-14-21-29,6,73,0.5323146854720462,left,probe,ambiguous-switch,-1,-10,left,left,1.131
MSB1996WRNO,2019-10-04-14-21-29,6,74,0.6247825379413915,left,both,ambiguous-switch,98,-10,left,left,0.13
MSB1996WRNO,2019-10-04-14-21-29,6,75,0.5140935582003612,left,probe,ambiguous-switch,-1,-5,left,left,0.143
MSB1996WRNO,2019-10-04-14-21-29,6,76,0.6691560276785804,left,both,ambiguous-switch,95,-5,left,left,0.133
MSB1996WRNO,2019-10-04-14-21-29,6,77,0.5562627425017167,right,probe,ambiguous-switch,-1,30,right,right,0.138
MSB1996WRNO,2019-10-04-14-21-29,6,78,0.6334920457035893,right,both,ambiguous-switch,96,30,right,right,0.103
MSB1996WRNO,2019-10-04-14-21-29,6,79,0.6468195159359764,right,probe,ambiguous-switch,-1,-20,right,right,0.184
MSB1996WRNO,2019-10-04-14-21-29,6,80,0.50709897488809,right,both,ambiguous-switch,108,-20,right,left,0.126
MSB1996WRNO,2019-10-04-14-21-29,7,1,0.5756921576085439,left,probe,ambiguous-switch,-1,-5,left,left,0.133
MSB1996WRNO,2019-10-04-14-21-29,7,2,0.5065611514898704,left,both,ambiguous-switch,105,-5,left,left,1.235
MSB1996WRNO,2019-10-04-14-21-29,7,3,0.5277572694189371,right,probe,ambiguous-switch,-1,40,right,right,0.217
MSB1996WRNO,2019-10-04-14-21-29,7,4,0.672902816219728,right,both,ambiguous-switch,100,40,right,right,0.463
MSB1996WRNO,2019-10-04-14-21-29,7,5,0.6874928357629715,left,probe,ambiguous-switch,-1,20,left,left,0.078
MSB1996WRNO,2019-10-04-14-21-29,7,6,0.6528359282245295,left,both,ambiguous-switch,94,20,left,left,0.037
MSB1996WRNO,2019-10-04-14-21-29,7,7,0.6814110447846149,right,probe,biased-switch,-1,30,right,right,0.167
MSB1996WRNO,2019-10-04-14-21-29,7,8,0.5943313378519915,right,both,biased-switch,94,30,right,right,0.113
MSB1996WRNO,2019-10-04-14-21-29,7,9,0.5456219847347801,left,probe,ambiguous-switch,-1,-10,left,left,0.002
MSB1996WRNO,2019-10-04-14-21-29,7,10,0.5675892443838487,left,both,ambiguous-switch,91,-10,left,left,0.152
MSB1996WRNO,2019-10-04-14-21-29,7,11,0.5715325516652383,right,probe,biased-switch,-1,0,right,right,0.177
MSB1996WRNO,2019-10-04-14-21-29,7,12,0.6699771046630043,right,both,biased-switch,104,0,right,right,0.176
MSB1996WRNO,2019-10-04-14-21-29,7,13,0.6289101458744992,right,probe,biased-switch,-1,-10,right,right,0.15
MSB1996WRNO,2019-10-04-14-21-29,7,14,0.6539016600021547,right,both,biased-switch,101,-10,right,left,0.302
MSB1996WRNO,2019-10-04-14-21-29,7,15,0.5471347805723431,right,probe,biased-switch,-1,40,right,right,0.125
MSB1996WRNO,2019-10-04-14-21-29,7,16,0.6947794213034476,right,both,biased-switch,97,40,right,right,0.221
MSB1996WRNO,2019-10-04-14-21-29,7,17,0.6069858692161728,left,probe,ambiguous-switch,-1,30,left,left,0.115
MSB1996WRNO,2019-10-04-14-21-29,7,18,0.6536366024849015,left,both,ambiguous-switch,103,30,left,left,0.135
MSB1996WRNO,2019-10-04-14-21-29,7,19,0.6275221194162499,left,probe,biased-switch,-1,5,left,left,0.123
MSB1996WRNO,2019-10-04-14-21-29,7,20,0.5256306701260923,left,both,biased-switch,90,5,left,right,0.077
MSB1996WRNO,2019-10-04-14-21-29,7,21,0.572798653825344,right,probe,biased-switch,-1,20,right,right,0.165
MSB1996WRNO,2019-10-04-14-21-29,7,22,0.5564364911615103,right,both,biased-switch,108,20,right,right,0.124
MSB1996WRNO,2019-10-04-14-21-29,7,23,0.5953784073525978,right,probe,biased-switch,-1,-20,left,left,0.098
MSB1996WRNO,2019-10-04-14-21-29,7,24,0.6819770964603203,right,both,biased-switch,100,-20,left,left,0.139
MSB1996WRNO,2019-10-04-14-21-29,7,25,0.6139850364552142,right,probe,ambiguous-switch,-1,10,right,right,0.154
MSB1996WRNO,2019-10-04-14-21-29,7,26,0.689835083411232,right,both,ambiguous-switch,94,10,right,left,2.979
MSB1996WRNO,2019-10-04-14-21-29,7,27,0.5436820747631245,left,probe,ambiguous-switch,-1,-20,left,left,0.05
MSB1996WRNO,2019-10-04-14-21-29,7,28,0.5133527031742593,left,both,ambiguous-switch,98,-20,left,left,0.115
MSB1996WRNO,2019-10-04-14-21-29,7,29,0.6550113387050139,right,probe,biased-switch,-1,10,right,right,0.177
MSB1996WRNO,2019-10-04-14-21-29,7,30,0.6773835308269134,right,both,biased-switch,92,10,right,right,0.134
MSB1996WRNO,2019-10-04-14-21-29,7,31,0.5875599499764198,right,probe,biased-switch,-1,-5,right,right,0.1
MSB1996WRNO,2019-10-04-14-21-29,7,32,0.6748560254417706,right,both,biased-switch,97,-5,right,right,0.175
MSB1996WRNO,2019-10-04-14-21-29,7,33,0.5442413946048305,right,probe,biased-switch,-1,-30,right,right,0.143
MSB1996WRNO,2019-10-04-14-21-29,7,34,0.611740329069308,right,both,biased-switch,105,-30,right,right,0.174
MSB1996WRNO,2019-10-04-14-21-29,7,35,0.6586914631237577,left,probe,ambiguous-switch,-1,5,left,left,0.101
MSB1996WRNO,2019-10-04-14-21-29,7,36,0.6530104990048007,left,both,ambiguous-switch,104,5,left,left,0.14
MSB1996WRNO,2019-10-04-14-21-29,7,37,0.5164804248098998,right,probe,ambiguous-switch,-1,-30,right,right,0.235
MSB1996WRNO,2019-10-04-14-21-29,7,38,0.6887433758731143,right,both,ambiguous-switch,96,-30,right,right,4.007
MSB1996WRNO,2019-10-04-14-21-29,7,39,0.6058146685974716,right,probe,ambiguous-switch,-1,0,right,right,0.316
MSB1996WRNO,2019-10-04-14-21-29,7,40,0.6373293093122068,right,both,ambiguous-switch,107,0,right,right,3.174
MSB1996WRNO,2019-10-04-14-21-29,7,41,0.6237887132841361,left,probe,ambiguous-switch,-1,-5,left,left,0.189
MSB1996WRNO,2019-10-04-14-21-29,7,42,0.6951552743537825,left,both,ambiguous-switch,99,-5,left,left,0.13
MSB1996WRNO,2019-10-04-14-21-29,7,43,0.663504536190389,right,probe,ambiguous-switch,-1,40,right,right,0.2
MSB1996WRNO,2019-10-04-14-21-29,7,44,0.5828724435177202,right,both,ambiguous-switch,107,40,right,right,0.102
MSB1996WRNO,2019-10-04-14-21-29,7,45,0.5001519448244074,left,probe,ambiguous-switch,-1,20,left,left,0.187
MSB1996WRNO,2019-10-04-14-21-29,7,46,0.5056249763699471,left,both,ambiguous-switch,92,20,left,left,0.086
MSB1996WRNO,2019-10-04-14-21-29,7,47,0.5400674689599845,right,probe,biased-switch,-1,30,right,right,0.15
MSB1996WRNO,2019-10-04-14-21-29,7,48,0.6387112881694286,right,both,biased-switch,109,30,right,right,1.275
MSB1996WRNO,2019-10-04-14-21-29,7,49,0.6636359635149933,right,probe,ambiguous-switch,-1,-10,right,right,0.16
MSB1996WRNO,2019-10-04-14-21-29,7,50,0.6081507344305876,right,both,ambiguous-switch,97,-10,right,right,0.137
MSB1996WRNO,2019-10-04-14-21-29,7,51,0.5480068947552056,right,probe,biased-switch,-1,0,left,left,0.178
MSB1996WRNO,2019-10-04-14-21-29,7,52,0.5796790317548725,right,both,biased-switch,109,0,left,right,0.03
MSB1996WRNO,2019-10-04-14-21-29,7,53,0.5299148302429794,left,probe,biased-switch,-1,-10,left,left,0.175
MSB1996WRNO,2019-10-04-14-21-29,7,54,0.536418928499534,left,both,biased-switch,100,-10,left,left,0.047
MSB1996WRNO,2019-10-04-14-21-29,7,55,0.5813794880848739,right,probe,biased-switch,-1,40,right,right,0.13
MSB1996WRNO,2019-10-04-14-21-29,7,56,0.6637883162703648,right,both,biased-switch,94,40,right,right,0.12
MSB1996WRNO,2019-10-04-14-21-29,7,57,0.5536381389336373,right,probe,ambiguous-switch,-1,30,right,right,0.186
MSB1996WRNO,2019-10-04-14-21-29,7,58,0.6168821464059244,right,both,ambiguous-switch,98,30,right,left,0.148
MSB1996WRNO,2019-10-04-14-21-29,7,59,0.5217541279115097,left,probe,biased-switch,-1,5,left,left,0.145
MSB1996WRNO,2019-10-04-14-21-29,7,60,0.6485364343205179,left,both,biased-switch,106,5,left,right,1.446
MSB1996WRNO,2019-10-04-14-21-29,7,61,0.6551628437146299,left,probe,biased-switch,-1,20,left,left,0.201
MSB1996WRNO,2019-10-04-14-21-29,7,62,0.5235045410396176,left,both,biased-switch,106,20,left,left,0.171
MSB1996WRNO,2019-10-04-14-21-29,7,63,0.5583686189085548,left,probe,biased-switch,-1,-20,left,left,0.134
MSB1996WRNO,2019-10-04-14-21-29,7,64,0.5110627235811035,left,both,biased-switch,99,-20,left,left,0.061
MSB1996WRNO,2019-10-04-14-21-29,7,65,0.6030541185595452,left,probe,ambiguous-switch,-1,10,left,left,1.037
MSB1996WRNO,2019-10-04-14-21-29,7,66,0.6106793450327913,left,both,ambiguous-switch,102,10,left,left,0.164
MSB1996WRNO,2019-10-04-14-21-29,7,67,0.6634636303230914,left,probe,ambiguous-switch,-1,-20,left,left,0.018
MSB1996WRNO,2019-10-04-14-21-29,7,68,0.5463571819747244,left,both,ambiguous-switch,108,-20,left,left,0.178
MSB1996WRNO,2019-10-04-14-21-29,7,69,0.5988091174976271,right,probe,biased-switch,-1,10,right,right,0.142
MSB1996WRNO,2019-10-04-14-21-29,7,70,0.6862483687625802,right,both,biased-switch,104,10,right,right,0.146
MSB1996WRNO,2019-10-04-14-21-29,7,71,0.6462507485718595,right,probe,biased-switch,-1,-5,right,right,0.23
MSB1996WRNO,2019-10-04-14-21-29,7,72,0.6083897619105434,right,both,biased-switch,97,-5,right,right,0.255
MSB1996WRNO,2019-10-04-14-21-29,7,73,0.6664902505849973,left,probe,biased-switch,-1,-30,left,left,0.146
MSB1996WRNO,2019-10-04-14-21-29,7,74,0.5780382957689545,left,both,biased-switch,95,-30,left,left,1.355
MSB1996WRNO,2019-10-04-14-21-29,7,75,0.6850437691227773,right,probe,ambiguous-switch,-1,5,right,right,0.172
MSB1996WRNO,2019-10-04-14-21-29,7,76,0.6353754787873681,right,both,ambiguous-switch,91,5,right,right,0.118
MSB1996WRNO,2019-10-04-14-21-29,7,77,0.6460882204670192,left,probe,ambiguous-switch,-1,-30,left,left,0.183
MSB1996WRNO,2019-10-04-14-21-29,7,78,0.5414783847878623,left,both,ambiguous-switch,93,-30,left,right,0.151
MSB1996WRNO,2019-10-04-14-21-29,7,79,0.5096646257434573,left,probe,ambiguous-switch,-1,0,left,left,0.177
MSB1996WRNO,2019-10-04-14-21-29,7,80,0.6284209789245621,left,both,ambiguous-switch,99,0,left,left,0.16
MSB1996WRNO,2019-10-04-14-21-29,8,1,0.6653771078814686,right,probe,biased-switch,-1,-20,right,right,0.193
MSB1996WRNO,2019-10-04-14-21-29,8,2,0.5712862938947845,right,both,biased-switch,99,-20,right,right,0.182
MSB1996WRNO,2019-10-04-14-21-29,8,3,0.6047872362298269,left,probe,biased-switch,-1,40,left,left,0.073
MSB1996WRNO,2019-10-04-14-21-29,8,4,0.5479691677219108,left,both,biased-switch,101,40,left,left,0.137
MSB1996WRNO,2019-10-04-14-21-29,8,5,0.6202088254025518,left,probe,biased-switch,-1,20,left,left,1.881
MSB1996WRNO,2019-10-04-14-21-29,8,6,0.6804304156941168,left,both,biased-switch,91,20,left,left,2.98
MSB1996WRNO,2019-10-04-14-21-29,8,7,0.5309035065548162,left,probe,ambiguous-switch,-1,0,left,left,0.154
MSB1996WRNO,2019-10-04-14-21-29,8,8,0.6911151754345377,left,both,ambiguous-switch,98,0,left,left,0.07
MSB1996WRNO,2019-10-04-14-21-29,8,9,0.6067523304302106,left,probe,ambiguous-switch,-1,20,left,left,0.125
MSB1996WRNO,2019-10-04-14-21-29,8,10,0.6428284789791774,left,both,ambiguous-switch,105,20,left,left,0.161
MSB1996WRNO,2019-10-04-14-21-29,8,11,0.675301252717544,right,probe,ambiguous-switch,-1,-10,right,right,0.169
MSB1996WRNO,2019-10-04-14-21-29,8,12,0.5037628227570726,right,both,ambiguous-switch,103,-10,right,right,0.146
MSB1996WRNO,2019-10-04-14-21-29,8,13,0.6266787186010653,left,probe,ambiguous-switch,-1,10,left,left,0.164
MSB1996WRNO,2019-10-04-14-21-29,8,14,0.6830160807041542,left,both,ambiguous-switch,104,10,left,left,0.125
MSB1996WRNO,2019-10-04-14-21-29,8,15,0.5185532816444394,left,probe,biased-switch,-1,-10,left,left,0.159
MSB1996WRNO,2019-10-04-14-21-29,8,16,0.5123651897763543,left,both,biased-switch,109,-10,left,left,0.168
MSB1996WRNO,2019-10-04-14-21-29,8,17,0.5182489740863785,right,probe,biased-switch,-1,10,right,right,0.087
MSB1996WRNO,2019-10-04-14-21-29,8,18,0.6825889244481358,right,both,biased-switch,95,10,right,right,0.158
MSB1996WRNO,2019-10-04-14-21-29,8,19,0.6217146948572321,right,probe,ambiguous-switch,-1,30,right,right,0.177
MSB1996WRNO,2019-10-04-14-21-29,8,20,0.5353261514425737,right,both,ambiguous-switch,103,30,right,right,0.2
MSB1996WRNO,2019-10-04-14-21-29,8,21,0.5301963591028713,right,probe,biased-switch,-1,5,right,right,0.233
MSB1996WRNO,2019-10-04-14-21-29,8,22,0.6075339631172405,right,both,biased-switch,106,5,right,right,0.132
MSB1996WRNO,2019-10-04-14-21-29,8,23,0.5857462156057077,left,probe,ambiguous-switch,-1,-5,left,left,0.002
MSB1996WRNO,2019-10-04-14-21-29,8,24,0.5348759248816436,left,both,ambiguous-switch,104,-5,left,left,0.094
MSB1996WRNO,2019-10-04-14-21-29,8,25,0.5216572330896749,right,probe,biased-switch,-1,0,right,right,0.157
MSB1996WRNO,2019-10-04-14-21-29,8,26,0.6703849373740318,right,both,biased-switch,98,0,right,right,0.035
MSB1996WRNO,2019-10-04-14-21-29,8,27,0.6829010141703014,left,probe,biased-switch,-1,30,left,left,0.109
MSB1996WRNO,2019-10-04-14-21-29,8,28,0.5525886325097848,left,both,biased-switch,107,30,left,left,0.048
MSB1996WRNO,2019-10-04-14-21-29,8,29,0.6475030504476343,left,probe,ambiguous-switch,-1,5,left,left,0.165
MSB1996WRNO,2019-10-04-14-21-29,8,30,0.5003135513558576,left,both,ambiguous-switch,98,5,left,left,0.191
MSB1996WRNO,2019-10-04-14-21-29,8,31,0.6603903620591405,left,probe,ambiguous-switch,-1,-20,left,left,0.132
MSB1996WRNO,2019-10-04-14-21-29,8,32,0.6492484833226304,left,both,ambiguous-switch,98,-20,left,left,2.658
MSB1996WRNO,2019-10-04-14-21-29,8,33,0.5108205907704495,left,probe,ambiguous-switch,-1,40,left,left,0.129
MSB1996WRNO,2019-10-04-14-21-29,8,34,0.6880458322435327,left,both,ambiguous-switch,95,40,left,left,3.312
MSB1996WRNO,2019-10-04-14-21-29,8,35,0.6488462116253619,left,probe,biased-switch,-1,-5,left,left,0.129
MSB1996WRNO,2019-10-04-14-21-29,8,36,0.5580698788362702,left,both,biased-switch,100,-5,left,left,0.184
MSB1996WRNO,2019-10-04-14-21-29,8,37,0.529332803167788,right,probe,biased-switch,-1,-30,right,right,0.139
MSB1996WRNO,2019-10-04-14-21-29,8,38,0.6717478106119587,right,both,biased-switch,92,-30,right,right,0.022
MSB1996WRNO,2019-10-04-14-21-29,8,39,0.6043293617837551,right,probe,ambiguous-switch,-1,-30,right,right,0.14
MSB1996WRNO,2019-10-04-14-21-29,8,40,0.6467288370950792,right,both,ambiguous-switch,103,-30,right,right,0.106
MSB1996WRNO,2019-10-04-14-21-29,8,41,0.640012825324091,left,probe,biased-switch,-1,-20,left,left,0.06
MSB1996WRNO,2019-10-04-14-21-29,8,42,0.6908791882067276,left,both,biased-switch,109,-20,left,left,0.105
MSB1996WRNO,2019-10-04-14-21-29,8,43,0.6210034103826448,left,probe,biased-switch,-1,40,left,left,0.204
MSB1996WRNO,2019-10-04-14-21-29,8,44,0.5284479314714292,left,both,biased-switch,93,40,left,left,0.134
MSB1996WRNO,2019-10-04-14-21-29,8,45,0.6653138600975261,right,probe,biased-switch,-1,20,right,right,0.152
MSB1996WRNO,2019-10-04-14-21-29,8,46,0.5191988400970367,right,both,biased-switch,107,20,right,right,0.145
MSB1996WRNO,2019-10-04-14-21-29,8,47,0.6557691937762482,right,probe,ambiguous-switch,-1,0,right,right,0.174
MSB1996WRNO,2019-10-04-14-21-29,8,48,0.6193486422525079,right,both,ambiguous-switch,94,0,right,right,0.17
MSB1996WRNO,2019-10-04-14-21-29,8,49,0.6436894511859088,right,probe,ambiguous-switch,-1,20,right,right,0.169
MSB1996WRNO,2019-10-04-14-21-29,8,50,0.6261553267504841,right,both,ambiguous-switch,95,20,right,right,0.033
MSB1996WRNO,2019-10-04-14-21-29,8,51,0.6446098459993095,left,probe,ambiguous-switch,-1,-10,right,right,0.125
MSB1996WRNO,2019-10-04-14-21-29,8,52,0.6991014109428937,left,both,ambiguous-switch,107,-10,right,right,0.14
MSB1996WRNO,2019-10-04-14-21-29,8,53,0.6549888937045322,left,probe,ambiguous-switch,-1,10,right,right,0.013
MSB1996WRNO,2019-10-04-14-21-29,8,54,0.6059882402136522,left,both,ambiguous-switch,102,10,right,left,0.146
MSB1996WRNO,2019-10-04-14-21-29,8,55,0.6906183210560609,right,probe,biased-switch,-1,-10,right,right,0.923
MSB1996WRNO,2019-10-04-14-21-29,8,56,0.6253726196238465,right,both,biased-switch,103,-10,right,right,0.169
MSB1996WRNO,2019-10-04-14-21-29,8,57,0.5504621785789657,left,probe,biased-switch,-1,10,left,left,0.051
MSB1996WRNO,2019-10-04-14-21-29,8,58,0.5941635587964791,left,both,biased-switch,110,10,left,right,0.022
MSB1996WRNO,2019-10-04-14-21-29,8,59,0.6561273269055349,left,probe,ambiguous-switch,-1,30,left,left,0.179
MSB1996WRNO,2019-10-04-14-21-29,8,60,0.6239858800005389,left,both,ambiguous-switch,97,30,left,left,0.143
MSB1996WRNO,2019-10-04-14-21-29,8,61,0.5335441014626137,left,probe,biased-switch,-1,5,left,left,0.177
MSB1996WRNO,2019-10-04-14-21-29,8,62,0.510896160950025,left,both,biased-switch,104,5,left,right,0.066
MSB1996WRNO,2019-10-04-14-21-29,8,63,0.5541849694846952,left,probe,ambiguous-switch,-1,-5,left,left,0.17
MSB1996WRNO,2019-10-04-14-21-29,8,64,0.5417463826032275,left,both,ambiguous-switch,109,-5,left,left,0.049
MSB1996WRNO,2019-10-04-14-21-29,8,65,0.5276187150656269,left,probe,biased-switch,-1,0,left,left,0.182
MSB1996WRNO,2019-10-04-14-21-29,8,66,0.6621056827458089,left,both,biased-switch,104,0,left,left,0.078
MSB1996WRNO,2019-10-04-14-21-29,8,67,0.6692262275545369,left,probe,biased-switch,-1,30,left,left,0.16
MSB1996WRNO,2019-10-04-14-21-29,8,68,0.600714608199382,left,both,biased-switch,100,30,left,left,0.148
MSB1996WRNO,2019-10-04-14-21-29,8,69,0.564222566287821,right,probe,ambiguous-switch,-1,5,right,right,0.114
MSB1996WRNO,2019-10-04-14-21-29,8,70,0.6521800521575739,right,both,ambiguous-switch,95,5,right,right,0.142
MSB1996WRNO,2019-10-04-14-21-29,8,71,0.5336357189594801,right,probe,ambiguous-switch,-1,-20,left,left,0.153
MSB1996WRNO,2019-10-04-14-21-29,8,72,0.5057021554933582,right,both,ambiguous-switch,92,-20,left,right,0.032
MSB1996WRNO,2019-10-04-14-21-29,8,73,0.6923998649319023,right,probe,ambiguous-switch,-1,40,right,right,0.087
MSB1996WRNO,2019-10-04-14-21-29,8,74,0.6248440504595157,right,both,ambiguous-switch,108,40,right,right,1.335
MSB1996WRNO,2019-10-04-14-21-29,8,75,0.5664257485158717,right,probe,biased-switch,-1,-5,right,right,0.187
MSB1996WRNO,2019-10-04-14-21-29,8,76,0.5361582475247161,right,both,biased-switch,92,-5,right,right,0.176
MSB1996WRNO,2019-10-04-14-21-29,8,77,0.5264652904836262,right,probe,biased-switch,-1,-30,right,right,0.255
MSB1996WRNO,2019-10-04-14-21-29,8,78,0.6831155245560545,right,both,biased-switch,99,-30,right,right,0.176
MSB1996WRNO,2019-10-04-14-21-29,8,79,0.5149988188485859,right,probe,ambiguous-switch,-1,-30,right,right,0.14
MSB1996WRNO,2019-10-04-14-21-29,8,80,0.5145856226118979,right,both,ambiguous-switch,100,-30,right,right,0.0
MSB1996WRNO,2019-10-04-14-21-29,9,1,0.5994810078914525,right,probe,biased-switch,-1,-10,left,left,0.246
MSB1996WRNO,2019-10-04-14-21-29,9,2,0.6847322712067577,right,both,biased-switch,95,-10,left,right,0.084
MSB1996WRNO,2019-10-04-14-21-29,9,3,0.6902535554150029,left,probe,biased-switch,-1,-5,left,left,0.034
MSB1996WRNO,2019-10-04-14-21-29,9,4,0.6133842770209296,left,both,biased-switch,101,-5,left,left,0.105
MSB1996WRNO,2019-10-04-14-21-29,9,5,0.6349828170652476,right,probe,biased-switch,-1,-20,right,right,0.121
MSB1996WRNO,2019-10-04-14-21-29,9,6,0.6991506390671698,right,both,biased-switch,97,-20,right,right,0.089
MSB1996WRNO,2019-10-04-14-21-29,9,7,0.5803926836248957,right,probe,biased-switch,-1,10,right,right,0.143
MSB1996WRNO,2019-10-04-14-21-29,9,8,0.5217448856653921,right,both,biased-switch,97,10,right,right,0.0
MSB1996WRNO,2019-10-04-14-21-29,9,9,0.577527375148625,right,probe,ambiguous-switch,-1,-30,right,right,0.121
MSB1996WRNO,2019-10-04-14-21-29,9,10,0.5300538109364659,right,both,ambiguous-switch,98,-30,right,right,0.143
MSB1996WRNO,2019-10-04-14-21-29,9,11,0.5642365462982887,right,probe,biased-switch,-1,-30,left,left,0.151
MSB1996WRNO,2019-10-04-14-21-29,9,12,0.5549861877948957,right,both,biased-switch,107,-30,left,right,0.104
MSB1996WRNO,2019-10-04-14-21-29,9,13,0.5045835153852655,right,probe,biased-switch,-1,40,right,right,0.159
MSB1996WRNO,2019-10-04-14-21-29,9,14,0.5178039961665791,right,both,biased-switch,97,40,right,right,0.236
MSB1996WRNO,2019-10-04-14-21-29,9,15,0.6430297334010008,right,probe,ambiguous-switch,-1,-10,right,right,0.151
MSB1996WRNO,2019-10-04-14-21-29,9,16,0.6633592250653719,right,both,ambiguous-switch,103,-10,right,right,0.127
MSB1996WRNO,2019-10-04-14-21-29,9,17,0.512895559498084,right,probe,ambiguous-switch,-1,20,right,right,0.183
MSB1996WRNO,2019-10-04-14-21-29,9,18,0.5620134991819767,right,both,ambiguous-switch,102,20,right,right,0.324
MSB1996WRNO,2019-10-04-14-21-29,9,19,0.5107751366793732,left,probe,ambiguous-switch,-1,10,right,right,6.118
MSB1996WRNO,2019-10-04-14-21-29,9,20,0.6563944711351282,left,both,ambiguous-switch,102,10,right,left,0.163
MSB1996WRNO,2019-10-04-14-21-29,9,21,0.6356576630352202,left,probe,biased-switch,-1,20,left,left,0.21
MSB1996WRNO,2019-10-04-14-21-29,9,22,0.5001769717369442,left,both,biased-switch,100,20,left,left,2.318
MSB1996WRNO,2019-10-04-14-21-29,9,23,0.504201764039205,left,probe,ambiguous-switch,-1,0,left,left,0.178
MSB1996WRNO,2019-10-04-14-21-29,9,24,0.5689990708235982,left,both,ambiguous-switch,94,0,left,left,2.812
MSB1996WRNO,2019-10-04-14-21-29,9,25,0.6916752146570391,right,probe,biased-switch,-1,0,right,right,0.16
MSB1996WRNO,2019-10-04-14-21-29,9,26,0.5338103650932049,right,both,biased-switch,98,0,right,right,0.087
MSB1996WRNO,2019-10-04-14-21-29,9,27,0.5038908581595362,right,probe,ambiguous-switch,-1,30,left,left,0.141
MSB1996WRNO,2019-10-04-14-21-29,9,28,0.5747695246435375,right,both,ambiguous-switch,102,30,left,right,0.129
MSB1996WRNO,2019-10-04-14-21-29,9,29,0.6596939841826154,right,probe,ambiguous-switch,-1,-5,right,right,0.177
MSB1996WRNO,2019-10-04-14-21-29,9,30,0.6424079521405072,right,both,ambiguous-switch,108,-5,right,right,0.103
MSB1996WRNO,2019-10-04-14-21-29,9,31,0.6281489654793708,right,probe,biased-switch,-1,30,right,right,0.092
MSB1996WRNO,2019-10-04-14-21-29,9,32,0.6914674107320673,right,both,biased-switch,98,30,right,right,0.082
MSB1996WRNO,2019-10-04-14-21-29,9,33,0.6906656101828331,left,probe,ambiguous-switch,-1,-20,left,left,0.03
MSB1996WRNO,2019-10-04-14-21-29,9,34,0.5644867932226907,left,both,ambiguous-switch,107,-20,left,left,0.137
MSB1996WRNO,2019-10-04-14-21-29,9,35,0.5512514586176831,left,probe,biased-switch,-1,5,left,left,0.163
MSB1996WRNO,2019-10-04-14-21-29,9,36,0.6271563685970205,left,both,biased-switch,102,5,left,left,0.207
MSB1996WRNO,2019-10-04-14-21-29,9,37,0.6477705717544281,right,probe,ambiguous-switch,-1,40,right,right,0.183
MSB1996WRNO,2019-10-04-14-21-29,9,38,0.6178437201171482,right,both,ambiguous-switch,100,40,right,right,0.161
MSB1996WRNO,2019-10-04-14-21-29,9,39,0.6891618906345238,left,probe,ambiguous-switch,-1,5,left,left,0.121
MSB1996WRNO,2019-10-04-14-21-29,9,40,0.5116756699495973,left,both,ambiguous-switch,101,5,left,right,2.019
MSB1996WRNO,2019-10-04-14-21-29,9,41,0.6306537711656979,left,probe,biased-switch,-1,-10,left,left,0.69
MSB1996WRNO,2019-10-04-14-21-29,9,42,0.6698194849316934,left,both,biased-switch,100,-10,left,left,0.169
MSB1996WRNO,2019-10-04-14-21-29,9,43,0.5601180371473758,left,probe,biased-switch,-1,-5,left,left,0.102
MSB1996WRNO,2019-10-04-14-21-29,9,44,0.6589896728022653,left,both,biased-switch,103,-5,left,left,0.045
MSB1996WRNO,2019-10-04-14-21-29,9,45,0.5497046149824965,left,probe,biased-switch,-1,-20,left,left,0.043
MSB1996WRNO,2019-10-04-14-21-29,9,46,0.6801415966715338,left,both,biased-switch,102,-20,left,left,0.123
MSB1996WRNO,2019-10-04-14-21-29,9,47,0.5217930518234045,right,probe,biased-switch,-1,10,right,right,0.136
MSB1996WRNO,2019-10-04-14-21-29,9,48,0.5279104552733711,right,both,biased-switch,108,10,right,right,0.202
MSB1996WRNO,2019-10-04-14-21-29,9,49,0.6153564398752362,left,probe,ambiguous-switch,-1,-30,left,left,0.307
MSB1996WRNO,2019-10-04-14-21-29,9,50,0.542229783835479,left,both,ambiguous-switch,106,-30,left,left,0.096
MSB1996WRNO,2019-10-04-14-21-29,9,51,0.5752066054944809,left,probe,biased-switch,-1,-30,left,left,0.131
MSB1996WRNO,2019-10-04-14-21-29,9,52,0.6974009314027889,left,both,biased-switch,95,-30,left,left,2.609
MSB1996WRNO,2019-10-04-14-21-29,9,53,0.6386081869215556,right,probe,biased-switch,-1,40,right,right,0.176
MSB1996WRNO,2019-10-04-14-21-29,9,54,0.6239512602199903,right,both,biased-switch,100,40,right,right,0.183
MSB1996WRNO,2019-10-04-14-21-29,9,55,0.6126809240919441,right,probe,ambiguous-switch,-1,-10,right,right,0.158
MSB1996WRNO,2019-10-04-14-21-29,9,56,0.6050144236624228,right,both,ambiguous-switch,96,-10,right,right,0.078
MSB1996WRNO,2019-10-04-14-21-29,9,57,0.6466583377577881,right,probe,ambiguous-switch,-1,20,right,right,0.15
MSB1996WRNO,2019-10-04-14-21-29,9,58,0.65752970486813,right,both,ambiguous-switch,94,20,right,right,0.107
MSB1996WRNO,2019-10-04-14-21-29,9,59,0.691655136414876,right,probe,ambiguous-switch,-1,10,right,right,0.187
MSB1996WRNO,2019-10-04-14-21-29,9,60,0.5276643650329156,right,both,ambiguous-switch,109,10,right,right,0.114
MSB1996WRNO,2019-10-04-14-21-29,9,61,0.6791877310092814,right,probe,biased-switch,-1,20,right,right,0.092
MSB1996WRNO,2019-10-04-14-21-29,9,62,0.5844120136650924,right,both,biased-switch,91,20,right,right,0.063
MSB1996WRNO,2019-10-04-14-21-29,9,63,0.6325331609229623,right,probe,ambiguous-switch,-1,0,right,right,0.175
MSB1996WRNO,2019-10-04-14-21-29,9,64,0.5464655338333742,right,both,ambiguous-switch,92,0,right,right,0.11
MSB1996WRNO,2019-10-04-14-21-29,9,65,0.6119201902722778,left,probe,biased-switch,-1,0,left,left,0.055
MSB1996WRNO,2019-10-04-14-21-29,9,66,0.5728610755788487,left,both,biased-switch,99,0,left,left,0.08
MSB1996WRNO,2019-10-04-14-21-29,9,67,0.6157943137720935,left,probe,ambiguous-switch,-1,30,left,left,0.172
MSB1996WRNO,2019-10-04-14-21-29,9,68,0.5608330159213816,left,both,ambiguous-switch,99,30,left,left,3.151
MSB1996WRNO,2019-10-04-14-21-29,9,69,0.6719316045046038,left,probe,ambiguous-switch,-1,-5,left,left,0.15
MSB1996WRNO,2019-10-04-14-21-29,9,70,0.5517803856955125,left,both,ambiguous-switch,106,-5,left,left,0.059
MSB1996WRNO,2019-10-04-14-21-29,9,71,0.6248226495741237,left,probe,biased-switch,-1,30,left,left,0.149
MSB1996WRNO,2019-10-04-14-21-29,9,72,0.5330847022332089,left,both,biased-switch,92,30,left,left,1.389
MSB1996WRNO,2019-10-04-14-21-29,9,73,0.6635274463283641,right,probe,ambiguous-switch,-1,-20,right,right,0.242
MSB1996WRNO,2019-10-04-14-21-29,9,74,0.6299720386413061,right,both,ambiguous-switch,105,-20,right,right,0.171
MSB1996WRNO,2019-10-04-14-21-29,9,75,0.6568302179516277,right,probe,biased-switch,-1,5,right,right,0.156
MSB1996WRNO,2019-10-04-14-21-29,9,76,0.6051340399983473,right,both,biased-switch,98,5,right,right,0.0
MSB1996WRNO,2019-10-04-14-21-29,9,77,0.5513170532159175,right,probe,ambiguous-switch,-1,40,left,left,0.984
MSB1996WRNO,2019-10-04-14-21-29,9,78,0.5522672882937681,right,both,ambiguous-switch,95,40,left,right,0.234
MSB1996WRNO,2019-10-04-14-21-29,9,79,0.55727834559905,right,probe,ambiguous-switch,-1,5,right,right,0.161
MSB1996WRNO,2019-10-04-14-21-29,9,80,0.539318296685449,right,both,ambiguous-switch,95,5,right,left,0.157
MSB1996WRNO,2019-10-04-14-21-29,10,1,0.6735628438284341,right,probe,ambiguous-switch,-1,-20,left,left,0.257
MSB1996WRNO,2019-10-04-14-21-29,10,2,0.6344004768224658,right,both,ambiguous-switch,98,-20,left,right,0.118
MSB1996WRNO,2019-10-04-14-21-29,10,3,0.6824041678534061,left,probe,biased-switch,-1,40,left,left,0.162
MSB1996WRNO,2019-10-04-14-21-29,10,4,0.6510417796574388,left,both,biased-switch,108,40,left,left,0.073
MSB1996WRNO,2019-10-04-14-21-29,10,5,0.5799666486441774,right,probe,biased-switch,-1,-30,right,right,0.162
MSB1996WRNO,2019-10-04-14-21-29,10,6,0.6801843502682131,right,both,biased-switch,90,-30,right,right,0.149
MSB1996WRNO,2019-10-04-14-21-29,10,7,0.5115472777327253,right,probe,ambiguous-switch,-1,-5,right,right,0.146
MSB1996WRNO,2019-10-04-14-21-29,10,8,0.5602779606055547,right,both,ambiguous-switch,98,-5,right,left,0.134
MSB1996WRNO,2019-10-04-14-21-29,10,9,0.6309984727241342,right,probe,ambiguous-switch,-1,40,left,left,0.085
MSB1996WRNO,2019-10-04-14-21-29,10,10,0.6661828203587911,right,both,ambiguous-switch,101,40,left,left,0.09
MSB1996WRNO,2019-10-04-14-21-29,10,11,0.5270412002427821,left,probe,biased-switch,-1,5,left,left,0.034
MSB1996WRNO,2019-10-04-14-21-29,10,12,0.6538524404612188,left,both,biased-switch,107,5,left,right,0.066
MSB1996WRNO,2019-10-04-14-21-29,10,13,0.525981185604675,left,probe,biased-switch,-1,-10,left,left,0.116
MSB1996WRNO,2019-10-04-14-21-29,10,14,0.6768900736328636,left,both,biased-switch,101,-10,left,left,0.133
MSB1996WRNO,2019-10-04-14-21-29,10,15,0.5709253869371743,left,probe,biased-switch,-1,30,left,left,0.033
MSB1996WRNO,2019-10-04-14-21-29,10,16,0.6302972510551638,left,both,biased-switch,99,30,left,left,3.092
MSB1996WRNO,2019-10-04-14-21-29,10,17,0.5941473858584969,right,probe,biased-switch,-1,-20,right,right,0.149
MSB1996WRNO,2019-10-04-14-21-29,10,18,0.5830299062778475,right,both,biased-switch,99,-20,right,right,0.156
MSB1996WRNO,2019-10-04-14-21-29,10,19,0.5343368711615845,left,probe,ambiguous-switch,-1,5,left,left,0.21
MSB1996WRNO,2019-10-04-14-21-29,10,20,0.5892437085638706,left,both,ambiguous-switch,98,5,left,left,0.024
MSB1996WRNO,2019-10-04-14-21-29,10,21,0.5550290772688783,left,probe,biased-switch,-1,-5,left,left,0.075
MSB1996WRNO,2019-10-04-14-21-29,10,22,0.5761243808403835,left,both,biased-switch,96,-5,left,left,0.079
MSB1996WRNO,2019-10-04-14-21-29,10,23,0.5282115680395095,left,probe,ambiguous-switch,-1,-30,left,left,0.089
MSB1996WRNO,2019-10-04-14-21-29,10,24,0.5483420300810723,left,both,ambiguous-switch,92,-30,left,left,0.151
MSB1996WRNO,2019-10-04-14-21-29,10,25,0.5778989399404209,left,probe,ambiguous-switch,-1,-10,left,left,0.15
MSB1996WRNO,2019-10-04-14-21-29,10,26,0.6404682038875988,left,both,ambiguous-switch,91,-10,left,left,0.091
MSB1996WRNO,2019-10-04-14-21-29,10,27,0.6707422086224168,right,probe,ambiguous-switch,-1,20,right,right,0.131
MSB1996WRNO,2019-10-04-14-21-29,10,28,0.6637303679539897,right,both,ambiguous-switch,107,20,right,right,0.179
MSB1996WRNO,2019-10-04-14-21-29,10,29,0.5249223331369195,left,probe,biased-switch,-1,20,left,left,0.023
MSB1996WRNO,2019-10-04-14-21-29,10,30,0.6597702662620453,left,both,biased-switch,96,20,left,left,0.08
MSB1996WRNO,2019-10-04-14-21-29,10,31,0.5943197896998144,right,probe,biased-switch,-1,10,right,right,0.148
MSB1996WRNO,2019-10-04-14-21-29,10,32,0.6853731246511829,right,both,biased-switch,107,10,right,right,0.153
MSB1996WRNO,2019-10-04-14-21-29,10,33,0.6462571488202167,right,probe,biased-switch,-1,0,right,right,0.319
MSB1996WRNO,2019-10-04-14-21-29,10,34,0.5892271132497473,right,both,biased-switch,98,0,right,right,0.08
MSB1996WRNO,2019-10-04-14-21-29,10,35,0.689374659441088,right,probe,ambiguous-switch,-1,30,right,right,0.132
MSB1996WRNO,2019-10-04-14-21-29,10,36,0.6830940237605895,right,both,ambiguous-switch,90,30,right,right,0.158
MSB1996WRNO,2019-10-04-14-21-29,10,37,0.6571256313291098,right,probe,ambiguous-switch,-1,10,right,right,0.126
MSB1996WRNO,2019-10-04-14-21-29,10,38,0.548642492275824,right,both,ambiguous-switch,105,10,right,right,0.081
MSB1996WRNO,2019-10-04-14-21-29,10,39,0.6344079220641362,right,probe,ambiguous-switch,-1,0,right,right,0.132
MSB1996WRNO,2019-10-04-14-21-29,10,40,0.5353028616129326,right,both,ambiguous-switch,108,0,right,right,0.004
MSB1996WRNO,2019-10-04-14-21-29,10,41,0.6505496819214021,right,probe,ambiguous-switch,-1,-20,right,right,0.081
MSB1996WRNO,2019-10-04-14-21-29,10,42,0.57187309171679,right,both,ambiguous-switch,91,-20,right,right,0.158
MSB1996WRNO,2019-10-04-14-21-29,10,43,0.5780292772409049,left,probe,biased-switch,-1,40,left,left,0.063
MSB1996WRNO,2019-10-04-14-21-29,10,44,0.5490437543693999,left,both,biased-switch,104,40,left,left,0.036
MSB1996WRNO,2019-10-04-14-21-29,10,45,0.6179618487080503,left,probe,biased-switch,-1,-30,left,left,0.125
MSB1996WRNO,2019-10-04-14-21-29,10,46,0.6068256720256503,left,both,biased-switch,110,-30,left,left,0.163
MSB1996WRNO,2019-10-04-14-21-29,10,47,0.6654295113313968,left,probe,ambiguous-switch,-1,-5,left,left,0.023
MSB1996WRNO,2019-10-04-14-21-29,10,48,0.6195121571823089,left,both,ambiguous-switch,102,-5,left,left,0.1
MSB1996WRNO,2019-10-04-14-21-29,10,49,0.6639050721186135,left,probe,ambiguous-switch,-1,40,left,left,0.516
MSB1996WRNO,2019-10-04-14-21-29,10,50,0.6531359168498541,left,both,ambiguous-switch,102,40,left,left,0.201
MSB1996WRNO,2019-10-04-14-21-29,10,51,0.5690973564902972,right,probe,biased-switch,-1,5,right,right,0.594
MSB1996WRNO,2019-10-04-14-21-29,10,52,0.6678930655609143,right,both,biased-switch,104,5,right,right,0.116
MSB1996WRNO,2019-10-04-14-21-29,10,53,0.5529288907223058,left,probe,biased-switch,-1,-10,left,left,0.158
MSB1996WRNO,2019-10-04-14-21-29,10,54,0.6522836208098792,left,both,biased-switch,104,-10,left,left,0.095
MSB1996WRNO,2019-10-04-14-21-29,10,55,0.5512245018083203,right,probe,biased-switch,-1,30,right,right,0.229
MSB1996WRNO,2019-10-04-14-21-29,10,56,0.6362729131952443,right,both,biased-switch,96,30,right,right,0.112
MSB1996WRNO,2019-10-04-14-21-29,10,57,0.6539871436127926,left,probe,biased-switch,-1,-20,left,left,0.279
MSB1996WRNO,2019-10-04-14-21-29,10,58,0.6024872333000975,left,both,biased-switch,101,-20,left,left,0.093
MSB1996WRNO,2019-10-04-14-21-29,10,59,0.6979494217601959,left,probe,ambiguous-switch,-1,5,left,left,0.204
MSB1996WRNO,2019-10-04-14-21-29,10,60,0.555372242654523,left,both,ambiguous-switch,101,5,left,left,0.189
MSB1996WRNO,2019-10-04-14-21-29,10,61,0.5537476626599944,left,probe,biased-switch,-1,-5,left,left,0.171
MSB1996WRNO,2019-10-04-14-21-29,10,62,0.5786488146113186,left,both,biased-switch,92,-5,left,left,0.347
MSB1996WRNO,2019-10-04-14-21-29,10,63,0.6366114247916574,right,probe,ambiguous-switch,-1,-30,right,right,0.19
MSB1996WRNO,2019-10-04-14-21-29,10,64,0.6254858387513594,right,both,ambiguous-switch,103,-30,right,right,0.189
MSB1996WRNO,2019-10-04-14-21-29,10,65,0.6464681619434167,right,probe,ambiguous-switch,-1,-10,right,right,0.241
MSB1996WRNO,2019-10-04-14-21-29,10,66,0.5888031074816501,right,both,ambiguous-switch,101,-10,right,right,0.126
MSB1996WRNO,2019-10-04-14-21-29,10,67,0.6467347258437774,left,probe,ambiguous-switch,-1,20,left,left,0.097
MSB1996WRNO,2019-10-04-14-21-29,10,68,0.6628404079062472,left,both,ambiguous-switch,101,20,left,left,0.061
MSB1996WRNO,2019-10-04-14-21-29,10,69,0.5436058248905988,left,probe,biased-switch,-1,20,left,left,0.202
MSB1996WRNO,2019-10-04-14-21-29,10,70,0.5132667664178516,left,both,biased-switch,97,20,left,left,0.122
MSB1996WRNO,2019-10-04-14-21-29,10,71,0.5834172560224736,left,probe,biased-switch,-1,10,left,left,0.141
MSB1996WRNO,2019-10-04-14-21-29,10,72,0.6734584875749938,left,both,biased-switch,100,10,left,right,0.128
MSB1996WRNO,2019-10-04-14-21-29,10,73,0.6586505832633394,left,probe,biased-switch,-1,0,left,left,0.211
MSB1996WRNO,2019-10-04-14-21-29,10,74,0.6700387916325351,left,both,biased-switch,97,0,left,left,0.189
MSB1996WRNO,2019-10-04-14-21-29,10,75,0.5655657475691671,right,probe,ambiguous-switch,-1,30,right,right,0.184
MSB1996WRNO,2019-10-04-14-21-29,10,76,0.5246838160700897,right,both,ambiguous-switch,95,30,right,right,3.085
MSB1996WRNO,2019-10-04-14-21-29,10,77,0.5598942106129129,left,probe,ambiguous-switch,-1,10,left,left,0.206
MSB1996WRNO,2019-10-04-14-21-29,10,78,0.658044496360326,left,both,ambiguous-switch,108,10,left,right,0.15
MSB1996WRNO,2019-10-04-14-21-29,10,79,0.5958084278119877,left,probe,ambiguous-switch,-1,0,left,left,0.182
MSB1996WRNO,2019-10-04-14-21-29,10,80,0.5847861529891513,left,both,ambiguous-switch,104,0,left,left,0.171
