Participant,Session,Block,Trial,OnsetDelay,ProbeLocation,WhatIsReported,Condition,TriggerTime,ProbeSOA,PrimeDirection,Response,RT
SMB1998WRNO,2020-02-03-16-08-37,1,1,0.536024049495918,right,probe,ambiguous-stable,-1,6,left,left,0.55
SMB1998WRNO,2020-02-03-16-08-37,1,2,0.6623586895365093,right,both,ambiguous-stable,59,6,right,left,12.701
SMB1998WRNO,2020-02-03-16-08-37,1,3,0.6879674701942972,right,probe,biased-switch,-1,0,left,left,0.219
SMB1998WRNO,2020-02-03-16-08-37,1,4,0.6612106891230293,right,both,biased-switch,57,0,left,left,0.143
SMB1998WRNO,2020-02-03-16-08-37,1,5,0.5850080143096926,left,probe,biased-switch,-1,3,right,right,0.373
SMB1998WRNO,2020-02-03-16-08-37,1,6,0.5261409572194334,left,both,biased-switch,60,3,right,left,0.318
SMB1998WRNO,2020-02-03-16-08-37,1,7,0.5666381304110946,right,probe,ambiguous-switch,-1,3,left,left,0.783
SMB1998WRNO,2020-02-03-16-08-37,1,8,0.5806758266403852,right,both,ambiguous-switch,58,3,left,left,7.132
SMB1998WRNO,2020-02-03-16-08-37,1,9,0.6154082527600935,left,probe,ambiguous-switch,-1,0,right,right,0.57
SMB1998WRNO,2020-02-03-16-08-37,1,10,0.506816351774169,left,both,ambiguous-switch,57,0,right,left,0.358
SMB1998WRNO,2020-02-03-16-08-37,1,11,0.5424644204519349,right,probe,biased-switch,-1,6,left,left,0.891
SMB1998WRNO,2020-02-03-16-08-37,1,12,0.6278054665534526,right,both,biased-switch,55,6,left,right,0.403
SMB1998WRNO,2020-02-03-16-08-37,1,13,0.560235075431705,left,probe,ambiguous-switch,-1,6,right,right,0.717
SMB1998WRNO,2020-02-03-16-08-37,1,14,0.5967148854789127,left,both,ambiguous-switch,64,6,right,left,0.555
SMB1998WRNO,2020-02-03-16-08-37,1,15,0.6979118384133918,right,probe,ambiguous-switch,-1,24,left,left,0.672
SMB1998WRNO,2020-02-03-16-08-37,1,16,0.660946117179864,right,both,ambiguous-switch,59,24,left,left,0.243
SMB1998WRNO,2020-02-03-16-08-37,1,17,0.653095585651332,left,probe,ambiguous-stable,-1,24,right,right,1.639
SMB1998WRNO,2020-02-03-16-08-37,1,18,0.6773696871870548,left,both,ambiguous-stable,62,24,left,right,0.396
SMB1998WRNO,2020-02-03-16-08-37,1,19,0.5048265555276485,right,probe,ambiguous-stable,-1,-6,left,left,1.138
SMB1998WRNO,2020-02-03-16-08-37,1,20,0.591182362113135,right,both,ambiguous-stable,56,-6,right,left,0.515
SMB1998WRNO,2020-02-03-16-08-37,1,21,0.6176465542754637,right,probe,ambiguous-switch,-1,-6,left,left,0.399
SMB1998WRNO,2020-02-03-16-08-37,1,22,0.6388665766980897,right,both,ambiguous-switch,63,-6,left,right,0.364
SMB1998WRNO,2020-02-03-16-08-37,1,23,0.6048886342590933,left,probe,biased-switch,-1,24,right,right,0.503
SMB1998WRNO,2020-02-03-16-08-37,1,24,0.5435537084531584,left,both,biased-switch,61,24,right,right,0.292
SMB1998WRNO,2020-02-03-16-08-37,1,25,0.6689929049612622,left,probe,ambiguous-stable,-1,-12,left,left,1.281
SMB1998WRNO,2020-02-03-16-08-37,1,26,0.5315251670935653,left,both,ambiguous-stable,54,-12,right,right,0.594
SMB1998WRNO,2020-02-03-16-08-37,1,27,0.6445258721865137,left,probe,ambiguous-switch,-1,-18,right,right,0.519
SMB1998WRNO,2020-02-03-16-08-37,1,28,0.6377960450202937,left,both,ambiguous-switch,56,-18,right,right,0.165
SMB1998WRNO,2020-02-03-16-08-37,1,29,0.6263005582976755,right,probe,ambiguous-switch,-1,-3,right,right,0.435
SMB1998WRNO,2020-02-03-16-08-37,1,30,0.5390248374136881,right,both,ambiguous-switch,57,-3,right,right,0.251
SMB1998WRNO,2020-02-03-16-08-37,1,31,0.6376265290629695,left,probe,ambiguous-stable,-1,-18,right,right,0.274
SMB1998WRNO,2020-02-03-16-08-37,1,32,0.562041958115866,left,both,ambiguous-stable,60,-18,left,right,0.566
SMB1998WRNO,2020-02-03-16-08-37,1,33,0.5016742532076293,right,probe,ambiguous-switch,-1,-12,left,left,1.068
SMB1998WRNO,2020-02-03-16-08-37,1,34,0.6767443871980032,right,both,ambiguous-switch,56,-12,left,left,0.257
SMB1998WRNO,2020-02-03-16-08-37,1,35,0.6176428966602681,left,probe,ambiguous-stable,-1,-3,right,right,1.708
SMB1998WRNO,2020-02-03-16-08-37,1,36,0.5708911971705249,left,both,ambiguous-stable,54,-3,left,right,0.759
SMB1998WRNO,2020-02-03-16-08-37,1,37,0.6262607850749387,left,probe,biased-switch,-1,-3,right,right,0.682
SMB1998WRNO,2020-02-03-16-08-37,1,38,0.5637499157906967,left,both,biased-switch,56,-3,right,left,0.495
SMB1998WRNO,2020-02-03-16-08-37,1,39,0.6303163315083682,left,probe,ambiguous-stable,-1,12,right,right,0.608
SMB1998WRNO,2020-02-03-16-08-37,1,40,0.6114403698700032,left,both,ambiguous-stable,64,12,left,right,0.433
SMB1998WRNO,2020-02-03-16-08-37,1,41,0.6504319741163009,right,probe,biased-switch,-1,12,left,left,0.625
SMB1998WRNO,2020-02-03-16-08-37,1,42,0.5624172796576037,right,both,biased-switch,62,12,left,right,0.16
SMB1998WRNO,2020-02-03-16-08-37,1,43,0.5788826054086509,right,probe,ambiguous-switch,-1,18,left,left,0.433
SMB1998WRNO,2020-02-03-16-08-37,1,44,0.584652916388488,right,both,ambiguous-switch,56,18,left,right,3.635
SMB1998WRNO,2020-02-03-16-08-37,1,45,0.6999804107502808,left,probe,biased-switch,-1,-12,left,left,0.564
SMB1998WRNO,2020-02-03-16-08-37,1,46,0.6043831911116769,left,both,biased-switch,60,-12,left,left,0.275
SMB1998WRNO,2020-02-03-16-08-37,1,47,0.5363803579577787,right,probe,ambiguous-stable,-1,3,left,left,0.503
SMB1998WRNO,2020-02-03-16-08-37,1,48,0.6099429180498501,right,both,ambiguous-stable,58,3,right,left,0.248
SMB1998WRNO,2020-02-03-16-08-37,1,49,0.6348640925521778,right,probe,ambiguous-stable,-1,18,right,right,0.279
SMB1998WRNO,2020-02-03-16-08-37,1,50,0.5144671802032503,right,both,ambiguous-stable,54,18,left,right,0.084
SMB1998WRNO,2020-02-03-16-08-37,1,51,0.6558651195321308,right,probe,biased-switch,-1,-18,right,right,0.059
SMB1998WRNO,2020-02-03-16-08-37,1,52,0.6951255343416569,right,both,biased-switch,59,-18,right,left,0.184
SMB1998WRNO,2020-02-03-16-08-37,1,53,0.6162884286183012,right,probe,ambiguous-stable,-1,0,right,right,0.369
SMB1998WRNO,2020-02-03-16-08-37,1,54,0.6319484734068206,right,both,ambiguous-stable,59,0,left,right,0.17
SMB1998WRNO,2020-02-03-16-08-37,1,55,0.68282913992881,right,probe,biased-switch,-1,-6,right,right,0.364
SMB1998WRNO,2020-02-03-16-08-37,1,56,0.6345237424676173,right,both,biased-switch,57,-6,right,right,0.262
SMB1998WRNO,2020-02-03-16-08-37,1,57,0.507174051274409,right,probe,ambiguous-switch,-1,12,right,right,0.36
SMB1998WRNO,2020-02-03-16-08-37,1,58,0.6240768248929385,right,both,ambiguous-switch,64,12,right,right,0.414
SMB1998WRNO,2020-02-03-16-08-37,1,59,0.6674786734995227,right,probe,biased-switch,-1,18,right,right,0.181
SMB1998WRNO,2020-02-03-16-08-37,1,60,0.6277686337675462,right,both,biased-switch,66,18,right,right,0.04
SMB1998WRNO,2020-02-03-16-08-37,2,1,0.6173150176492406,right,probe,biased-switch,-1,24,right,right,0.681
SMB1998WRNO,2020-02-03-16-08-37,2,2,0.5484786274378665,right,both,biased-switch,55,24,right,right,0.48
SMB1998WRNO,2020-02-03-16-08-37,2,3,0.6529338349208081,right,probe,ambiguous-switch,-1,0,right,right,0.535
SMB1998WRNO,2020-02-03-16-08-37,2,4,0.604025642444035,right,both,ambiguous-switch,61,0,right,right,0.346
SMB1998WRNO,2020-02-03-16-08-37,2,5,0.5197979349849163,left,probe,ambiguous-stable,-1,12,right,right,0.832
SMB1998WRNO,2020-02-03-16-08-37,2,6,0.5780269081088821,left,both,ambiguous-stable,66,12,left,right,0.512
SMB1998WRNO,2020-02-03-16-08-37,2,7,0.6083997178240085,left,probe,biased-switch,-1,18,right,right,0.528
SMB1998WRNO,2020-02-03-16-08-37,2,8,0.5518124360408042,left,both,biased-switch,61,18,right,right,0.387
SMB1998WRNO,2020-02-03-16-08-37,2,9,0.6210541428648526,right,probe,ambiguous-switch,-1,-12,right,right,0.511
SMB1998WRNO,2020-02-03-16-08-37,2,10,0.5172255140554688,right,both,ambiguous-switch,61,-12,right,right,0.27
SMB1998WRNO,2020-02-03-16-08-37,2,11,0.6364451418389522,left,probe,ambiguous-switch,-1,12,right,right,0.407
SMB1998WRNO,2020-02-03-16-08-37,2,12,0.621670946670811,left,both,ambiguous-switch,57,12,right,left,0.465
SMB1998WRNO,2020-02-03-16-08-37,2,13,0.5328745847771519,right,probe,ambiguous-switch,-1,-6,right,right,0.517
SMB1998WRNO,2020-02-03-16-08-37,2,14,0.650353515551878,right,both,ambiguous-switch,66,-6,right,right,0.329
SMB1998WRNO,2020-02-03-16-08-37,2,15,0.5271857257025052,right,probe,ambiguous-stable,-1,-6,right,right,0.471
SMB1998WRNO,2020-02-03-16-08-37,2,16,0.6686756750283352,right,both,ambiguous-stable,55,-6,left,right,0.383
SMB1998WRNO,2020-02-03-16-08-37,2,17,0.57413286943575,left,probe,ambiguous-stable,-1,6,right,right,0.399
SMB1998WRNO,2020-02-03-16-08-37,2,18,0.5488510557386909,left,both,ambiguous-stable,62,6,left,left,0.327
SMB1998WRNO,2020-02-03-16-08-37,2,19,0.6136403880790082,right,probe,biased-switch,-1,0,right,right,1.36
SMB1998WRNO,2020-02-03-16-08-37,2,20,0.6178313998011284,right,both,biased-switch,59,0,right,left,0.317
SMB1998WRNO,2020-02-03-16-08-37,2,21,0.5510036758025704,left,probe,ambiguous-stable,-1,-12,right,right,0.54
SMB1998WRNO,2020-02-03-16-08-37,2,22,0.633999015006427,left,both,ambiguous-stable,60,-12,left,right,0.479
SMB1998WRNO,2020-02-03-16-08-37,2,23,0.5524679668337329,left,probe,ambiguous-stable,-1,3,right,right,0.721
SMB1998WRNO,2020-02-03-16-08-37,2,24,0.5368253339489132,left,both,ambiguous-stable,54,3,left,right,0.245
SMB1998WRNO,2020-02-03-16-08-37,2,25,0.6092000926311012,right,probe,biased-switch,-1,-3,right,right,0.386
SMB1998WRNO,2020-02-03-16-08-37,2,26,0.5526494214130364,right,both,biased-switch,65,-3,right,right,2.313
SMB1998WRNO,2020-02-03-16-08-37,2,27,0.5288864784933485,right,probe,biased-switch,-1,-18,right,right,0.255
SMB1998WRNO,2020-02-03-16-08-37,2,28,0.6923595912734548,right,both,biased-switch,65,-18,right,right,0.336
SMB1998WRNO,2020-02-03-16-08-37,2,29,0.647989543655021,left,probe,biased-switch,-1,3,right,right,0.33
SMB1998WRNO,2020-02-03-16-08-37,2,30,0.6565881386298521,left,both,biased-switch,56,3,right,left,0.417
SMB1998WRNO,2020-02-03-16-08-37,2,31,0.5716678154905064,right,probe,biased-switch,-1,12,right,right,0.347
SMB1998WRNO,2020-02-03-16-08-37,2,32,0.5856071165497405,right,both,biased-switch,62,12,right,right,0.029
SMB1998WRNO,2020-02-03-16-08-37,2,33,0.610432176231302,left,probe,ambiguous-stable,-1,0,right,right,0.332
SMB1998WRNO,2020-02-03-16-08-37,2,34,0.5058840070850713,left,both,ambiguous-stable,61,0,left,right,0.145
SMB1998WRNO,2020-02-03-16-08-37,2,35,0.5885889807673319,left,probe,ambiguous-switch,-1,6,right,right,0.336
SMB1998WRNO,2020-02-03-16-08-37,2,36,0.6629775707477371,left,both,ambiguous-switch,58,6,right,left,0.267
SMB1998WRNO,2020-02-03-16-08-37,2,37,0.5460850335819826,right,probe,ambiguous-stable,-1,-3,right,right,0.824
SMB1998WRNO,2020-02-03-16-08-37,2,38,0.5706249361986737,right,both,ambiguous-stable,56,-3,left,left,1.769
SMB1998WRNO,2020-02-03-16-08-37,2,39,0.6321223904243445,left,probe,ambiguous-stable,-1,18,right,right,0.265
SMB1998WRNO,2020-02-03-16-08-37,2,40,0.6206269191777817,left,both,ambiguous-stable,60,18,left,right,0.439
SMB1998WRNO,2020-02-03-16-08-37,2,41,0.5885172900543858,right,probe,ambiguous-switch,-1,-18,left,left,0.422
SMB1998WRNO,2020-02-03-16-08-37,2,42,0.6553124126550998,right,both,ambiguous-switch,63,-18,left,right,0.404
SMB1998WRNO,2020-02-03-16-08-37,2,43,0.6752177384926109,right,probe,ambiguous-switch,-1,3,right,right,0.32
SMB1998WRNO,2020-02-03-16-08-37,2,44,0.5128120021024763,right,both,ambiguous-switch,57,3,right,right,0.371
SMB1998WRNO,2020-02-03-16-08-37,2,45,0.6412891059391013,right,probe,biased-switch,-1,-12,right,right,0.255
SMB1998WRNO,2020-02-03-16-08-37,2,46,0.5544363155450605,right,both,biased-switch,60,-12,right,right,0.134
SMB1998WRNO,2020-02-03-16-08-37,2,47,0.5863092046572059,right,probe,ambiguous-switch,-1,18,right,right,0.268
SMB1998WRNO,2020-02-03-16-08-37,2,48,0.6721002121597903,right,both,ambiguous-switch,58,18,right,right,0.371
SMB1998WRNO,2020-02-03-16-08-37,2,49,0.5969384460138423,right,probe,ambiguous-switch,-1,24,right,right,0.56
SMB1998WRNO,2020-02-03-16-08-37,2,50,0.5787643928013866,right,both,ambiguous-switch,62,24,right,right,0.564
SMB1998WRNO,2020-02-03-16-08-37,2,51,0.6733112972761531,right,probe,biased-switch,-1,-6,right,right,0.561
SMB1998WRNO,2020-02-03-16-08-37,2,52,0.6104474906245521,right,both,biased-switch,64,-6,right,right,0.307
SMB1998WRNO,2020-02-03-16-08-37,2,53,0.6383664913489983,right,probe,ambiguous-switch,-1,-3,right,right,2.514
SMB1998WRNO,2020-02-03-16-08-37,2,54,0.5745547740864357,right,both,ambiguous-switch,63,-3,right,right,0.322
SMB1998WRNO,2020-02-03-16-08-37,2,55,0.5311461867859508,left,probe,ambiguous-stable,-1,24,right,right,0.405
SMB1998WRNO,2020-02-03-16-08-37,2,56,0.5244471692974865,left,both,ambiguous-stable,55,24,left,right,0.311
SMB1998WRNO,2020-02-03-16-08-37,2,57,0.5905131022699803,right,probe,ambiguous-stable,-1,-18,right,right,0.547
SMB1998WRNO,2020-02-03-16-08-37,2,58,0.6213384652624361,right,both,ambiguous-stable,57,-18,left,right,0.039
SMB1998WRNO,2020-02-03-16-08-37,2,59,0.6808685410898291,left,probe,biased-switch,-1,6,right,right,0.35
SMB1998WRNO,2020-02-03-16-08-37,2,60,0.6515245764703439,left,both,biased-switch,65,6,right,right,2.086
SMB1998WRNO,2020-02-03-16-08-37,3,1,0.5077587408621501,left,probe,biased-switch,-1,6,right,right,0.651
SMB1998WRNO,2020-02-03-16-08-37,3,2,0.6279106834487833,left,both,biased-switch,57,6,right,left,0.229
SMB1998WRNO,2020-02-03-16-08-37,3,3,0.502307351307896,left,probe,biased-switch,-1,-12,right,right,0.342
SMB1998WRNO,2020-02-03-16-08-37,3,4,0.6089988482397407,left,both,biased-switch,56,-12,right,left,0.624
SMB1998WRNO,2020-02-03-16-08-37,3,5,0.5890045053309075,left,probe,ambiguous-switch,-1,-18,right,right,0.438
SMB1998WRNO,2020-02-03-16-08-37,3,6,0.588319382789682,left,both,ambiguous-switch,66,-18,right,right,2.102
SMB1998WRNO,2020-02-03-16-08-37,3,7,0.6020254549107189,right,probe,biased-switch,-1,12,right,right,0.54
SMB1998WRNO,2020-02-03-16-08-37,3,8,0.6103457728579703,right,both,biased-switch,62,12,right,left,0.806
SMB1998WRNO,2020-02-03-16-08-37,3,9,0.65305419640976,right,probe,ambiguous-switch,-1,24,right,right,0.346
SMB1998WRNO,2020-02-03-16-08-37,3,10,0.6370386936955678,right,both,ambiguous-switch,63,24,right,left,0.612
SMB1998WRNO,2020-02-03-16-08-37,3,11,0.5811205948445566,left,probe,ambiguous-switch,-1,18,right,right,0.27
SMB1998WRNO,2020-02-03-16-08-37,3,12,0.6702770695911805,left,both,ambiguous-switch,58,18,right,left,0.106
SMB1998WRNO,2020-02-03-16-08-37,3,13,0.5152696296101873,left,probe,biased-switch,-1,24,right,right,0.294
SMB1998WRNO,2020-02-03-16-08-37,3,14,0.6387207980876004,left,both,biased-switch,62,24,right,right,0.254
SMB1998WRNO,2020-02-03-16-08-37,3,15,0.6165254558921456,left,probe,biased-switch,-1,-3,left,left,1.33
SMB1998WRNO,2020-02-03-16-08-37,3,16,0.6026878817401542,left,both,biased-switch,56,-3,left,right,0.307
SMB1998WRNO,2020-02-03-16-08-37,3,17,0.635932205124465,left,probe,ambiguous-switch,-1,-6,right,right,0.4
SMB1998WRNO,2020-02-03-16-08-37,3,18,0.6518508563454056,left,both,ambiguous-switch,60,-6,right,left,0.522
SMB1998WRNO,2020-02-03-16-08-37,3,19,0.6232933958372668,right,probe,ambiguous-switch,-1,-3,right,right,1.229
SMB1998WRNO,2020-02-03-16-08-37,3,20,0.5661783908025969,right,both,ambiguous-switch,63,-3,right,left,0.255
SMB1998WRNO,2020-02-03-16-08-37,3,21,0.6097409436493058,right,probe,ambiguous-stable,-1,18,left,left,0.295
SMB1998WRNO,2020-02-03-16-08-37,3,22,0.5573200034357029,right,both,ambiguous-stable,58,18,right,right,3.597
SMB1998WRNO,2020-02-03-16-08-37,3,23,0.5120512752564799,right,probe,biased-switch,-1,-18,left,left,0.724
SMB1998WRNO,2020-02-03-16-08-37,3,24,0.692706634889483,right,both,biased-switch,60,-18,left,right,0.243
SMB1998WRNO,2020-02-03-16-08-37,3,25,0.5477113015136585,right,probe,biased-switch,-1,-6,left,left,0.353
SMB1998WRNO,2020-02-03-16-08-37,3,26,0.6905445415522671,right,both,biased-switch,65,-6,left,right,0.249
SMB1998WRNO,2020-02-03-16-08-37,3,27,0.6552720372556963,right,probe,ambiguous-stable,-1,-6,right,right,1.171
SMB1998WRNO,2020-02-03-16-08-37,3,28,0.5395707311450444,right,both,ambiguous-stable,62,-6,left,right,0.312
SMB1998WRNO,2020-02-03-16-08-37,3,29,0.5581804213369689,right,probe,ambiguous-stable,-1,-12,right,right,2.314
SMB1998WRNO,2020-02-03-16-08-37,3,30,0.6063696879848436,right,both,ambiguous-stable,65,-12,left,left,0.368
SMB1998WRNO,2020-02-03-16-08-37,3,31,0.6095091205316001,right,probe,ambiguous-stable,-1,24,left,left,0.258
SMB1998WRNO,2020-02-03-16-08-37,3,32,0.5692389061797819,right,both,ambiguous-stable,63,24,right,right,0.34
SMB1998WRNO,2020-02-03-16-08-37,3,33,0.5896740983755859,left,probe,ambiguous-switch,-1,-12,right,right,2.135
SMB1998WRNO,2020-02-03-16-08-37,3,34,0.5895499114687499,left,both,ambiguous-switch,62,-12,right,left,0.357
SMB1998WRNO,2020-02-03-16-08-37,3,35,0.5436880022542159,right,probe,ambiguous-stable,-1,3,left,left,2.944
SMB1998WRNO,2020-02-03-16-08-37,3,36,0.5316012194311207,right,both,ambiguous-stable,63,3,right,right,0.259
SMB1998WRNO,2020-02-03-16-08-37,3,37,0.6098979759621131,left,probe,ambiguous-switch,-1,6,right,right,0.262
SMB1998WRNO,2020-02-03-16-08-37,3,38,0.6429588943188878,left,both,ambiguous-switch,59,6,right,left,0.271
SMB1998WRNO,2020-02-03-16-08-37,3,39,0.5398574175853047,left,probe,ambiguous-stable,-1,-3,left,left,0.291
SMB1998WRNO,2020-02-03-16-08-37,3,40,0.6014956925001015,left,both,ambiguous-stable,55,-3,right,left,0.366
SMB1998WRNO,2020-02-03-16-08-37,3,41,0.6885007765226708,right,probe,ambiguous-stable,-1,-18,right,right,0.443
SMB1998WRNO,2020-02-03-16-08-37,3,42,0.5087300640714767,right,both,ambiguous-stable,59,-18,left,right,0.391
SMB1998WRNO,2020-02-03-16-08-37,3,43,0.5730870244861694,right,probe,biased-switch,-1,3,left,left,0.374
SMB1998WRNO,2020-02-03-16-08-37,3,44,0.5284899706035291,right,both,biased-switch,64,3,left,right,0.038
SMB1998WRNO,2020-02-03-16-08-37,3,45,0.6145374617106423,left,probe,biased-switch,-1,18,left,left,0.352
SMB1998WRNO,2020-02-03-16-08-37,3,46,0.6806580477855342,left,both,biased-switch,66,18,left,right,2.465
SMB1998WRNO,2020-02-03-16-08-37,3,47,0.685048919148678,right,probe,biased-switch,-1,0,left,left,0.254
SMB1998WRNO,2020-02-03-16-08-37,3,48,0.5823635087759395,right,both,biased-switch,62,0,left,right,2.645
SMB1998WRNO,2020-02-03-16-08-37,3,49,0.5445146016102154,right,probe,ambiguous-stable,-1,0,left,left,1.947
SMB1998WRNO,2020-02-03-16-08-37,3,50,0.6281689207563727,right,both,ambiguous-stable,58,0,right,left,0.324
SMB1998WRNO,2020-02-03-16-08-37,3,51,0.5169453494651945,left,probe,ambiguous-switch,-1,0,left,left,0.571
SMB1998WRNO,2020-02-03-16-08-37,3,52,0.5660488341602603,left,both,ambiguous-switch,65,0,left,left,3.83
SMB1998WRNO,2020-02-03-16-08-37,3,53,0.6314135028717824,right,probe,ambiguous-stable,-1,12,left,left,0.523
SMB1998WRNO,2020-02-03-16-08-37,3,54,0.6009020512098585,right,both,ambiguous-stable,61,12,right,left,0.372
SMB1998WRNO,2020-02-03-16-08-37,3,55,0.5507942898813566,right,probe,ambiguous-switch,-1,3,left,left,1.15
SMB1998WRNO,2020-02-03-16-08-37,3,56,0.5131722232148681,right,both,ambiguous-switch,60,3,left,left,0.386
SMB1998WRNO,2020-02-03-16-08-37,3,57,0.5020650274912869,right,probe,ambiguous-stable,-1,6,left,left,0.353
SMB1998WRNO,2020-02-03-16-08-37,3,58,0.5826003872271694,right,both,ambiguous-stable,66,6,right,left,3.257
SMB1998WRNO,2020-02-03-16-08-37,3,59,0.5096380733302168,left,probe,ambiguous-switch,-1,12,left,left,0.532
SMB1998WRNO,2020-02-03-16-08-37,3,60,0.6835857172813675,left,both,ambiguous-switch,59,12,left,left,0.403
SMB1998WRNO,2020-02-03-16-08-37,4,1,0.6312826567066901,left,probe,ambiguous-switch,-1,3,left,left,0.351
SMB1998WRNO,2020-02-03-16-08-37,4,2,0.577206981677889,left,both,ambiguous-switch,62,3,left,right,0.177
SMB1998WRNO,2020-02-03-16-08-37,4,3,0.6151866870823686,right,probe,ambiguous-stable,-1,3,left,left,0.434
SMB1998WRNO,2020-02-03-16-08-37,4,4,0.5707160110255848,right,both,ambiguous-stable,60,3,right,left,0.208
SMB1998WRNO,2020-02-03-16-08-37,4,5,0.6359583302362007,left,probe,ambiguous-stable,-1,12,right,right,0.451
SMB1998WRNO,2020-02-03-16-08-37,4,6,0.5153484267104177,left,both,ambiguous-stable,61,12,left,left,0.33
SMB1998WRNO,2020-02-03-16-08-37,4,7,0.6110259682220031,right,probe,ambiguous-stable,-1,18,left,left,0.549
SMB1998WRNO,2020-02-03-16-08-37,4,8,0.658372799921658,right,both,ambiguous-stable,66,18,right,left,0.35
SMB1998WRNO,2020-02-03-16-08-37,4,9,0.6966376056555668,right,probe,biased-switch,-1,-12,left,left,0.429
SMB1998WRNO,2020-02-03-16-08-37,4,10,0.6406755955911377,right,both,biased-switch,57,-12,left,right,0.211
SMB1998WRNO,2020-02-03-16-08-37,4,11,0.6801374759178814,left,probe,biased-switch,-1,-3,right,right,0.353
SMB1998WRNO,2020-02-03-16-08-37,4,12,0.6814991344059338,left,both,biased-switch,58,-3,right,left,0.105
SMB1998WRNO,2020-02-03-16-08-37,4,13,0.5459305071094109,right,probe,ambiguous-switch,-1,0,left,left,0.284
SMB1998WRNO,2020-02-03-16-08-37,4,14,0.6865902555143606,right,both,ambiguous-switch,60,0,left,right,0.276
SMB1998WRNO,2020-02-03-16-08-37,4,15,0.5642557848306459,right,probe,biased-switch,-1,12,right,right,0.134
SMB1998WRNO,2020-02-03-16-08-37,4,16,0.6704917348630064,right,both,biased-switch,66,12,right,left,0.252
SMB1998WRNO,2020-02-03-16-08-37,4,17,0.6673633116017355,right,probe,ambiguous-switch,-1,6,left,left,0.208
SMB1998WRNO,2020-02-03-16-08-37,4,18,0.5798917014341425,right,both,ambiguous-switch,58,6,left,right,2.061
SMB1998WRNO,2020-02-03-16-08-37,4,19,0.5092772416742282,right,probe,ambiguous-stable,-1,24,left,left,0.53
SMB1998WRNO,2020-02-03-16-08-37,4,20,0.6080071915439001,right,both,ambiguous-stable,66,24,right,left,0.221
SMB1998WRNO,2020-02-03-16-08-37,4,21,0.6878115368400923,right,probe,ambiguous-switch,-1,18,left,left,0.571
SMB1998WRNO,2020-02-03-16-08-37,4,22,0.5605491571121841,right,both,ambiguous-switch,63,18,left,left,0.49
SMB1998WRNO,2020-02-03-16-08-37,4,23,0.6652193243119395,right,probe,biased-switch,-1,-6,left,left,2.339
SMB1998WRNO,2020-02-03-16-08-37,4,24,0.6419664674686384,right,both,biased-switch,55,-6,left,left,0.221
SMB1998WRNO,2020-02-03-16-08-37,4,25,0.5933452284972953,left,probe,ambiguous-stable,-1,-3,left,left,0.485
SMB1998WRNO,2020-02-03-16-08-37,4,26,0.6328686181267559,left,both,ambiguous-stable,58,-3,right,left,0.327
SMB1998WRNO,2020-02-03-16-08-37,4,27,0.6470771496559931,left,probe,ambiguous-stable,-1,0,left,left,0.513
SMB1998WRNO,2020-02-03-16-08-37,4,28,0.6337868890129577,left,both,ambiguous-stable,64,0,right,left,2.762
SMB1998WRNO,2020-02-03-16-08-37,4,29,0.6510253676662848,right,probe,biased-switch,-1,3,left,left,0.37
SMB1998WRNO,2020-02-03-16-08-37,4,30,0.6768777595554486,right,both,biased-switch,64,3,left,right,0.23
SMB1998WRNO,2020-02-03-16-08-37,4,31,0.5992412400219451,right,probe,ambiguous-switch,-1,-12,right,right,2.551
SMB1998WRNO,2020-02-03-16-08-37,4,32,0.6963774611030839,right,both,ambiguous-switch,64,-12,right,right,2.492
SMB1998WRNO,2020-02-03-16-08-37,4,33,0.5661941528120302,right,probe,biased-switch,-1,6,left,left,1.193
SMB1998WRNO,2020-02-03-16-08-37,4,34,0.656515545580961,right,both,biased-switch,61,6,left,right,0.292
SMB1998WRNO,2020-02-03-16-08-37,4,35,0.6239550664303792,left,probe,ambiguous-switch,-1,-6,left,left,0.5
SMB1998WRNO,2020-02-03-16-08-37,4,36,0.5271232380577842,left,both,ambiguous-switch,55,-6,left,left,0.52
SMB1998WRNO,2020-02-03-16-08-37,4,37,0.6603732399596206,right,probe,biased-switch,-1,0,right,right,3.715
SMB1998WRNO,2020-02-03-16-08-37,4,38,0.6042451593941448,right,both,biased-switch,63,0,right,left,0.246
SMB1998WRNO,2020-02-03-16-08-37,4,39,0.5046412583317672,left,probe,ambiguous-stable,-1,6,left,left,1.058
SMB1998WRNO,2020-02-03-16-08-37,4,40,0.6026981676967622,left,both,ambiguous-stable,58,6,right,left,0.06
SMB1998WRNO,2020-02-03-16-08-37,4,41,0.6955970433525362,right,probe,biased-switch,-1,18,left,left,0.436
SMB1998WRNO,2020-02-03-16-08-37,4,42,0.6690015729573044,right,both,biased-switch,56,18,left,right,1.185
SMB1998WRNO,2020-02-03-16-08-37,4,43,0.5734428006566139,right,probe,biased-switch,-1,24,right,right,0.33
SMB1998WRNO,2020-02-03-16-08-37,4,44,0.5534499936181957,right,both,biased-switch,63,24,right,right,2.484
SMB1998WRNO,2020-02-03-16-08-37,4,45,0.6565845655934317,right,probe,ambiguous-switch,-1,-18,right,right,0.525
SMB1998WRNO,2020-02-03-16-08-37,4,46,0.6168717365161183,right,both,ambiguous-switch,62,-18,right,right,0.279
SMB1998WRNO,2020-02-03-16-08-37,4,47,0.5533184267656885,right,probe,ambiguous-stable,-1,-18,right,right,0.835
SMB1998WRNO,2020-02-03-16-08-37,4,48,0.5260320802914371,right,both,ambiguous-stable,63,-18,left,right,2.422
SMB1998WRNO,2020-02-03-16-08-37,4,49,0.638634698496886,right,probe,ambiguous-switch,-1,-3,right,right,0.846
SMB1998WRNO,2020-02-03-16-08-37,4,50,0.6997010097351226,right,both,ambiguous-switch,59,-3,right,right,3.695
SMB1998WRNO,2020-02-03-16-08-37,4,51,0.6815086708521949,left,probe,ambiguous-switch,-1,12,left,left,0.309
SMB1998WRNO,2020-02-03-16-08-37,4,52,0.6784405957071075,left,both,ambiguous-switch,64,12,left,right,0.233
SMB1998WRNO,2020-02-03-16-08-37,4,53,0.6772126451986648,right,probe,ambiguous-stable,-1,-6,left,left,0.238
SMB1998WRNO,2020-02-03-16-08-37,4,54,0.5692568345349994,right,both,ambiguous-stable,57,-6,right,right,0.188
SMB1998WRNO,2020-02-03-16-08-37,4,55,0.6358415504400803,right,probe,ambiguous-switch,-1,24,right,right,0.416
SMB1998WRNO,2020-02-03-16-08-37,4,56,0.6040916539899391,right,both,ambiguous-switch,56,24,right,right,0.238
SMB1998WRNO,2020-02-03-16-08-37,4,57,0.5236277668312911,right,probe,biased-switch,-1,-18,right,right,0.31
SMB1998WRNO,2020-02-03-16-08-37,4,58,0.6224269233097445,right,both,biased-switch,55,-18,right,right,0.292
SMB1998WRNO,2020-02-03-16-08-37,4,59,0.6153395574919367,left,probe,ambiguous-stable,-1,-12,right,right,0.666
SMB1998WRNO,2020-02-03-16-08-37,4,60,0.5972620871578361,left,both,ambiguous-stable,60,-12,left,right,2.279
SMB1998WRNO,2020-02-03-16-08-37,5,1,0.6409719589979137,left,probe,ambiguous-stable,-1,-12,right,right,0.291
SMB1998WRNO,2020-02-03-16-08-37,5,2,0.6787397405216777,left,both,ambiguous-stable,63,-12,left,right,3.347
SMB1998WRNO,2020-02-03-16-08-37,5,3,0.6660894575063643,right,probe,ambiguous-stable,-1,-6,right,right,0.286
SMB1998WRNO,2020-02-03-16-08-37,5,4,0.5387530685623391,right,both,ambiguous-stable,65,-6,left,right,1.094
SMB1998WRNO,2020-02-03-16-08-37,5,5,0.6970482367946818,right,probe,biased-switch,-1,18,right,right,0.264
SMB1998WRNO,2020-02-03-16-08-37,5,6,0.6280733180106348,right,both,biased-switch,59,18,right,right,0.213
SMB1998WRNO,2020-02-03-16-08-37,5,7,0.5915442414400016,left,probe,ambiguous-stable,-1,6,right,right,0.698
SMB1998WRNO,2020-02-03-16-08-37,5,8,0.5898798211168702,left,both,ambiguous-stable,58,6,left,right,0.214
SMB1998WRNO,2020-02-03-16-08-37,5,9,0.5353219742617193,left,probe,biased-switch,-1,-6,right,right,0.306
SMB1998WRNO,2020-02-03-16-08-37,5,10,0.6364385906101375,left,both,biased-switch,65,-6,right,right,1.236
SMB1998WRNO,2020-02-03-16-08-37,5,11,0.5966493602603027,right,probe,biased-switch,-1,0,right,right,0.255
SMB1998WRNO,2020-02-03-16-08-37,5,12,0.5285022399661924,right,both,biased-switch,64,0,right,left,0.059
SMB1998WRNO,2020-02-03-16-08-37,5,13,0.5330684701475444,right,probe,ambiguous-stable,-1,-18,right,right,0.513
SMB1998WRNO,2020-02-03-16-08-37,5,14,0.6039720300356933,right,both,ambiguous-stable,65,-18,left,left,0.232
SMB1998WRNO,2020-02-03-16-08-37,5,15,0.6332636523936889,left,probe,ambiguous-stable,-1,24,right,right,0.271
SMB1998WRNO,2020-02-03-16-08-37,5,16,0.5945592162130132,left,both,ambiguous-stable,58,24,left,right,0.26
SMB1998WRNO,2020-02-03-16-08-37,5,17,0.671382986888609,left,probe,ambiguous-stable,-1,3,right,right,0.441
SMB1998WRNO,2020-02-03-16-08-37,5,18,0.6267781493773652,left,both,ambiguous-stable,55,3,left,right,2.444
SMB1998WRNO,2020-02-03-16-08-37,5,19,0.6261054363432829,left,probe,ambiguous-switch,-1,-6,right,right,0.265
SMB1998WRNO,2020-02-03-16-08-37,5,20,0.6178046811331281,left,both,ambiguous-switch,61,-6,right,right,0.309
SMB1998WRNO,2020-02-03-16-08-37,5,21,0.612379898897743,left,probe,ambiguous-switch,-1,0,right,right,0.302
SMB1998WRNO,2020-02-03-16-08-37,5,22,0.5412124832911087,left,both,ambiguous-switch,65,0,right,right,0.256
SMB1998WRNO,2020-02-03-16-08-37,5,23,0.5688716027643452,right,probe,ambiguous-switch,-1,-3,right,right,0.574
SMB1998WRNO,2020-02-03-16-08-37,5,24,0.6635232827763795,right,both,ambiguous-switch,64,-3,right,left,0.242
SMB1998WRNO,2020-02-03-16-08-37,5,25,0.6268523315304347,left,probe,biased-switch,-1,12,right,right,0.633
SMB1998WRNO,2020-02-03-16-08-37,5,26,0.6590543606786349,left,both,biased-switch,63,12,right,right,0.219
SMB1998WRNO,2020-02-03-16-08-37,5,27,0.5238995434074684,right,probe,ambiguous-switch,-1,-18,right,right,0.259
SMB1998WRNO,2020-02-03-16-08-37,5,28,0.6821874733506357,right,both,ambiguous-switch,62,-18,right,right,0.233
SMB1998WRNO,2020-02-03-16-08-37,5,29,0.6801835940426098,left,probe,biased-switch,-1,-18,right,right,0.382
SMB1998WRNO,2020-02-03-16-08-37,5,30,0.6598745175052492,left,both,biased-switch,57,-18,right,right,0.214
SMB1998WRNO,2020-02-03-16-08-37,5,31,0.644484505526745,right,probe,ambiguous-switch,-1,24,right,right,0.239
SMB1998WRNO,2020-02-03-16-08-37,5,32,0.5747826578714011,right,both,ambiguous-switch,63,24,right,right,0.31
SMB1998WRNO,2020-02-03-16-08-37,5,33,0.5584887373359682,left,probe,biased-switch,-1,-12,right,right,0.277
SMB1998WRNO,2020-02-03-16-08-37,5,34,0.5853041169911504,left,both,biased-switch,56,-12,right,right,0.248
SMB1998WRNO,2020-02-03-16-08-37,5,35,0.5179878324666729,right,probe,ambiguous-stable,-1,0,right,right,0.415
SMB1998WRNO,2020-02-03-16-08-37,5,36,0.6251849435912468,right,both,ambiguous-stable,59,0,left,left,0.309
SMB1998WRNO,2020-02-03-16-08-37,5,37,0.6862901079897703,left,probe,ambiguous-stable,-1,12,left,left,1.136
SMB1998WRNO,2020-02-03-16-08-37,5,38,0.6738883727793565,left,both,ambiguous-stable,54,12,right,right,0.856
SMB1998WRNO,2020-02-03-16-08-37,5,39,0.6837378234694922,left,probe,biased-switch,-1,-3,right,right,0.622
SMB1998WRNO,2020-02-03-16-08-37,5,40,0.6187379914455307,left,both,biased-switch,59,-3,right,left,0.33
SMB1998WRNO,2020-02-03-16-08-37,5,41,0.649246971826883,right,probe,biased-switch,-1,24,right,right,0.313
SMB1998WRNO,2020-02-03-16-08-37,5,42,0.5200675324329491,right,both,biased-switch,59,24,right,left,0.553
SMB1998WRNO,2020-02-03-16-08-37,5,43,0.5123160111584011,left,probe,biased-switch,-1,6,right,right,0.576
SMB1998WRNO,2020-02-03-16-08-37,5,44,0.5243498929986061,left,both,biased-switch,63,6,right,left,0.238
SMB1998WRNO,2020-02-03-16-08-37,5,45,0.6749339168673578,left,probe,ambiguous-switch,-1,12,right,right,0.23
SMB1998WRNO,2020-02-03-16-08-37,5,46,0.6189742323723153,left,both,ambiguous-switch,65,12,right,right,0.506
SMB1998WRNO,2020-02-03-16-08-37,5,47,0.6183650515283045,left,probe,ambiguous-stable,-1,18,right,right,0.579
SMB1998WRNO,2020-02-03-16-08-37,5,48,0.594162413639798,left,both,ambiguous-stable,65,18,left,right,0.315
SMB1998WRNO,2020-02-03-16-08-37,5,49,0.6861021742366199,right,probe,ambiguous-stable,-1,-3,left,left,0.431
SMB1998WRNO,2020-02-03-16-08-37,5,50,0.6689732631846904,right,both,ambiguous-stable,57,-3,right,left,0.266
SMB1998WRNO,2020-02-03-16-08-37,5,51,0.5899497032340708,left,probe,biased-switch,-1,3,right,right,0.329
SMB1998WRNO,2020-02-03-16-08-37,5,52,0.617022430582667,left,both,biased-switch,54,3,right,left,0.243
SMB1998WRNO,2020-02-03-16-08-37,5,53,0.5979143132075935,right,probe,ambiguous-switch,-1,3,left,left,0.252
SMB1998WRNO,2020-02-03-16-08-37,5,54,0.6747782642194258,right,both,ambiguous-switch,60,3,left,right,0.223
SMB1998WRNO,2020-02-03-16-08-37,5,55,0.5336366428383756,left,probe,ambiguous-switch,-1,-12,right,right,0.225
SMB1998WRNO,2020-02-03-16-08-37,5,56,0.5394043775638508,left,both,ambiguous-switch,60,-12,right,right,0.259
SMB1998WRNO,2020-02-03-16-08-37,5,57,0.6827941874845649,left,probe,ambiguous-switch,-1,18,right,right,0.23
SMB1998WRNO,2020-02-03-16-08-37,5,58,0.58871302443801,left,both,ambiguous-switch,64,18,right,left,0.287
SMB1998WRNO,2020-02-03-16-08-37,5,59,0.6851686494090545,right,probe,ambiguous-switch,-1,6,right,right,0.319
SMB1998WRNO,2020-02-03-16-08-37,5,60,0.6554717811507046,right,both,ambiguous-switch,61,6,right,left,0.215
SMB1998WRNO,2020-02-03-16-08-37,6,1,0.5476967066703045,left,probe,ambiguous-stable,-1,6,right,right,0.039
SMB1998WRNO,2020-02-03-16-08-37,6,2,0.6185228640739833,left,both,ambiguous-stable,62,6,left,right,0.135
SMB1998WRNO,2020-02-03-16-08-37,6,3,0.6439119735934209,left,probe,biased-switch,-1,3,right,right,0.402
SMB1998WRNO,2020-02-03-16-08-37,6,4,0.6015240157590243,left,both,biased-switch,56,3,right,left,0.26
SMB1998WRNO,2020-02-03-16-08-37,6,5,0.6919285083986789,left,probe,ambiguous-switch,-1,3,left,left,0.317
SMB1998WRNO,2020-02-03-16-08-37,6,6,0.598865542472496,left,both,ambiguous-switch,58,3,left,right,2.744
SMB1998WRNO,2020-02-03-16-08-37,6,7,0.6086510654403852,left,probe,ambiguous-stable,-1,24,left,left,0.321
SMB1998WRNO,2020-02-03-16-08-37,6,8,0.6128018110647735,left,both,ambiguous-stable,63,24,right,left,0.277
SMB1998WRNO,2020-02-03-16-08-37,6,9,0.6334083976467495,right,probe,ambiguous-switch,-1,24,right,right,0.556
SMB1998WRNO,2020-02-03-16-08-37,6,10,0.6462653233003961,right,both,ambiguous-switch,63,24,right,left,0.306
SMB1998WRNO,2020-02-03-16-08-37,6,11,0.5656247674050099,left,probe,ambiguous-switch,-1,18,right,right,0.524
SMB1998WRNO,2020-02-03-16-08-37,6,12,0.6299607510404402,left,both,ambiguous-switch,57,18,right,left,0.304
SMB1998WRNO,2020-02-03-16-08-37,6,13,0.631045663726646,right,probe,biased-switch,-1,6,right,right,0.216
SMB1998WRNO,2020-02-03-16-08-37,6,14,0.5292462467291853,right,both,biased-switch,55,6,right,left,3.168
SMB1998WRNO,2020-02-03-16-08-37,6,15,0.6746555705096554,left,probe,biased-switch,-1,0,left,left,0.314
SMB1998WRNO,2020-02-03-16-08-37,6,16,0.6870109393195557,left,both,biased-switch,64,0,left,right,0.261
SMB1998WRNO,2020-02-03-16-08-37,6,17,0.6515843465885752,right,probe,ambiguous-switch,-1,0,left,left,0.395
SMB1998WRNO,2020-02-03-16-08-37,6,18,0.5215782774042301,right,both,ambiguous-switch,62,0,left,left,0.301
SMB1998WRNO,2020-02-03-16-08-37,6,19,0.5149750805743328,left,probe,ambiguous-stable,-1,3,left,left,0.659
SMB1998WRNO,2020-02-03-16-08-37,6,20,0.6724009611160107,left,both,ambiguous-stable,60,3,right,left,0.261
SMB1998WRNO,2020-02-03-16-08-37,6,21,0.620707547442737,left,probe,biased-switch,-1,12,left,left,0.237
SMB1998WRNO,2020-02-03-16-08-37,6,22,0.5217008565091266,left,both,biased-switch,57,12,left,left,1.806
SMB1998WRNO,2020-02-03-16-08-37,6,23,0.5357267365046402,right,probe,ambiguous-switch,-1,-18,left,left,0.453
SMB1998WRNO,2020-02-03-16-08-37,6,24,0.6774012641956347,right,both,ambiguous-switch,62,-18,left,left,0.211
SMB1998WRNO,2020-02-03-16-08-37,6,25,0.5234596568956639,left,probe,biased-switch,-1,24,right,right,0.449
SMB1998WRNO,2020-02-03-16-08-37,6,26,0.6785728713621653,left,both,biased-switch,60,24,right,left,0.37
SMB1998WRNO,2020-02-03-16-08-37,6,27,0.6894191384859509,left,probe,biased-switch,-1,-6,left,left,0.282
SMB1998WRNO,2020-02-03-16-08-37,6,28,0.547123958308765,left,both,biased-switch,63,-6,left,right,0.195
SMB1998WRNO,2020-02-03-16-08-37,6,29,0.6187088468094617,right,probe,ambiguous-stable,-1,-18,left,left,0.408
SMB1998WRNO,2020-02-03-16-08-37,6,30,0.6393026378444122,right,both,ambiguous-stable,66,-18,right,left,2.178
SMB1998WRNO,2020-02-03-16-08-37,6,31,0.5714910965470776,left,probe,ambiguous-stable,-1,-12,left,left,0.297
SMB1998WRNO,2020-02-03-16-08-37,6,32,0.6686551358961714,left,both,ambiguous-stable,61,-12,right,right,0.296
SMB1998WRNO,2020-02-03-16-08-37,6,33,0.6823448295690364,left,probe,biased-switch,-1,18,right,right,0.252
SMB1998WRNO,2020-02-03-16-08-37,6,34,0.661334484506666,left,both,biased-switch,54,18,right,left,0.281
SMB1998WRNO,2020-02-03-16-08-37,6,35,0.5983361419466445,right,probe,biased-switch,-1,-3,right,right,0.321
SMB1998WRNO,2020-02-03-16-08-37,6,36,0.5309536448894683,right,both,biased-switch,57,-3,right,left,1.385
SMB1998WRNO,2020-02-03-16-08-37,6,37,0.5864127886656914,left,probe,ambiguous-stable,-1,12,left,left,2.034
SMB1998WRNO,2020-02-03-16-08-37,6,38,0.5877863201792264,left,both,ambiguous-stable,56,12,right,right,1.929
SMB1998WRNO,2020-02-03-16-08-37,6,39,0.5088127079957906,left,probe,ambiguous-stable,-1,18,left,left,0.564
SMB1998WRNO,2020-02-03-16-08-37,6,40,0.6918556159996488,left,both,ambiguous-stable,61,18,right,left,0.333
SMB1998WRNO,2020-02-03-16-08-37,6,41,0.6826704362173811,left,probe,ambiguous-switch,-1,-12,left,left,0.003
SMB1998WRNO,2020-02-03-16-08-37,6,42,0.5181546750695397,left,both,ambiguous-switch,65,-12,left,right,0.237
SMB1998WRNO,2020-02-03-16-08-37,6,43,0.5313051884068999,right,probe,biased-switch,-1,-12,left,left,0.428
SMB1998WRNO,2020-02-03-16-08-37,6,44,0.6269840490977716,right,both,biased-switch,64,-12,left,left,0.266
SMB1998WRNO,2020-02-03-16-08-37,6,45,0.5206889215469026,right,probe,ambiguous-switch,-1,12,left,left,0.369
SMB1998WRNO,2020-02-03-16-08-37,6,46,0.5331926432825832,right,both,ambiguous-switch,56,12,left,right,0.24
SMB1998WRNO,2020-02-03-16-08-37,6,47,0.5280250654767862,right,probe,biased-switch,-1,-18,right,right,0.359
SMB1998WRNO,2020-02-03-16-08-37,6,48,0.5462992476777657,right,both,biased-switch,59,-18,right,left,0.036
SMB1998WRNO,2020-02-03-16-08-37,6,49,0.6700924782049117,right,probe,ambiguous-switch,-1,6,left,left,0.219
SMB1998WRNO,2020-02-03-16-08-37,6,50,0.6463803332202673,right,both,ambiguous-switch,66,6,left,right,1.74
SMB1998WRNO,2020-02-03-16-08-37,6,51,0.5339222698791347,left,probe,ambiguous-stable,-1,0,left,left,0.493
SMB1998WRNO,2020-02-03-16-08-37,6,52,0.6100407841602585,left,both,ambiguous-stable,65,0,right,left,0.261
SMB1998WRNO,2020-02-03-16-08-37,6,53,0.6416476362431285,right,probe,ambiguous-switch,-1,-3,right,right,0.254
SMB1998WRNO,2020-02-03-16-08-37,6,54,0.5850407501451502,right,both,ambiguous-switch,56,-3,right,right,0.209
SMB1998WRNO,2020-02-03-16-08-37,6,55,0.5481160068543713,left,probe,ambiguous-stable,-1,-6,left,left,0.409
SMB1998WRNO,2020-02-03-16-08-37,6,56,0.6771446845808451,left,both,ambiguous-stable,60,-6,right,left,0.129
SMB1998WRNO,2020-02-03-16-08-37,6,57,0.6063095954001503,left,probe,ambiguous-switch,-1,-6,right,right,0.247
SMB1998WRNO,2020-02-03-16-08-37,6,58,0.5589463108318472,left,both,ambiguous-switch,63,-6,right,left,1.774
SMB1998WRNO,2020-02-03-16-08-37,6,59,0.6714801086869995,right,probe,ambiguous-stable,-1,-3,right,right,0.293
SMB1998WRNO,2020-02-03-16-08-37,6,60,0.551504617270572,right,both,ambiguous-stable,66,-3,left,right,0.708
SMB1998WRNO,2020-02-03-16-08-37,7,1,0.5371049611981416,left,probe,ambiguous-switch,-1,-3,left,left,0.628
SMB1998WRNO,2020-02-03-16-08-37,7,2,0.6688382140389264,left,both,ambiguous-switch,65,-3,left,left,2.025
SMB1998WRNO,2020-02-03-16-08-37,7,3,0.5073612357502829,left,probe,biased-switch,-1,-3,left,left,0.604
SMB1998WRNO,2020-02-03-16-08-37,7,4,0.5639778407475504,left,both,biased-switch,64,-3,left,right,3.892
SMB1998WRNO,2020-02-03-16-08-37,7,5,0.6813906554524625,left,probe,ambiguous-switch,-1,24,left,left,0.176
SMB1998WRNO,2020-02-03-16-08-37,7,6,0.5839236472675141,left,both,ambiguous-switch,64,24,left,left,0.106
SMB1998WRNO,2020-02-03-16-08-37,7,7,0.6962604174647941,left,probe,ambiguous-stable,-1,24,left,left,0.375
SMB1998WRNO,2020-02-03-16-08-37,7,8,0.6817820352784886,left,both,ambiguous-stable,59,24,right,left,1.89
SMB1998WRNO,2020-02-03-16-08-37,7,9,0.658370216527191,left,probe,biased-switch,-1,3,left,left,0.206
SMB1998WRNO,2020-02-03-16-08-37,7,10,0.6081786731376583,left,both,biased-switch,58,3,left,right,0.206
SMB1998WRNO,2020-02-03-16-08-37,7,11,0.5713437603628045,right,probe,biased-switch,-1,0,left,left,0.415
SMB1998WRNO,2020-02-03-16-08-37,7,12,0.5858649739510619,right,both,biased-switch,57,0,left,right,0.353
SMB1998WRNO,2020-02-03-16-08-37,7,13,0.5893339830189248,right,probe,ambiguous-stable,-1,-3,right,right,0.196
SMB1998WRNO,2020-02-03-16-08-37,7,14,0.6055958058351619,right,both,ambiguous-stable,55,-3,left,right,0.176
SMB1998WRNO,2020-02-03-16-08-37,7,15,0.5797970871706873,left,probe,biased-switch,-1,24,left,left,0.464
SMB1998WRNO,2020-02-03-16-08-37,7,16,0.6670302044057947,left,both,biased-switch,60,24,left,right,0.222
SMB1998WRNO,2020-02-03-16-08-37,7,17,0.5848200527939829,left,probe,ambiguous-stable,-1,12,left,left,0.432
SMB1998WRNO,2020-02-03-16-08-37,7,18,0.6405328080467824,left,both,ambiguous-stable,58,12,right,left,0.237
SMB1998WRNO,2020-02-03-16-08-37,7,19,0.5175206775717036,right,probe,biased-switch,-1,-6,right,right,0.273
SMB1998WRNO,2020-02-03-16-08-37,7,20,0.6013366627681715,right,both,biased-switch,57,-6,right,right,0.146
SMB1998WRNO,2020-02-03-16-08-37,7,21,0.6714352202603026,left,probe,ambiguous-switch,-1,12,left,left,0.205
SMB1998WRNO,2020-02-03-16-08-37,7,22,0.6236914121469888,left,both,ambiguous-switch,60,12,left,right,0.178
SMB1998WRNO,2020-02-03-16-08-37,7,23,0.6166766076529951,left,probe,ambiguous-stable,-1,3,right,right,0.928
SMB1998WRNO,2020-02-03-16-08-37,7,24,0.6239053732707077,left,both,ambiguous-stable,54,3,left,right,0.211
SMB1998WRNO,2020-02-03-16-08-37,7,25,0.515875124962926,right,probe,ambiguous-switch,-1,0,right,right,0.789
SMB1998WRNO,2020-02-03-16-08-37,7,26,0.6269851864172795,right,both,ambiguous-switch,55,0,right,left,0.275
SMB1998WRNO,2020-02-03-16-08-37,7,27,0.6180699795285266,left,probe,ambiguous-stable,-1,18,right,right,0.22
SMB1998WRNO,2020-02-03-16-08-37,7,28,0.6402748746696122,left,both,ambiguous-stable,59,18,left,right,0.131
SMB1998WRNO,2020-02-03-16-08-37,7,29,0.691972287407966,right,probe,biased-switch,-1,12,right,right,1.356
SMB1998WRNO,2020-02-03-16-08-37,7,30,0.5052577698635136,right,both,biased-switch,61,12,right,left,0.332
SMB1998WRNO,2020-02-03-16-08-37,7,31,0.6141157385078412,right,probe,ambiguous-stable,-1,6,left,left,0.271
SMB1998WRNO,2020-02-03-16-08-37,7,32,0.5152961100986214,right,both,ambiguous-stable,62,6,right,left,0.201
SMB1998WRNO,2020-02-03-16-08-37,7,33,0.6209590509810669,left,probe,ambiguous-switch,-1,-6,right,right,1.051
SMB1998WRNO,2020-02-03-16-08-37,7,34,0.5538581006830702,left,both,ambiguous-switch,61,-6,right,right,0.306
SMB1998WRNO,2020-02-03-16-08-37,7,35,0.5527959729380676,right,probe,biased-switch,-1,-18,right,right,0.347
SMB1998WRNO,2020-02-03-16-08-37,7,36,0.5872734134017442,right,both,biased-switch,57,-18,right,left,0.381
SMB1998WRNO,2020-02-03-16-08-37,7,37,0.6645719938571164,left,probe,biased-switch,-1,-12,right,right,0.177
SMB1998WRNO,2020-02-03-16-08-37,7,38,0.517292056697826,left,both,biased-switch,65,-12,right,right,0.129
SMB1998WRNO,2020-02-03-16-08-37,7,39,0.6508442841110837,left,probe,ambiguous-switch,-1,18,right,right,0.574
SMB1998WRNO,2020-02-03-16-08-37,7,40,0.5792062960046975,left,both,ambiguous-switch,60,18,right,right,0.216
SMB1998WRNO,2020-02-03-16-08-37,7,41,0.6641825849360183,left,probe,ambiguous-stable,-1,-12,right,right,0.48
SMB1998WRNO,2020-02-03-16-08-37,7,42,0.5102821415342333,left,both,ambiguous-stable,57,-12,left,right,0.283
SMB1998WRNO,2020-02-03-16-08-37,7,43,0.699236661393771,left,probe,ambiguous-switch,-1,-18,right,right,0.325
SMB1998WRNO,2020-02-03-16-08-37,7,44,0.6382234683621612,left,both,ambiguous-switch,62,-18,right,right,1.378
SMB1998WRNO,2020-02-03-16-08-37,7,45,0.6283530377109754,left,probe,ambiguous-switch,-1,-12,right,right,0.314
SMB1998WRNO,2020-02-03-16-08-37,7,46,0.6635738298099387,left,both,ambiguous-switch,62,-12,right,right,0.19
SMB1998WRNO,2020-02-03-16-08-37,7,47,0.6571765153630182,right,probe,ambiguous-switch,-1,3,right,right,0.395
SMB1998WRNO,2020-02-03-16-08-37,7,48,0.6570358931805216,right,both,ambiguous-switch,64,3,right,right,0.166
SMB1998WRNO,2020-02-03-16-08-37,7,49,0.5156213063454622,left,probe,ambiguous-switch,-1,6,right,right,0.281
SMB1998WRNO,2020-02-03-16-08-37,7,50,0.5371394746401029,left,both,ambiguous-switch,63,6,right,left,0.257
SMB1998WRNO,2020-02-03-16-08-37,7,51,0.5832594632753352,left,probe,biased-switch,-1,6,right,right,0.204
SMB1998WRNO,2020-02-03-16-08-37,7,52,0.5431192487241069,left,both,biased-switch,65,6,right,left,0.246
SMB1998WRNO,2020-02-03-16-08-37,7,53,0.6563417750667131,left,probe,biased-switch,-1,18,right,right,0.25
SMB1998WRNO,2020-02-03-16-08-37,7,54,0.5613776281630132,left,both,biased-switch,58,18,right,right,0.172
SMB1998WRNO,2020-02-03-16-08-37,7,55,0.6258572098534041,left,probe,ambiguous-stable,-1,-18,left,left,0.267
SMB1998WRNO,2020-02-03-16-08-37,7,56,0.5630935927026781,left,both,ambiguous-stable,60,-18,right,left,0.297
SMB1998WRNO,2020-02-03-16-08-37,7,57,0.5187916122271926,left,probe,ambiguous-stable,-1,0,left,left,0.559
SMB1998WRNO,2020-02-03-16-08-37,7,58,0.6950476152867904,left,both,ambiguous-stable,63,0,right,left,0.323
SMB1998WRNO,2020-02-03-16-08-37,7,59,0.6798420125822069,right,probe,ambiguous-stable,-1,-6,right,right,0.295
SMB1998WRNO,2020-02-03-16-08-37,7,60,0.5436869679868807,right,both,ambiguous-stable,55,-6,left,left,0.288
SMB1998WRNO,2020-02-03-16-08-37,8,1,0.6613008921189445,right,probe,biased-switch,-1,-12,left,left,0.373
SMB1998WRNO,2020-02-03-16-08-37,8,2,0.6438729559701626,right,both,biased-switch,56,-12,left,right,0.365
SMB1998WRNO,2020-02-03-16-08-37,8,3,0.6515993350941808,right,probe,ambiguous-stable,-1,12,right,right,0.213
SMB1998WRNO,2020-02-03-16-08-37,8,4,0.6503291233473637,right,both,ambiguous-stable,55,12,left,right,0.203
SMB1998WRNO,2020-02-03-16-08-37,8,5,0.6782447426242345,left,probe,biased-switch,-1,-18,left,left,0.513
SMB1998WRNO,2020-02-03-16-08-37,8,6,0.6452787632465139,left,both,biased-switch,64,-18,left,left,0.257
SMB1998WRNO,2020-02-03-16-08-37,8,7,0.5236373793555347,right,probe,ambiguous-stable,-1,-18,right,right,0.428
SMB1998WRNO,2020-02-03-16-08-37,8,8,0.6522425734154029,right,both,ambiguous-stable,57,-18,left,right,0.421
SMB1998WRNO,2020-02-03-16-08-37,8,9,0.5655684424729822,left,probe,ambiguous-switch,-1,-18,left,left,0.474
SMB1998WRNO,2020-02-03-16-08-37,8,10,0.6120546292556572,left,both,ambiguous-switch,56,-18,left,right,0.238
SMB1998WRNO,2020-02-03-16-08-37,8,11,0.632825458378963,right,probe,ambiguous-stable,-1,3,left,left,0.309
SMB1998WRNO,2020-02-03-16-08-37,8,12,0.621767896706536,right,both,ambiguous-stable,59,3,right,left,0.275
SMB1998WRNO,2020-02-03-16-08-37,8,13,0.5002017301364334,left,probe,ambiguous-switch,-1,0,right,right,0.249
SMB1998WRNO,2020-02-03-16-08-37,8,14,0.6950657395481914,left,both,ambiguous-switch,63,0,right,left,0.22
SMB1998WRNO,2020-02-03-16-08-37,8,15,0.6737174641155006,right,probe,ambiguous-stable,-1,-3,right,right,0.213
SMB1998WRNO,2020-02-03-16-08-37,8,16,0.6229980358874285,right,both,ambiguous-stable,63,-3,left,right,0.235
SMB1998WRNO,2020-02-03-16-08-37,8,17,0.6904089281321891,right,probe,ambiguous-switch,-1,-3,right,right,0.25
SMB1998WRNO,2020-02-03-16-08-37,8,18,0.6528894785805055,right,both,ambiguous-switch,60,-3,right,right,0.201
SMB1998WRNO,2020-02-03-16-08-37,8,19,0.5154520144656028,left,probe,ambiguous-switch,-1,-6,right,right,1.755
SMB1998WRNO,2020-02-03-16-08-37,8,20,0.5191908656816719,left,both,ambiguous-switch,61,-6,right,right,0.273
SMB1998WRNO,2020-02-03-16-08-37,8,21,0.6437595032910556,left,probe,ambiguous-stable,-1,0,right,right,8.858
SMB1998WRNO,2020-02-03-16-08-37,8,22,0.6486772144941109,left,both,ambiguous-stable,62,0,left,right,0.437
SMB1998WRNO,2020-02-03-16-08-37,8,23,0.6959027726642166,left,probe,biased-switch,-1,3,right,right,0.255
SMB1998WRNO,2020-02-03-16-08-37,8,24,0.5745920442248567,left,both,biased-switch,60,3,right,left,0.365
SMB1998WRNO,2020-02-03-16-08-37,8,25,0.5295339506617897,left,probe,ambiguous-stable,-1,24,right,right,0.23
SMB1998WRNO,2020-02-03-16-08-37,8,26,0.675408850309116,left,both,ambiguous-stable,63,24,left,right,0.25
SMB1998WRNO,2020-02-03-16-08-37,8,27,0.6283044548474679,right,probe,ambiguous-stable,-1,-6,left,left,0.642
SMB1998WRNO,2020-02-03-16-08-37,8,28,0.6781491622561522,right,both,ambiguous-stable,61,-6,right,left,1.433
SMB1998WRNO,2020-02-03-16-08-37,8,29,0.5054170890739813,right,probe,biased-switch,-1,6,left,left,0.256
SMB1998WRNO,2020-02-03-16-08-37,8,30,0.6477307454689041,right,both,biased-switch,58,6,left,right,0.201
SMB1998WRNO,2020-02-03-16-08-37,8,31,0.6118617255465999,left,probe,biased-switch,-1,24,left,left,0.209
SMB1998WRNO,2020-02-03-16-08-37,8,32,0.6991146538663724,left,both,biased-switch,59,24,left,right,0.227
SMB1998WRNO,2020-02-03-16-08-37,8,33,0.5215529029568277,right,probe,ambiguous-switch,-1,6,left,left,0.236
SMB1998WRNO,2020-02-03-16-08-37,8,34,0.5869294093855555,right,both,ambiguous-switch,58,6,left,right,0.186
SMB1998WRNO,2020-02-03-16-08-37,8,35,0.6932442265842107,left,probe,ambiguous-switch,-1,12,left,left,0.302
SMB1998WRNO,2020-02-03-16-08-37,8,36,0.5595688467786457,left,both,ambiguous-switch,58,12,left,right,0.295
SMB1998WRNO,2020-02-03-16-08-37,8,37,0.6290211893874053,right,probe,ambiguous-stable,-1,6,left,left,0.395
SMB1998WRNO,2020-02-03-16-08-37,8,38,0.6388851379799906,right,both,ambiguous-stable,65,6,right,left,0.356
SMB1998WRNO,2020-02-03-16-08-37,8,39,0.5841159800655195,left,probe,ambiguous-stable,-1,18,right,right,0.394
SMB1998WRNO,2020-02-03-16-08-37,8,40,0.6477943013439048,left,both,ambiguous-stable,63,18,left,left,0.504
SMB1998WRNO,2020-02-03-16-08-37,8,41,0.6920089521025125,right,probe,biased-switch,-1,-3,left,left,0.273
SMB1998WRNO,2020-02-03-16-08-37,8,42,0.5879530771898586,right,both,biased-switch,55,-3,left,right,0.236
SMB1998WRNO,2020-02-03-16-08-37,8,43,0.6547395922016135,right,probe,biased-switch,-1,0,left,left,0.326
SMB1998WRNO,2020-02-03-16-08-37,8,44,0.5818987246459921,right,both,biased-switch,58,0,left,right,0.173
SMB1998WRNO,2020-02-03-16-08-37,8,45,0.6831982207679947,right,probe,ambiguous-stable,-1,-12,right,right,0.635
SMB1998WRNO,2020-02-03-16-08-37,8,46,0.6543755673724599,right,both,ambiguous-stable,54,-12,left,left,0.236
SMB1998WRNO,2020-02-03-16-08-37,8,47,0.5564264216203917,left,probe,ambiguous-switch,-1,24,left,left,0.403
SMB1998WRNO,2020-02-03-16-08-37,8,48,0.6594549043138525,left,both,ambiguous-switch,60,24,left,left,2.205
SMB1998WRNO,2020-02-03-16-08-37,8,49,0.6084375397790738,left,probe,ambiguous-switch,-1,18,left,left,0.525
SMB1998WRNO,2020-02-03-16-08-37,8,50,0.5485256908037076,left,both,ambiguous-switch,61,18,left,right,0.215
SMB1998WRNO,2020-02-03-16-08-37,8,51,0.6225070203508338,right,probe,ambiguous-switch,-1,3,left,left,0.486
SMB1998WRNO,2020-02-03-16-08-37,8,52,0.5857672881166478,right,both,ambiguous-switch,59,3,left,right,0.26
SMB1998WRNO,2020-02-03-16-08-37,8,53,0.6045912470184421,right,probe,biased-switch,-1,-6,left,left,0.231
SMB1998WRNO,2020-02-03-16-08-37,8,54,0.6287161380547718,right,both,biased-switch,60,-6,left,right,0.201
SMB1998WRNO,2020-02-03-16-08-37,8,55,0.693461534081265,left,probe,ambiguous-switch,-1,-12,left,left,0.178
SMB1998WRNO,2020-02-03-16-08-37,8,56,0.5246856507106877,left,both,ambiguous-switch,55,-12,left,left,0.512
SMB1998WRNO,2020-02-03-16-08-37,8,57,0.69617555558299,right,probe,biased-switch,-1,12,left,left,1.143
SMB1998WRNO,2020-02-03-16-08-37,8,58,0.5741884746288024,right,both,biased-switch,66,12,left,right,0.209
SMB1998WRNO,2020-02-03-16-08-37,8,59,0.5870024027289769,right,probe,biased-switch,-1,18,right,right,3.449
SMB1998WRNO,2020-02-03-16-08-37,8,60,0.5236923835671798,right,both,biased-switch,56,18,right,left,1.152
SMB1998WRNO,2020-02-03-16-08-37,9,1,0.5065000956473275,right,probe,ambiguous-stable,-1,18,right,right,0.307
SMB1998WRNO,2020-02-03-16-08-37,9,2,0.6238896557094479,right,both,ambiguous-stable,60,18,left,right,1.857
SMB1998WRNO,2020-02-03-16-08-37,9,3,0.5741168974726136,right,probe,biased-switch,-1,-6,right,right,0.22
SMB1998WRNO,2020-02-03-16-08-37,9,4,0.6555060011112084,right,both,biased-switch,62,-6,right,right,0.23
SMB1998WRNO,2020-02-03-16-08-37,9,5,0.6661784465340286,left,probe,ambiguous-switch,-1,12,right,right,0.486
SMB1998WRNO,2020-02-03-16-08-37,9,6,0.5715062822277178,left,both,ambiguous-switch,66,12,right,left,0.257
SMB1998WRNO,2020-02-03-16-08-37,9,7,0.5633134581294624,right,probe,ambiguous-switch,-1,-6,right,right,0.25
SMB1998WRNO,2020-02-03-16-08-37,9,8,0.5486369231137371,right,both,ambiguous-switch,58,-6,right,right,0.204
SMB1998WRNO,2020-02-03-16-08-37,9,9,0.6458159792827602,left,probe,biased-switch,-1,-12,right,right,0.218
SMB1998WRNO,2020-02-03-16-08-37,9,10,0.5262989648911801,left,both,biased-switch,59,-12,right,right,0.059
SMB1998WRNO,2020-02-03-16-08-37,9,11,0.6899240994843436,right,probe,biased-switch,-1,3,right,right,0.244
SMB1998WRNO,2020-02-03-16-08-37,9,12,0.514156029362641,right,both,biased-switch,63,3,right,left,1.08
SMB1998WRNO,2020-02-03-16-08-37,9,13,0.5459553826481006,right,probe,ambiguous-stable,-1,6,right,right,0.174
SMB1998WRNO,2020-02-03-16-08-37,9,14,0.6015095649819384,right,both,ambiguous-stable,54,6,left,right,1.743
SMB1998WRNO,2020-02-03-16-08-37,9,15,0.6549053324279419,left,probe,biased-switch,-1,12,left,left,0.578
SMB1998WRNO,2020-02-03-16-08-37,9,16,0.6034147611759234,left,both,biased-switch,54,12,left,right,0.249
SMB1998WRNO,2020-02-03-16-08-37,9,17,0.5379744610578369,right,probe,ambiguous-stable,-1,-3,right,right,0.244
SMB1998WRNO,2020-02-03-16-08-37,9,18,0.5936428970726537,right,both,ambiguous-stable,63,-3,left,right,0.163
SMB1998WRNO,2020-02-03-16-08-37,9,19,0.6269667606121314,right,probe,biased-switch,-1,-18,left,left,0.44
SMB1998WRNO,2020-02-03-16-08-37,9,20,0.6214037951570737,right,both,biased-switch,62,-18,left,right,0.35
SMB1998WRNO,2020-02-03-16-08-37,9,21,0.5662869150695347,left,probe,biased-switch,-1,6,left,left,0.467
SMB1998WRNO,2020-02-03-16-08-37,9,22,0.5836848391659349,left,both,biased-switch,64,6,left,right,0.203
SMB1998WRNO,2020-02-03-16-08-37,9,23,0.6635085131071768,left,probe,ambiguous-switch,-1,18,left,left,0.219
SMB1998WRNO,2020-02-03-16-08-37,9,24,0.5499909060085679,left,both,ambiguous-switch,55,18,left,right,0.689
SMB1998WRNO,2020-02-03-16-08-37,9,25,0.5040099477027933,left,probe,ambiguous-stable,-1,-6,right,right,0.275
SMB1998WRNO,2020-02-03-16-08-37,9,26,0.6682537491157627,left,both,ambiguous-stable,60,-6,left,right,0.219
SMB1998WRNO,2020-02-03-16-08-37,9,27,0.5593421735941565,right,probe,ambiguous-switch,-1,0,left,left,0.332
SMB1998WRNO,2020-02-03-16-08-37,9,28,0.6525557363964821,right,both,ambiguous-switch,57,0,left,right,0.198
SMB1998WRNO,2020-02-03-16-08-37,9,29,0.6875286057843992,right,probe,biased-switch,-1,24,right,right,0.241
SMB1998WRNO,2020-02-03-16-08-37,9,30,0.568795612503552,right,both,biased-switch,62,24,right,right,0.222
SMB1998WRNO,2020-02-03-16-08-37,9,31,0.5602459918682213,left,probe,biased-switch,-1,18,right,right,0.235
SMB1998WRNO,2020-02-03-16-08-37,9,32,0.571340786886462,left,both,biased-switch,60,18,right,right,0.153
SMB1998WRNO,2020-02-03-16-08-37,9,33,0.6887471613786373,left,probe,ambiguous-switch,-1,-3,right,right,0.194
SMB1998WRNO,2020-02-03-16-08-37,9,34,0.5675584543907254,left,both,ambiguous-switch,59,-3,right,right,0.232
SMB1998WRNO,2020-02-03-16-08-37,9,35,0.5642414123415267,right,probe,ambiguous-stable,-1,-18,right,right,0.404
SMB1998WRNO,2020-02-03-16-08-37,9,36,0.6775666730484912,right,both,ambiguous-stable,58,-18,left,right,0.215
SMB1998WRNO,2020-02-03-16-08-37,9,37,0.5346781563524584,right,probe,biased-switch,-1,-3,right,right,0.205
SMB1998WRNO,2020-02-03-16-08-37,9,38,0.6575623164701823,right,both,biased-switch,54,-3,right,left,0.258
SMB1998WRNO,2020-02-03-16-08-37,9,39,0.6151610190966881,right,probe,ambiguous-switch,-1,24,right,right,0.195
SMB1998WRNO,2020-02-03-16-08-37,9,40,0.6983357333416931,right,both,ambiguous-switch,60,24,right,right,0.098
SMB1998WRNO,2020-02-03-16-08-37,9,41,0.5467650899834211,left,probe,ambiguous-switch,-1,3,right,right,0.223
SMB1998WRNO,2020-02-03-16-08-37,9,42,0.6063718768547611,left,both,ambiguous-switch,60,3,right,left,0.326
SMB1998WRNO,2020-02-03-16-08-37,9,43,0.5527837742588071,right,probe,ambiguous-switch,-1,6,right,right,0.353
SMB1998WRNO,2020-02-03-16-08-37,9,44,0.5356423104292856,right,both,ambiguous-switch,58,6,right,left,0.436
SMB1998WRNO,2020-02-03-16-08-37,9,45,0.5510726201921243,right,probe,ambiguous-stable,-1,0,right,right,0.263
SMB1998WRNO,2020-02-03-16-08-37,9,46,0.6742993840989713,right,both,ambiguous-stable,58,0,left,right,0.23
SMB1998WRNO,2020-02-03-16-08-37,9,47,0.5893417602121008,left,probe,ambiguous-stable,-1,24,right,right,0.027
SMB1998WRNO,2020-02-03-16-08-37,9,48,0.5092726098103252,left,both,ambiguous-stable,61,24,left,right,0.202
SMB1998WRNO,2020-02-03-16-08-37,9,49,0.5198015646655332,right,probe,ambiguous-stable,-1,-12,right,right,0.522
SMB1998WRNO,2020-02-03-16-08-37,9,50,0.6527976937363753,right,both,ambiguous-stable,63,-12,left,right,0.267
SMB1998WRNO,2020-02-03-16-08-37,9,51,0.6827658989222328,left,probe,biased-switch,-1,0,right,right,0.587
SMB1998WRNO,2020-02-03-16-08-37,9,52,0.651497213305877,left,both,biased-switch,58,0,right,left,0.28
SMB1998WRNO,2020-02-03-16-08-37,9,53,0.5641096453957973,left,probe,ambiguous-stable,-1,3,right,right,0.247
SMB1998WRNO,2020-02-03-16-08-37,9,54,0.5445668595318226,left,both,ambiguous-stable,57,3,left,right,0.02
SMB1998WRNO,2020-02-03-16-08-37,9,55,0.534523582384231,left,probe,ambiguous-switch,-1,-18,left,left,0.16
SMB1998WRNO,2020-02-03-16-08-37,9,56,0.6859204134584054,left,both,ambiguous-switch,55,-18,left,right,2.245
SMB1998WRNO,2020-02-03-16-08-37,9,57,0.5506061072200481,right,probe,ambiguous-stable,-1,12,right,right,0.213
SMB1998WRNO,2020-02-03-16-08-37,9,58,0.6143880718844708,right,both,ambiguous-stable,62,12,left,right,2.124
SMB1998WRNO,2020-02-03-16-08-37,9,59,0.5211221290757518,left,probe,ambiguous-switch,-1,-12,right,right,0.253
SMB1998WRNO,2020-02-03-16-08-37,9,60,0.6487258421714857,left,both,ambiguous-switch,64,-12,right,right,0.091
SMB1998WRNO,2020-02-03-16-08-37,10,1,0.6213742474439033,left,probe,biased-switch,-1,-3,right,right,1.322
SMB1998WRNO,2020-02-03-16-08-37,10,2,0.5007634560403199,left,both,biased-switch,64,-3,right,right,0.919
SMB1998WRNO,2020-02-03-16-08-37,10,3,0.5217313095296137,left,probe,biased-switch,-1,3,right,right,0.215
SMB1998WRNO,2020-02-03-16-08-37,10,4,0.6100553069629249,left,both,biased-switch,61,3,right,left,0.203
SMB1998WRNO,2020-02-03-16-08-37,10,5,0.5546455981203707,left,probe,biased-switch,-1,12,right,right,0.204
SMB1998WRNO,2020-02-03-16-08-37,10,6,0.5110885568273337,left,both,biased-switch,59,12,right,right,0.065
SMB1998WRNO,2020-02-03-16-08-37,10,7,0.5375603829758487,right,probe,biased-switch,-1,0,right,right,0.281
SMB1998WRNO,2020-02-03-16-08-37,10,8,0.6438268919513265,right,both,biased-switch,64,0,right,left,0.252
SMB1998WRNO,2020-02-03-16-08-37,10,9,0.6238875220437992,right,probe,ambiguous-switch,-1,-3,right,right,0.192
SMB1998WRNO,2020-02-03-16-08-37,10,10,0.6150624412682998,right,both,ambiguous-switch,57,-3,right,right,0.158
SMB1998WRNO,2020-02-03-16-08-37,10,11,0.5237896584292745,left,probe,ambiguous-switch,-1,-18,right,right,0.252
SMB1998WRNO,2020-02-03-16-08-37,10,12,0.5021117722582592,left,both,ambiguous-switch,54,-18,right,right,3.768
SMB1998WRNO,2020-02-03-16-08-37,10,13,0.5905382851010295,left,probe,ambiguous-stable,-1,6,right,right,1.013
SMB1998WRNO,2020-02-03-16-08-37,10,14,0.5517619807178232,left,both,ambiguous-stable,58,6,left,left,0.662
SMB1998WRNO,2020-02-03-16-08-37,10,15,0.6590313779611082,right,probe,ambiguous-stable,-1,3,left,left,0.202
SMB1998WRNO,2020-02-03-16-08-37,10,16,0.6714253717573663,right,both,ambiguous-stable,59,3,right,left,2.095
SMB1998WRNO,2020-02-03-16-08-37,10,17,0.5816457246342815,left,probe,biased-switch,-1,6,right,right,0.185
SMB1998WRNO,2020-02-03-16-08-37,10,18,0.5738133176821942,left,both,biased-switch,64,6,right,left,0.19
SMB1998WRNO,2020-02-03-16-08-37,10,19,0.6692171458416383,left,probe,biased-switch,-1,-6,left,left,2.664
SMB1998WRNO,2020-02-03-16-08-37,10,20,0.6172925323176716,left,both,biased-switch,60,-6,left,right,0.063
SMB1998WRNO,2020-02-03-16-08-37,10,21,0.637834146577114,right,probe,ambiguous-switch,-1,-6,right,right,0.462
SMB1998WRNO,2020-02-03-16-08-37,10,22,0.55944065790581,right,both,ambiguous-switch,56,-6,right,left,0.254
SMB1998WRNO,2020-02-03-16-08-37,10,23,0.6477498284204743,right,probe,biased-switch,-1,24,right,right,0.278
SMB1998WRNO,2020-02-03-16-08-37,10,24,0.5189507259083671,right,both,biased-switch,55,24,right,right,0.297
SMB1998WRNO,2020-02-03-16-08-37,10,25,0.5906995766892035,left,probe,ambiguous-stable,-1,-6,right,right,0.211
SMB1998WRNO,2020-02-03-16-08-37,10,26,0.5272829597662765,left,both,ambiguous-stable,57,-6,left,right,0.336
SMB1998WRNO,2020-02-03-16-08-37,10,27,0.6201153611415716,left,probe,ambiguous-stable,-1,-3,right,right,0.192
SMB1998WRNO,2020-02-03-16-08-37,10,28,0.6459077840870546,left,both,ambiguous-stable,58,-3,left,right,0.102
SMB1998WRNO,2020-02-03-16-08-37,10,29,0.6165063990274275,right,probe,ambiguous-switch,-1,-12,right,right,0.171
SMB1998WRNO,2020-02-03-16-08-37,10,30,0.5143700245236293,right,both,ambiguous-switch,56,-12,right,right,0.203
SMB1998WRNO,2020-02-03-16-08-37,10,31,0.6730589916195756,left,probe,ambiguous-switch,-1,12,right,right,0.318
SMB1998WRNO,2020-02-03-16-08-37,10,32,0.6927561219564784,left,both,ambiguous-switch,60,12,right,left,0.066
SMB1998WRNO,2020-02-03-16-08-37,10,33,0.5297631964516829,left,probe,ambiguous-switch,-1,0,right,right,0.357
SMB1998WRNO,2020-02-03-16-08-37,10,34,0.5515670672724089,left,both,ambiguous-switch,62,0,right,left,0.246
SMB1998WRNO,2020-02-03-16-08-37,10,35,0.6866136720850409,left,probe,ambiguous-switch,-1,18,right,right,0.188
SMB1998WRNO,2020-02-03-16-08-37,10,36,0.6844862649111338,left,both,ambiguous-switch,59,18,right,left,0.224
SMB1998WRNO,2020-02-03-16-08-37,10,37,0.5253076955095719,left,probe,ambiguous-switch,-1,24,right,right,0.25
SMB1998WRNO,2020-02-03-16-08-37,10,38,0.5185995659196555,left,both,ambiguous-switch,61,24,right,left,0.231
SMB1998WRNO,2020-02-03-16-08-37,10,39,0.5361649951769898,left,probe,ambiguous-stable,-1,18,left,left,0.324
SMB1998WRNO,2020-02-03-16-08-37,10,40,0.578736880875271,left,both,ambiguous-stable,63,18,right,left,1.094
SMB1998WRNO,2020-02-03-16-08-37,10,41,0.6100815017975313,left,probe,ambiguous-stable,-1,24,right,right,0.3
SMB1998WRNO,2020-02-03-16-08-37,10,42,0.550704605809398,left,both,ambiguous-stable,59,24,left,left,0.19
SMB1998WRNO,2020-02-03-16-08-37,10,43,0.6217933491305618,left,probe,ambiguous-switch,-1,3,left,left,0.181
SMB1998WRNO,2020-02-03-16-08-37,10,44,0.5061254522133161,left,both,ambiguous-switch,63,3,left,left,0.094
SMB1998WRNO,2020-02-03-16-08-37,10,45,0.6214710317039581,left,probe,biased-switch,-1,-12,left,left,0.2
SMB1998WRNO,2020-02-03-16-08-37,10,46,0.5468373201517835,left,both,biased-switch,64,-12,left,left,0.108
SMB1998WRNO,2020-02-03-16-08-37,10,47,0.5639325171814212,right,probe,ambiguous-stable,-1,-12,left,left,0.581
SMB1998WRNO,2020-02-03-16-08-37,10,48,0.6376935966494716,right,both,ambiguous-stable,64,-12,right,left,0.331
SMB1998WRNO,2020-02-03-16-08-37,10,49,0.572468907821829,left,probe,ambiguous-stable,-1,-18,left,left,0.28
SMB1998WRNO,2020-02-03-16-08-37,10,50,0.6745663128377084,left,both,ambiguous-stable,62,-18,right,left,0.334
SMB1998WRNO,2020-02-03-16-08-37,10,51,0.5921190452957337,right,probe,biased-switch,-1,18,left,left,0.203
SMB1998WRNO,2020-02-03-16-08-37,10,52,0.6378872214568212,right,both,biased-switch,62,18,left,right,0.246
SMB1998WRNO,2020-02-03-16-08-37,10,53,0.6321014299133607,left,probe,ambiguous-stable,-1,0,left,left,0.239
SMB1998WRNO,2020-02-03-16-08-37,10,54,0.6021163386137689,left,both,ambiguous-stable,54,0,right,left,0.165
SMB1998WRNO,2020-02-03-16-08-37,10,55,0.6001955505206324,left,probe,ambiguous-stable,-1,12,left,left,0.204
SMB1998WRNO,2020-02-03-16-08-37,10,56,0.5955457947281598,left,both,ambiguous-stable,63,12,right,left,0.222
SMB1998WRNO,2020-02-03-16-08-37,10,57,0.6639344654564041,left,probe,biased-switch,-1,-18,left,left,0.38
SMB1998WRNO,2020-02-03-16-08-37,10,58,0.5864123029694033,left,both,biased-switch,64,-18,left,left,0.209
SMB1998WRNO,2020-02-03-16-08-37,10,59,0.5228280246746269,left,probe,ambiguous-switch,-1,6,left,left,0.224
SMB1998WRNO,2020-02-03-16-08-37,10,60,0.6550119617894994,left,both,ambiguous-switch,61,6,left,left,0.393
