Participant,Session,Block,Trial,OnsetDelay,ProbeLocation,WhatIsReported,Condition,TriggerTime,ProbeSOA,PrimeDirection,Response,RT
MSB1996WRNO,2019-09-26-10-40-03,1,1,0.6283648187308826,left,probe,ambiguous-switch,-1,10,left,left,0.701
MSB1996WRNO,2019-09-26-10-40-03,1,2,0.6735218837096449,left,both,ambiguous-switch,93,10,left,right,0.308
MSB1996WRNO,2019-09-26-10-40-03,1,3,0.6639633495012499,right,probe,biased-switch,-1,-5,left,left,0.935
MSB1996WRNO,2019-09-26-10-40-03,1,4,0.5095855548782576,right,both,biased-switch,102,-5,left,left,0.318
MSB1996WRNO,2019-09-26-10-40-03,1,5,0.5245216666377223,right,probe,biased-switch,-1,-20,right,right,0.376
MSB1996WRNO,2019-09-26-10-40-03,1,6,0.6825901694599047,right,both,biased-switch,94,-20,right,left,0.232
MSB1996WRNO,2019-09-26-10-40-03,1,7,0.6533937192272401,right,probe,ambiguous-stable,-1,-10,right,right,0.442
MSB1996WRNO,2019-09-26-10-40-03,1,8,0.6185812959912612,right,both,ambiguous-stable,100,-10,left,left,0.852
MSB1996WRNO,2019-09-26-10-40-03,1,9,0.5316853729696693,left,probe,biased-switch,-1,40,left,left,0.321
MSB1996WRNO,2019-09-26-10-40-03,1,10,0.6306583285452955,left,both,biased-switch,93,40,left,left,0.373
MSB1996WRNO,2019-09-26-10-40-03,1,11,0.6601519090773307,right,probe,ambiguous-stable,-1,0,right,right,0.415
MSB1996WRNO,2019-09-26-10-40-03,1,12,0.5691412265860484,right,both,ambiguous-stable,97,0,left,right,0.229
MSB1996WRNO,2019-09-26-10-40-03,1,13,0.6468327154400286,left,probe,ambiguous-switch,-1,-20,left,left,0.312
MSB1996WRNO,2019-09-26-10-40-03,1,14,0.55770344009643,left,both,ambiguous-switch,95,-20,left,right,0.192
MSB1996WRNO,2019-09-26-10-40-03,1,15,0.5457595678495781,right,probe,biased-switch,-1,-10,right,right,0.335
MSB1996WRNO,2019-09-26-10-40-03,1,16,0.6215889349637808,right,both,biased-switch,94,-10,right,right,0.187
MSB1996WRNO,2019-09-26-10-40-03,1,17,0.5535854337163809,left,probe,ambiguous-stable,-1,40,left,left,0.366
MSB1996WRNO,2019-09-26-10-40-03,1,18,0.5275224568482415,left,both,ambiguous-stable,109,40,right,left,0.223
MSB1996WRNO,2019-09-26-10-40-03,1,19,0.5841674197563862,right,probe,ambiguous-switch,-1,-30,right,right,0.339
MSB1996WRNO,2019-09-26-10-40-03,1,20,0.5280812185307779,right,both,ambiguous-switch,91,-30,right,right,0.208
MSB1996WRNO,2019-09-26-10-40-03,1,21,0.5793355758300841,left,probe,biased-switch,-1,0,left,left,0.319
MSB1996WRNO,2019-09-26-10-40-03,1,22,0.6910409340445512,left,both,biased-switch,95,0,left,right,0.17
MSB1996WRNO,2019-09-26-10-40-03,1,23,0.6786795995556967,left,probe,biased-switch,-1,5,left,left,0.249
MSB1996WRNO,2019-09-26-10-40-03,1,24,0.5062604753605253,left,both,biased-switch,105,5,left,right,0.189
MSB1996WRNO,2019-09-26-10-40-03,1,25,0.6087050425748917,right,probe,ambiguous-stable,-1,30,right,right,0.197
MSB1996WRNO,2019-09-26-10-40-03,1,26,0.6203227824657543,right,both,ambiguous-stable,102,30,left,right,0.189
MSB1996WRNO,2019-09-26-10-40-03,1,27,0.6715663528633569,left,probe,biased-switch,-1,30,left,left,0.284
MSB1996WRNO,2019-09-26-10-40-03,1,28,0.5099162910163845,left,both,biased-switch,99,30,left,left,0.224
MSB1996WRNO,2019-09-26-10-40-03,1,29,0.6048788743875615,left,probe,ambiguous-switch,-1,30,left,left,0.266
MSB1996WRNO,2019-09-26-10-40-03,1,30,0.6385037520265784,left,both,ambiguous-switch,90,30,left,left,0.286
MSB1996WRNO,2019-09-26-10-40-03,1,31,0.6216451485845702,right,probe,ambiguous-stable,-1,5,right,right,0.195
MSB1996WRNO,2019-09-26-10-40-03,1,32,0.6584176661598959,right,both,ambiguous-stable,100,5,left,right,0.191
MSB1996WRNO,2019-09-26-10-40-03,1,33,0.6894061497472188,right,probe,ambiguous-stable,-1,-20,right,right,0.358
MSB1996WRNO,2019-09-26-10-40-03,1,34,0.6172548455363829,right,both,ambiguous-stable,97,-20,left,right,0.14
MSB1996WRNO,2019-09-26-10-40-03,1,35,0.5000741565055575,left,probe,ambiguous-stable,-1,20,left,left,0.346
MSB1996WRNO,2019-09-26-10-40-03,1,36,0.586595619338016,left,both,ambiguous-stable,105,20,right,left,0.179
MSB1996WRNO,2019-09-26-10-40-03,1,37,0.5225906667537615,right,probe,ambiguous-switch,-1,40,right,right,0.487
MSB1996WRNO,2019-09-26-10-40-03,1,38,0.6079445069571454,right,both,ambiguous-switch,97,40,right,right,0.184
MSB1996WRNO,2019-09-26-10-40-03,1,39,0.512205518480543,right,probe,ambiguous-switch,-1,0,right,right,0.192
MSB1996WRNO,2019-09-26-10-40-03,1,40,0.5762644092392942,right,both,ambiguous-switch,102,0,right,right,0.181
MSB1996WRNO,2019-09-26-10-40-03,1,41,0.6451486098690404,right,probe,ambiguous-switch,-1,-5,right,right,0.427
MSB1996WRNO,2019-09-26-10-40-03,1,42,0.5552970509467101,right,both,ambiguous-switch,102,-5,right,right,0.156
MSB1996WRNO,2019-09-26-10-40-03,1,43,0.677473024841739,left,probe,ambiguous-stable,-1,-5,right,right,0.903
MSB1996WRNO,2019-09-26-10-40-03,1,44,0.5008844829785863,left,both,ambiguous-stable,99,-5,left,left,0.176
MSB1996WRNO,2019-09-26-10-40-03,1,45,0.5096200495504488,left,probe,ambiguous-switch,-1,20,left,left,0.28
MSB1996WRNO,2019-09-26-10-40-03,1,46,0.6213846430745009,left,both,ambiguous-switch,103,20,left,left,0.155
MSB1996WRNO,2019-09-26-10-40-03,1,47,0.5943469339420077,right,probe,biased-switch,-1,20,right,right,0.329
MSB1996WRNO,2019-09-26-10-40-03,1,48,0.6584316805981887,right,both,biased-switch,98,20,right,right,0.197
MSB1996WRNO,2019-09-26-10-40-03,1,49,0.5133965370054717,right,probe,ambiguous-switch,-1,5,right,right,0.245
MSB1996WRNO,2019-09-26-10-40-03,1,50,0.6098117721191962,right,both,ambiguous-switch,99,5,right,left,0.12
MSB1996WRNO,2019-09-26-10-40-03,1,51,0.625283928778736,right,probe,biased-switch,-1,-30,right,right,0.279
MSB1996WRNO,2019-09-26-10-40-03,1,52,0.5687586562215985,right,both,biased-switch,93,-30,right,right,0.158
MSB1996WRNO,2019-09-26-10-40-03,1,53,0.6826773346291533,left,probe,biased-switch,-1,10,left,left,0.24
MSB1996WRNO,2019-09-26-10-40-03,1,54,0.5826372172716433,left,both,biased-switch,106,10,left,right,0.144
MSB1996WRNO,2019-09-26-10-40-03,1,55,0.5487575702948055,right,probe,ambiguous-stable,-1,-30,right,right,0.197
MSB1996WRNO,2019-09-26-10-40-03,1,56,0.6689836788745195,right,both,ambiguous-stable,110,-30,left,right,0.215
MSB1996WRNO,2019-09-26-10-40-03,1,57,0.5211458988240709,left,probe,ambiguous-stable,-1,10,left,left,0.248
MSB1996WRNO,2019-09-26-10-40-03,1,58,0.607429200243016,left,both,ambiguous-stable,100,10,right,left,0.142
MSB1996WRNO,2019-09-26-10-40-03,1,59,0.5397359258750418,right,probe,ambiguous-switch,-1,-10,right,right,0.308
MSB1996WRNO,2019-09-26-10-40-03,1,60,0.5113683848249071,right,both,ambiguous-switch,107,-10,right,right,0.126
MSB1996WRNO,2019-09-26-10-40-03,2,1,0.5245586280771448,left,probe,biased-switch,-1,30,left,left,0.203
MSB1996WRNO,2019-09-26-10-40-03,2,2,0.5891674586527966,left,both,biased-switch,100,30,left,left,0.172
MSB1996WRNO,2019-09-26-10-40-03,2,3,0.5862159738012837,left,probe,ambiguous-stable,-1,-10,left,left,0.186
MSB1996WRNO,2019-09-26-10-40-03,2,4,0.6122495089097664,left,both,ambiguous-stable,101,-10,right,left,0.154
MSB1996WRNO,2019-09-26-10-40-03,2,5,0.6174800394880048,right,probe,ambiguous-switch,-1,-30,right,right,0.164
MSB1996WRNO,2019-09-26-10-40-03,2,6,0.6688291274164487,right,both,ambiguous-switch,104,-30,right,right,1.185
MSB1996WRNO,2019-09-26-10-40-03,2,7,0.6907384950085402,right,probe,ambiguous-switch,-1,10,right,right,0.205
MSB1996WRNO,2019-09-26-10-40-03,2,8,0.5002618305666746,right,both,ambiguous-switch,102,10,right,left,0.172
MSB1996WRNO,2019-09-26-10-40-03,2,9,0.5040716436007107,left,probe,biased-switch,-1,5,left,left,0.202
MSB1996WRNO,2019-09-26-10-40-03,2,10,0.5380752048111908,left,both,biased-switch,98,5,left,right,0.283
MSB1996WRNO,2019-09-26-10-40-03,2,11,0.5711372182937922,left,probe,ambiguous-stable,-1,0,left,left,0.255
MSB1996WRNO,2019-09-26-10-40-03,2,12,0.5270286366510594,left,both,ambiguous-stable,92,0,right,left,0.184
MSB1996WRNO,2019-09-26-10-40-03,2,13,0.6607734983561477,left,probe,biased-switch,-1,-20,left,left,0.191
MSB1996WRNO,2019-09-26-10-40-03,2,14,0.5211884913805429,left,both,biased-switch,106,-20,left,left,0.174
MSB1996WRNO,2019-09-26-10-40-03,2,15,0.6091459726926413,left,probe,ambiguous-stable,-1,40,left,left,0.19
MSB1996WRNO,2019-09-26-10-40-03,2,16,0.6910661568267203,left,both,ambiguous-stable,97,40,right,left,0.183
MSB1996WRNO,2019-09-26-10-40-03,2,17,0.5424145940471679,right,probe,biased-switch,-1,-10,right,right,0.29
MSB1996WRNO,2019-09-26-10-40-03,2,18,0.5459120591989837,right,both,biased-switch,109,-10,right,right,0.189
MSB1996WRNO,2019-09-26-10-40-03,2,19,0.5442770010589835,right,probe,ambiguous-switch,-1,20,right,right,0.239
MSB1996WRNO,2019-09-26-10-40-03,2,20,0.6717532774274189,right,both,ambiguous-switch,91,20,right,left,0.201
MSB1996WRNO,2019-09-26-10-40-03,2,21,0.5630180321261644,left,probe,biased-switch,-1,-5,left,left,0.197
MSB1996WRNO,2019-09-26-10-40-03,2,22,0.6454585641512667,left,both,biased-switch,96,-5,left,left,0.202
MSB1996WRNO,2019-09-26-10-40-03,2,23,0.6132762126503595,right,probe,ambiguous-stable,-1,10,left,left,0.192
MSB1996WRNO,2019-09-26-10-40-03,2,24,0.6040797804775172,right,both,ambiguous-stable,106,10,right,left,0.147
MSB1996WRNO,2019-09-26-10-40-03,2,25,0.6485183512613294,left,probe,ambiguous-stable,-1,-5,left,left,0.168
MSB1996WRNO,2019-09-26-10-40-03,2,26,0.6087175825547536,left,both,ambiguous-stable,98,-5,right,left,2.812
MSB1996WRNO,2019-09-26-10-40-03,2,27,0.6572594518776492,right,probe,biased-switch,-1,40,left,left,0.146
MSB1996WRNO,2019-09-26-10-40-03,2,28,0.587933083338443,right,both,biased-switch,96,40,left,left,0.62
MSB1996WRNO,2019-09-26-10-40-03,2,29,0.5093309318631514,right,probe,ambiguous-switch,-1,-5,left,left,0.211
MSB1996WRNO,2019-09-26-10-40-03,2,30,0.5072589600766678,right,both,ambiguous-switch,108,-5,left,right,0.3
MSB1996WRNO,2019-09-26-10-40-03,2,31,0.5341404670521946,left,probe,ambiguous-switch,-1,-10,left,left,0.279
MSB1996WRNO,2019-09-26-10-40-03,2,32,0.6663638609957812,left,both,ambiguous-switch,96,-10,left,left,0.154
MSB1996WRNO,2019-09-26-10-40-03,2,33,0.6529607207105619,right,probe,ambiguous-stable,-1,-20,right,right,0.308
MSB1996WRNO,2019-09-26-10-40-03,2,34,0.5251011848120238,right,both,ambiguous-stable,103,-20,left,right,0.202
MSB1996WRNO,2019-09-26-10-40-03,2,35,0.5794482463120342,left,probe,ambiguous-stable,-1,20,left,left,0.25
MSB1996WRNO,2019-09-26-10-40-03,2,36,0.6821852438659284,left,both,ambiguous-stable,102,20,right,left,0.157
MSB1996WRNO,2019-09-26-10-40-03,2,37,0.6773640373980637,left,probe,biased-switch,-1,-30,left,left,0.179
MSB1996WRNO,2019-09-26-10-40-03,2,38,0.6006138455680637,left,both,biased-switch,97,-30,left,left,0.152
MSB1996WRNO,2019-09-26-10-40-03,2,39,0.6126931807536555,right,probe,biased-switch,-1,20,right,right,0.195
MSB1996WRNO,2019-09-26-10-40-03,2,40,0.5064543295223934,right,both,biased-switch,107,20,right,right,1.073
MSB1996WRNO,2019-09-26-10-40-03,2,41,0.6080097566820837,right,probe,ambiguous-switch,-1,0,right,right,0.185
MSB1996WRNO,2019-09-26-10-40-03,2,42,0.5055359202419514,right,both,ambiguous-switch,91,0,right,right,0.275
MSB1996WRNO,2019-09-26-10-40-03,2,43,0.5474664385920117,right,probe,ambiguous-switch,-1,30,right,right,0.189
MSB1996WRNO,2019-09-26-10-40-03,2,44,0.5422139830668693,right,both,ambiguous-switch,103,30,right,right,0.264
MSB1996WRNO,2019-09-26-10-40-03,2,45,0.5549445873862211,right,probe,ambiguous-switch,-1,40,right,right,0.154
MSB1996WRNO,2019-09-26-10-40-03,2,46,0.5020804667669903,right,both,ambiguous-switch,98,40,right,right,0.21
MSB1996WRNO,2019-09-26-10-40-03,2,47,0.564233524402529,left,probe,ambiguous-stable,-1,30,left,left,0.234
MSB1996WRNO,2019-09-26-10-40-03,2,48,0.6982681741457459,left,both,ambiguous-stable,103,30,right,left,0.141
MSB1996WRNO,2019-09-26-10-40-03,2,49,0.5664030730242201,right,probe,ambiguous-switch,-1,5,right,right,0.15
MSB1996WRNO,2019-09-26-10-40-03,2,50,0.5826764258791417,right,both,ambiguous-switch,106,5,right,right,0.213
MSB1996WRNO,2019-09-26-10-40-03,2,51,0.6416990354781774,right,probe,ambiguous-stable,-1,-30,right,right,0.189
MSB1996WRNO,2019-09-26-10-40-03,2,52,0.6196665489530108,right,both,ambiguous-stable,92,-30,left,right,0.213
MSB1996WRNO,2019-09-26-10-40-03,2,53,0.5868126647987043,right,probe,biased-switch,-1,10,right,right,0.192
MSB1996WRNO,2019-09-26-10-40-03,2,54,0.6420063128984528,right,both,biased-switch,100,10,right,right,0.011
MSB1996WRNO,2019-09-26-10-40-03,2,55,0.5761120405141786,right,probe,ambiguous-stable,-1,5,right,right,0.123
MSB1996WRNO,2019-09-26-10-40-03,2,56,0.5706440270967398,right,both,ambiguous-stable,101,5,left,right,1.063
MSB1996WRNO,2019-09-26-10-40-03,2,57,0.6319514893067839,left,probe,biased-switch,-1,0,left,left,0.168
MSB1996WRNO,2019-09-26-10-40-03,2,58,0.607918545099398,left,both,biased-switch,95,0,left,left,0.096
MSB1996WRNO,2019-09-26-10-40-03,2,59,0.6092703808220826,right,probe,ambiguous-switch,-1,-20,right,right,0.154
MSB1996WRNO,2019-09-26-10-40-03,2,60,0.5281318849327548,right,both,ambiguous-switch,96,-20,right,right,0.187
MSB1996WRNO,2019-09-26-10-40-03,3,1,0.520083441379282,left,probe,biased-switch,-1,5,left,left,0.226
MSB1996WRNO,2019-09-26-10-40-03,3,2,0.5214040415909411,left,both,biased-switch,90,5,left,right,0.039
MSB1996WRNO,2019-09-26-10-40-03,3,3,0.5589153425119778,right,probe,ambiguous-switch,-1,5,right,right,0.164
MSB1996WRNO,2019-09-26-10-40-03,3,4,0.6951200335702656,right,both,ambiguous-switch,97,5,right,right,0.168
MSB1996WRNO,2019-09-26-10-40-03,3,5,0.6997896497093892,right,probe,ambiguous-switch,-1,10,right,right,0.086
MSB1996WRNO,2019-09-26-10-40-03,3,6,0.6596035842366025,right,both,ambiguous-switch,93,10,right,right,0.175
MSB1996WRNO,2019-09-26-10-40-03,3,7,0.5894374056355054,right,probe,ambiguous-stable,-1,-30,right,right,0.148
MSB1996WRNO,2019-09-26-10-40-03,3,8,0.5126822611941401,right,both,ambiguous-stable,96,-30,left,right,0.176
MSB1996WRNO,2019-09-26-10-40-03,3,9,0.6030185563488448,left,probe,ambiguous-switch,-1,20,left,left,0.159
MSB1996WRNO,2019-09-26-10-40-03,3,10,0.6978443860342618,left,both,ambiguous-switch,95,20,left,left,0.151
MSB1996WRNO,2019-09-26-10-40-03,3,11,0.6473193389440197,right,probe,ambiguous-switch,-1,-10,right,right,0.212
MSB1996WRNO,2019-09-26-10-40-03,3,12,0.564948863104204,right,both,ambiguous-switch,106,-10,right,left,1.831
MSB1996WRNO,2019-09-26-10-40-03,3,13,0.5368560611154285,left,probe,ambiguous-switch,-1,-20,left,left,0.148
MSB1996WRNO,2019-09-26-10-40-03,3,14,0.6616822164812863,left,both,ambiguous-switch,91,-20,left,left,0.231
MSB1996WRNO,2019-09-26-10-40-03,3,15,0.6446373728694106,left,probe,ambiguous-switch,-1,0,left,left,0.163
MSB1996WRNO,2019-09-26-10-40-03,3,16,0.6071692134014838,left,both,ambiguous-switch,104,0,left,left,1.047
MSB1996WRNO,2019-09-26-10-40-03,3,17,0.5389230425178728,left,probe,biased-switch,-1,-5,left,left,0.205
MSB1996WRNO,2019-09-26-10-40-03,3,18,0.6290186992444646,left,both,biased-switch,99,-5,left,left,0.181
MSB1996WRNO,2019-09-26-10-40-03,3,19,0.6869268937095948,right,probe,biased-switch,-1,0,right,right,0.157
MSB1996WRNO,2019-09-26-10-40-03,3,20,0.5974853664583901,right,both,biased-switch,104,0,right,right,0.428
MSB1996WRNO,2019-09-26-10-40-03,3,21,0.5901703062935059,right,probe,ambiguous-switch,-1,30,right,right,0.175
MSB1996WRNO,2019-09-26-10-40-03,3,22,0.5315177465421088,right,both,ambiguous-switch,100,30,right,right,0.144
MSB1996WRNO,2019-09-26-10-40-03,3,23,0.6808007672365601,right,probe,biased-switch,-1,10,right,right,0.168
MSB1996WRNO,2019-09-26-10-40-03,3,24,0.5243347140431242,right,both,biased-switch,100,10,right,left,0.175
MSB1996WRNO,2019-09-26-10-40-03,3,25,0.5072126446059004,right,probe,biased-switch,-1,40,left,left,0.161
MSB1996WRNO,2019-09-26-10-40-03,3,26,0.6248384123285308,right,both,biased-switch,106,40,left,right,0.228
MSB1996WRNO,2019-09-26-10-40-03,3,27,0.6800385632104986,right,probe,ambiguous-stable,-1,20,right,right,0.09
MSB1996WRNO,2019-09-26-10-40-03,3,28,0.682041629543629,right,both,ambiguous-stable,95,20,left,right,0.039
MSB1996WRNO,2019-09-26-10-40-03,3,29,0.5087878879159863,right,probe,ambiguous-stable,-1,10,right,right,1.284
MSB1996WRNO,2019-09-26-10-40-03,3,30,0.6374173478086079,right,both,ambiguous-stable,107,10,left,right,0.177
MSB1996WRNO,2019-09-26-10-40-03,3,31,0.594320769055052,left,probe,biased-switch,-1,20,left,left,0.159
MSB1996WRNO,2019-09-26-10-40-03,3,32,0.6169085792801235,left,both,biased-switch,104,20,left,left,0.16
MSB1996WRNO,2019-09-26-10-40-03,3,33,0.5097261176701114,right,probe,ambiguous-switch,-1,-30,right,right,0.157
MSB1996WRNO,2019-09-26-10-40-03,3,34,0.5882465678695286,right,both,ambiguous-switch,99,-30,right,left,0.251
MSB1996WRNO,2019-09-26-10-40-03,3,35,0.6916481463178168,right,probe,ambiguous-stable,-1,30,right,right,0.213
MSB1996WRNO,2019-09-26-10-40-03,3,36,0.6205124865592384,right,both,ambiguous-stable,93,30,left,left,0.157
MSB1996WRNO,2019-09-26-10-40-03,3,37,0.5266376469484423,right,probe,ambiguous-stable,-1,5,left,left,0.182
MSB1996WRNO,2019-09-26-10-40-03,3,38,0.5336307947976535,right,both,ambiguous-stable,97,5,right,left,0.132
MSB1996WRNO,2019-09-26-10-40-03,3,39,0.6746978173524474,right,probe,ambiguous-stable,-1,0,left,left,0.174
MSB1996WRNO,2019-09-26-10-40-03,3,40,0.5445751539190965,right,both,ambiguous-stable,94,0,right,left,0.174
MSB1996WRNO,2019-09-26-10-40-03,3,41,0.6356543691123604,left,probe,biased-switch,-1,30,left,left,0.151
MSB1996WRNO,2019-09-26-10-40-03,3,42,0.5772505890673285,left,both,biased-switch,93,30,left,left,0.076
MSB1996WRNO,2019-09-26-10-40-03,3,43,0.6713695416564136,right,probe,ambiguous-stable,-1,-5,right,right,0.223
MSB1996WRNO,2019-09-26-10-40-03,3,44,0.6063888873099061,right,both,ambiguous-stable,92,-5,left,left,0.115
MSB1996WRNO,2019-09-26-10-40-03,3,45,0.5309444908277494,left,probe,biased-switch,-1,-20,left,left,0.177
MSB1996WRNO,2019-09-26-10-40-03,3,46,0.6631219853423826,left,both,biased-switch,108,-20,left,left,0.109
MSB1996WRNO,2019-09-26-10-40-03,3,47,0.524416320063487,right,probe,ambiguous-stable,-1,-20,right,right,0.182
MSB1996WRNO,2019-09-26-10-40-03,3,48,0.5084395167610564,right,both,ambiguous-stable,99,-20,left,left,0.137
MSB1996WRNO,2019-09-26-10-40-03,3,49,0.5106089848438367,left,probe,ambiguous-stable,-1,40,left,left,0.197
MSB1996WRNO,2019-09-26-10-40-03,3,50,0.5123759588874213,left,both,ambiguous-stable,101,40,right,left,0.202
MSB1996WRNO,2019-09-26-10-40-03,3,51,0.6075648173283315,left,probe,biased-switch,-1,-30,left,left,0.162
MSB1996WRNO,2019-09-26-10-40-03,3,52,0.5199978849733797,left,both,biased-switch,91,-30,left,left,1.115
MSB1996WRNO,2019-09-26-10-40-03,3,53,0.5852674461308568,left,probe,ambiguous-switch,-1,-5,left,left,0.158
MSB1996WRNO,2019-09-26-10-40-03,3,54,0.6228053773665676,left,both,ambiguous-switch,93,-5,left,left,0.18
MSB1996WRNO,2019-09-26-10-40-03,3,55,0.5540948028652604,right,probe,ambiguous-switch,-1,40,right,right,0.353
MSB1996WRNO,2019-09-26-10-40-03,3,56,0.6758392011166803,right,both,ambiguous-switch,96,40,right,right,0.198
MSB1996WRNO,2019-09-26-10-40-03,3,57,0.5068493282007176,left,probe,biased-switch,-1,-10,left,left,0.26
MSB1996WRNO,2019-09-26-10-40-03,3,58,0.5788835663596767,left,both,biased-switch,91,-10,left,left,0.168
MSB1996WRNO,2019-09-26-10-40-03,3,59,0.5601794625439396,right,probe,ambiguous-stable,-1,-10,right,right,0.378
MSB1996WRNO,2019-09-26-10-40-03,3,60,0.5940150651744098,right,both,ambiguous-stable,97,-10,left,right,0.164
MSB1996WRNO,2019-09-26-10-40-03,4,1,0.6121287863400519,right,probe,ambiguous-switch,-1,-20,right,right,0.487
MSB1996WRNO,2019-09-26-10-40-03,4,2,0.6727823796736381,right,both,ambiguous-switch,101,-20,right,right,0.169
MSB1996WRNO,2019-09-26-10-40-03,4,3,0.692207241851899,left,probe,ambiguous-stable,-1,-5,left,left,0.166
MSB1996WRNO,2019-09-26-10-40-03,4,4,0.5651435115376024,left,both,ambiguous-stable,98,-5,right,left,0.164
MSB1996WRNO,2019-09-26-10-40-03,4,5,0.6681760265692257,left,probe,ambiguous-switch,-1,-10,right,right,0.272
MSB1996WRNO,2019-09-26-10-40-03,4,6,0.5330183869218792,left,both,ambiguous-switch,100,-10,right,left,0.198
MSB1996WRNO,2019-09-26-10-40-03,4,7,0.651414592584664,right,probe,ambiguous-stable,-1,40,right,right,0.195
MSB1996WRNO,2019-09-26-10-40-03,4,8,0.6029807107013515,right,both,ambiguous-stable,96,40,left,right,0.362
MSB1996WRNO,2019-09-26-10-40-03,4,9,0.6128305354850454,left,probe,biased-switch,-1,-20,left,left,0.241
MSB1996WRNO,2019-09-26-10-40-03,4,10,0.6990077864018234,left,both,biased-switch,101,-20,left,left,0.265
MSB1996WRNO,2019-09-26-10-40-03,4,11,0.5723877082614947,right,probe,biased-switch,-1,0,right,right,0.239
MSB1996WRNO,2019-09-26-10-40-03,4,12,0.6617110290412832,right,both,biased-switch,108,0,right,left,0.199
MSB1996WRNO,2019-09-26-10-40-03,4,13,0.5312709935803299,right,probe,ambiguous-stable,-1,5,left,left,0.185
MSB1996WRNO,2019-09-26-10-40-03,4,14,0.5738904536053046,right,both,ambiguous-stable,99,5,right,left,0.829
MSB1996WRNO,2019-09-26-10-40-03,4,15,0.5211237936557134,right,probe,biased-switch,-1,-30,right,right,0.209
MSB1996WRNO,2019-09-26-10-40-03,4,16,0.6635833838649547,right,both,biased-switch,98,-30,right,right,0.204
MSB1996WRNO,2019-09-26-10-40-03,4,17,0.5636621579918246,right,probe,biased-switch,-1,5,right,right,0.166
MSB1996WRNO,2019-09-26-10-40-03,4,18,0.5616777221667996,right,both,biased-switch,90,5,right,right,0.326
MSB1996WRNO,2019-09-26-10-40-03,4,19,0.5345588161901594,left,probe,ambiguous-stable,-1,20,left,left,0.066
MSB1996WRNO,2019-09-26-10-40-03,4,20,0.5637070199171804,left,both,ambiguous-stable,109,20,right,left,0.182
MSB1996WRNO,2019-09-26-10-40-03,4,21,0.6145746827540193,left,probe,ambiguous-switch,-1,10,left,left,0.141
MSB1996WRNO,2019-09-26-10-40-03,4,22,0.5928230425643755,left,both,ambiguous-switch,103,10,left,left,0.138
MSB1996WRNO,2019-09-26-10-40-03,4,23,0.5825274364228765,left,probe,biased-switch,-1,10,right,right,0.164
MSB1996WRNO,2019-09-26-10-40-03,4,24,0.6719310056241408,left,both,biased-switch,106,10,right,left,0.538
MSB1996WRNO,2019-09-26-10-40-03,4,25,0.6042679406293905,right,probe,biased-switch,-1,30,right,right,0.385
MSB1996WRNO,2019-09-26-10-40-03,4,26,0.5248595133647913,right,both,biased-switch,98,30,right,right,0.147
MSB1996WRNO,2019-09-26-10-40-03,4,27,0.6619660048743619,right,probe,ambiguous-switch,-1,0,right,right,0.161
MSB1996WRNO,2019-09-26-10-40-03,4,28,0.5431078301527574,right,both,ambiguous-switch,95,0,right,left,0.178
MSB1996WRNO,2019-09-26-10-40-03,4,29,0.5731925299173714,left,probe,biased-switch,-1,-10,left,left,0.354
MSB1996WRNO,2019-09-26-10-40-03,4,30,0.5770849958557599,left,both,biased-switch,103,-10,left,left,0.169
MSB1996WRNO,2019-09-26-10-40-03,4,31,0.5738718568117325,left,probe,ambiguous-switch,-1,40,left,left,0.178
MSB1996WRNO,2019-09-26-10-40-03,4,32,0.6036300642242077,left,both,ambiguous-switch,105,40,left,left,0.185
MSB1996WRNO,2019-09-26-10-40-03,4,33,0.5128004149920429,left,probe,ambiguous-stable,-1,-20,left,left,0.363
MSB1996WRNO,2019-09-26-10-40-03,4,34,0.5516936615527804,left,both,ambiguous-stable,94,-20,right,left,0.165
MSB1996WRNO,2019-09-26-10-40-03,4,35,0.6795966976976472,right,probe,ambiguous-stable,-1,-30,right,right,0.208
MSB1996WRNO,2019-09-26-10-40-03,4,36,0.6866842568072303,right,both,ambiguous-stable,94,-30,left,right,0.225
MSB1996WRNO,2019-09-26-10-40-03,4,37,0.6441920307858044,right,probe,ambiguous-switch,-1,-30,right,right,0.192
MSB1996WRNO,2019-09-26-10-40-03,4,38,0.6150582995872982,right,both,ambiguous-switch,93,-30,right,left,0.694
MSB1996WRNO,2019-09-26-10-40-03,4,39,0.6657568391232974,right,probe,biased-switch,-1,-5,right,right,0.264
MSB1996WRNO,2019-09-26-10-40-03,4,40,0.5342927087712456,right,both,biased-switch,105,-5,right,left,0.209
MSB1996WRNO,2019-09-26-10-40-03,4,41,0.6354692632884531,left,probe,ambiguous-stable,-1,0,left,left,0.204
MSB1996WRNO,2019-09-26-10-40-03,4,42,0.6736017302456195,left,both,ambiguous-stable,103,0,right,left,0.886
MSB1996WRNO,2019-09-26-10-40-03,4,43,0.6191900992154538,left,probe,ambiguous-switch,-1,30,left,left,0.257
MSB1996WRNO,2019-09-26-10-40-03,4,44,0.5263569574010581,left,both,ambiguous-switch,101,30,left,left,0.175
MSB1996WRNO,2019-09-26-10-40-03,4,45,0.6772176833924103,left,probe,ambiguous-switch,-1,5,left,left,0.12
MSB1996WRNO,2019-09-26-10-40-03,4,46,0.6155835864053424,left,both,ambiguous-switch,91,5,left,left,0.056
MSB1996WRNO,2019-09-26-10-40-03,4,47,0.6271147991600825,left,probe,biased-switch,-1,40,left,left,0.033
MSB1996WRNO,2019-09-26-10-40-03,4,48,0.6342497506988842,left,both,biased-switch,108,40,left,left,0.196
MSB1996WRNO,2019-09-26-10-40-03,4,49,0.541600970548979,right,probe,ambiguous-switch,-1,20,right,right,0.32
MSB1996WRNO,2019-09-26-10-40-03,4,50,0.631058603533044,right,both,ambiguous-switch,101,20,right,right,0.208
MSB1996WRNO,2019-09-26-10-40-03,4,51,0.6338256054175153,left,probe,ambiguous-stable,-1,30,left,left,0.16
MSB1996WRNO,2019-09-26-10-40-03,4,52,0.6527483472296162,left,both,ambiguous-stable,97,30,right,left,0.108
MSB1996WRNO,2019-09-26-10-40-03,4,53,0.5392359842474574,right,probe,ambiguous-switch,-1,-5,right,right,0.2
MSB1996WRNO,2019-09-26-10-40-03,4,54,0.5288606961700745,right,both,ambiguous-switch,107,-5,right,right,0.403
MSB1996WRNO,2019-09-26-10-40-03,4,55,0.5525652016947689,right,probe,ambiguous-stable,-1,-10,right,right,0.089
MSB1996WRNO,2019-09-26-10-40-03,4,56,0.5335141647452414,right,both,ambiguous-stable,97,-10,left,right,0.131
MSB1996WRNO,2019-09-26-10-40-03,4,57,0.5367038317882504,right,probe,biased-switch,-1,20,right,right,0.457
MSB1996WRNO,2019-09-26-10-40-03,4,58,0.5142582348542957,right,both,biased-switch,110,20,right,left,0.213
MSB1996WRNO,2019-09-26-10-40-03,4,59,0.6561801637656542,right,probe,ambiguous-stable,-1,10,left,left,0.178
MSB1996WRNO,2019-09-26-10-40-03,4,60,0.6087109220940226,right,both,ambiguous-stable,99,10,right,right,0.199
MSB1996WRNO,2019-09-26-10-40-03,5,1,0.6565000550878364,right,probe,ambiguous-stable,-1,40,left,left,0.997
MSB1996WRNO,2019-09-26-10-40-03,5,2,0.5856224792313847,right,both,ambiguous-stable,99,40,right,right,0.213
MSB1996WRNO,2019-09-26-10-40-03,5,3,0.5663491601351021,right,probe,biased-switch,-1,-10,right,right,0.19
MSB1996WRNO,2019-09-26-10-40-03,5,4,0.6886826326714347,right,both,biased-switch,105,-10,right,right,0.122
MSB1996WRNO,2019-09-26-10-40-03,5,5,0.6289128085376654,right,probe,biased-switch,-1,5,right,right,0.151
MSB1996WRNO,2019-09-26-10-40-03,5,6,0.5174339201004676,right,both,biased-switch,107,5,right,right,0.215
MSB1996WRNO,2019-09-26-10-40-03,5,7,0.5891834552911029,left,probe,biased-switch,-1,-20,right,right,0.211
MSB1996WRNO,2019-09-26-10-40-03,5,8,0.625496745270598,left,both,biased-switch,97,-20,right,right,0.215
MSB1996WRNO,2019-09-26-10-40-03,5,9,0.6413816890476753,left,probe,ambiguous-switch,-1,0,left,left,0.256
MSB1996WRNO,2019-09-26-10-40-03,5,10,0.5013131779612136,left,both,ambiguous-switch,95,0,left,left,0.164
MSB1996WRNO,2019-09-26-10-40-03,5,11,0.6700150582805477,left,probe,ambiguous-switch,-1,10,left,left,0.2
MSB1996WRNO,2019-09-26-10-40-03,5,12,0.6628765290059664,left,both,ambiguous-switch,110,10,left,right,0.111
MSB1996WRNO,2019-09-26-10-40-03,5,13,0.6047568440185126,left,probe,ambiguous-switch,-1,-20,left,left,0.174
MSB1996WRNO,2019-09-26-10-40-03,5,14,0.6367509316069124,left,both,ambiguous-switch,106,-20,left,left,0.17
MSB1996WRNO,2019-09-26-10-40-03,5,15,0.6273243245417433,right,probe,ambiguous-stable,-1,-30,right,right,0.313
MSB1996WRNO,2019-09-26-10-40-03,5,16,0.5334483499044536,right,both,ambiguous-stable,99,-30,left,right,0.135
MSB1996WRNO,2019-09-26-10-40-03,5,17,0.543685977089523,left,probe,ambiguous-switch,-1,40,left,left,0.243
MSB1996WRNO,2019-09-26-10-40-03,5,18,0.5275572197811254,left,both,ambiguous-switch,95,40,left,left,0.209
MSB1996WRNO,2019-09-26-10-40-03,5,19,0.5233122845001542,left,probe,biased-switch,-1,-5,left,left,0.169
MSB1996WRNO,2019-09-26-10-40-03,5,20,0.5719367037118346,left,both,biased-switch,110,-5,left,left,0.163
MSB1996WRNO,2019-09-26-10-40-03,5,21,0.5169858970473296,right,probe,biased-switch,-1,0,right,right,0.235
MSB1996WRNO,2019-09-26-10-40-03,5,22,0.5107785679455775,right,both,biased-switch,103,0,right,left,0.172
MSB1996WRNO,2019-09-26-10-40-03,5,23,0.6712932957886367,left,probe,ambiguous-stable,-1,-20,left,left,0.39
MSB1996WRNO,2019-09-26-10-40-03,5,24,0.6606654651210861,left,both,ambiguous-stable,108,-20,right,left,0.201
MSB1996WRNO,2019-09-26-10-40-03,5,25,0.590747503352729,left,probe,biased-switch,-1,-30,left,left,0.146
MSB1996WRNO,2019-09-26-10-40-03,5,26,0.6301485951848628,left,both,biased-switch,99,-30,left,left,0.202
MSB1996WRNO,2019-09-26-10-40-03,5,27,0.6828415162320056,right,probe,biased-switch,-1,10,right,right,0.26
MSB1996WRNO,2019-09-26-10-40-03,5,28,0.6451977322918865,right,both,biased-switch,90,10,right,right,0.201
MSB1996WRNO,2019-09-26-10-40-03,5,29,0.6561477601528971,left,probe,biased-switch,-1,40,left,left,0.175
MSB1996WRNO,2019-09-26-10-40-03,5,30,0.6837755517677653,left,both,biased-switch,106,40,left,left,0.195
MSB1996WRNO,2019-09-26-10-40-03,5,31,0.6400999158464522,left,probe,ambiguous-stable,-1,5,left,left,0.164
MSB1996WRNO,2019-09-26-10-40-03,5,32,0.5274295868656683,left,both,ambiguous-stable,110,5,right,left,0.109
MSB1996WRNO,2019-09-26-10-40-03,5,33,0.6492434848281758,right,probe,ambiguous-switch,-1,20,right,right,0.199
MSB1996WRNO,2019-09-26-10-40-03,5,34,0.6942098336983069,right,both,ambiguous-switch,101,20,right,right,0.217
MSB1996WRNO,2019-09-26-10-40-03,5,35,0.6457025067548194,right,probe,biased-switch,-1,30,left,left,0.189
MSB1996WRNO,2019-09-26-10-40-03,5,36,0.5053696174093787,right,both,biased-switch,94,30,left,left,0.181
MSB1996WRNO,2019-09-26-10-40-03,5,37,0.5424918715908116,right,probe,ambiguous-stable,-1,-10,left,left,0.178
MSB1996WRNO,2019-09-26-10-40-03,5,38,0.6146217922153047,right,both,ambiguous-stable,100,-10,right,left,0.176
MSB1996WRNO,2019-09-26-10-40-03,5,39,0.5367524527112971,right,probe,ambiguous-stable,-1,20,left,left,0.166
MSB1996WRNO,2019-09-26-10-40-03,5,40,0.658424721283345,right,both,ambiguous-stable,91,20,right,left,0.131
MSB1996WRNO,2019-09-26-10-40-03,5,41,0.6558115633751072,left,probe,ambiguous-switch,-1,5,left,left,0.165
MSB1996WRNO,2019-09-26-10-40-03,5,42,0.6899119221094717,left,both,ambiguous-switch,97,5,left,left,0.175
MSB1996WRNO,2019-09-26-10-40-03,5,43,0.6741957556269912,left,probe,biased-switch,-1,20,left,left,1.52
MSB1996WRNO,2019-09-26-10-40-03,5,44,0.5907880559458691,left,both,biased-switch,97,20,left,left,0.44
MSB1996WRNO,2019-09-26-10-40-03,5,45,0.547785779697314,left,probe,ambiguous-switch,-1,-10,left,left,0.264
MSB1996WRNO,2019-09-26-10-40-03,5,46,0.5221875799401355,left,both,ambiguous-switch,109,-10,left,right,0.177
MSB1996WRNO,2019-09-26-10-40-03,5,47,0.5951883462888731,right,probe,ambiguous-switch,-1,-30,right,right,0.275
MSB1996WRNO,2019-09-26-10-40-03,5,48,0.6869124642629392,right,both,ambiguous-switch,110,-30,right,left,0.152
MSB1996WRNO,2019-09-26-10-40-03,5,49,0.511677139654159,right,probe,ambiguous-switch,-1,30,left,left,0.177
MSB1996WRNO,2019-09-26-10-40-03,5,50,0.5742375308177312,right,both,ambiguous-switch,98,30,left,left,1.41
MSB1996WRNO,2019-09-26-10-40-03,5,51,0.6975752046296657,left,probe,ambiguous-stable,-1,30,left,left,0.168
MSB1996WRNO,2019-09-26-10-40-03,5,52,0.5525235497798622,left,both,ambiguous-stable,94,30,right,left,0.235
MSB1996WRNO,2019-09-26-10-40-03,5,53,0.6216872911227046,left,probe,ambiguous-stable,-1,-5,right,right,0.265
MSB1996WRNO,2019-09-26-10-40-03,5,54,0.6116883127126622,left,both,ambiguous-stable,109,-5,left,left,0.2
MSB1996WRNO,2019-09-26-10-40-03,5,55,0.5673180098625734,left,probe,ambiguous-switch,-1,-5,left,left,0.192
MSB1996WRNO,2019-09-26-10-40-03,5,56,0.6885154472913256,left,both,ambiguous-switch,109,-5,left,left,0.184
MSB1996WRNO,2019-09-26-10-40-03,5,57,0.672679869941208,left,probe,ambiguous-stable,-1,10,left,left,0.353
MSB1996WRNO,2019-09-26-10-40-03,5,58,0.6375164730406682,left,both,ambiguous-stable,99,10,right,left,0.167
MSB1996WRNO,2019-09-26-10-40-03,5,59,0.6145067929235191,left,probe,ambiguous-stable,-1,0,left,left,0.188
MSB1996WRNO,2019-09-26-10-40-03,5,60,0.5559196238478262,left,both,ambiguous-stable,94,0,right,left,0.259
MSB1996WRNO,2019-09-26-10-40-03,6,1,0.571192040708215,right,probe,biased-switch,-1,20,left,left,0.657
MSB1996WRNO,2019-09-26-10-40-03,6,2,0.5531567018348232,right,both,biased-switch,95,20,left,right,0.188
MSB1996WRNO,2019-09-26-10-40-03,6,3,0.504750805875817,right,probe,ambiguous-stable,-1,-30,right,right,0.165
MSB1996WRNO,2019-09-26-10-40-03,6,4,0.6571311525618614,right,both,ambiguous-stable,104,-30,left,right,0.148
MSB1996WRNO,2019-09-26-10-40-03,6,5,0.6369592724991288,left,probe,biased-switch,-1,-20,left,left,0.152
MSB1996WRNO,2019-09-26-10-40-03,6,6,0.6167398687041908,left,both,biased-switch,107,-20,left,left,0.166
MSB1996WRNO,2019-09-26-10-40-03,6,7,0.5051081685674735,right,probe,ambiguous-switch,-1,5,right,right,0.116
MSB1996WRNO,2019-09-26-10-40-03,6,8,0.6775851243015785,right,both,ambiguous-switch,106,5,right,right,0.158
MSB1996WRNO,2019-09-26-10-40-03,6,9,0.5211349524032453,left,probe,ambiguous-switch,-1,10,left,left,0.163
MSB1996WRNO,2019-09-26-10-40-03,6,10,0.5629414096619028,left,both,ambiguous-switch,96,10,left,right,0.11
MSB1996WRNO,2019-09-26-10-40-03,6,11,0.6385527355485574,left,probe,ambiguous-stable,-1,5,left,left,0.166
MSB1996WRNO,2019-09-26-10-40-03,6,12,0.5008739173707591,left,both,ambiguous-stable,108,5,right,left,0.155
MSB1996WRNO,2019-09-26-10-40-03,6,13,0.652771156512474,right,probe,biased-switch,-1,0,right,right,0.184
MSB1996WRNO,2019-09-26-10-40-03,6,14,0.6927128662166352,right,both,biased-switch,108,0,right,right,0.22
MSB1996WRNO,2019-09-26-10-40-03,6,15,0.6660433024996554,right,probe,biased-switch,-1,-5,right,right,0.213
MSB1996WRNO,2019-09-26-10-40-03,6,16,0.5400483887860776,right,both,biased-switch,95,-5,right,right,0.182
MSB1996WRNO,2019-09-26-10-40-03,6,17,0.5221437232938203,left,probe,ambiguous-switch,-1,-20,left,left,0.185
MSB1996WRNO,2019-09-26-10-40-03,6,18,0.5050993035341361,left,both,ambiguous-switch,101,-20,left,left,0.235
MSB1996WRNO,2019-09-26-10-40-03,6,19,0.6980405068134801,right,probe,biased-switch,-1,40,right,right,0.257
MSB1996WRNO,2019-09-26-10-40-03,6,20,0.6462511277459064,right,both,biased-switch,105,40,right,right,0.266
MSB1996WRNO,2019-09-26-10-40-03,6,21,0.6814224716165556,left,probe,ambiguous-switch,-1,40,left,left,0.225
MSB1996WRNO,2019-09-26-10-40-03,6,22,0.50802404610587,left,both,ambiguous-switch,101,40,left,left,0.147
MSB1996WRNO,2019-09-26-10-40-03,6,23,0.5623566331576297,left,probe,ambiguous-stable,-1,-5,left,left,0.219
MSB1996WRNO,2019-09-26-10-40-03,6,24,0.6733203964905895,left,both,ambiguous-stable,91,-5,right,left,0.173
MSB1996WRNO,2019-09-26-10-40-03,6,25,0.5808032837805385,left,probe,ambiguous-stable,-1,30,left,left,0.192
MSB1996WRNO,2019-09-26-10-40-03,6,26,0.6226578564647322,left,both,ambiguous-stable,91,30,right,left,0.17
MSB1996WRNO,2019-09-26-10-40-03,6,27,0.6137869230921089,right,probe,biased-switch,-1,-30,right,right,0.086
MSB1996WRNO,2019-09-26-10-40-03,6,28,0.5366495198242958,right,both,biased-switch,91,-30,right,right,1.025
MSB1996WRNO,2019-09-26-10-40-03,6,29,0.5051747884459408,right,probe,ambiguous-switch,-1,-5,right,right,0.18
MSB1996WRNO,2019-09-26-10-40-03,6,30,0.6828779767397338,right,both,ambiguous-switch,100,-5,right,right,0.024
MSB1996WRNO,2019-09-26-10-40-03,6,31,0.5927890444648232,left,probe,ambiguous-stable,-1,0,left,left,0.166
MSB1996WRNO,2019-09-26-10-40-03,6,32,0.6448115855405357,left,both,ambiguous-stable,101,0,right,left,0.154
MSB1996WRNO,2019-09-26-10-40-03,6,33,0.5721169922828178,left,probe,biased-switch,-1,30,left,left,0.156
MSB1996WRNO,2019-09-26-10-40-03,6,34,0.6872705431141477,left,both,biased-switch,90,30,left,left,0.167
MSB1996WRNO,2019-09-26-10-40-03,6,35,0.6575534517125173,left,probe,ambiguous-stable,-1,-10,left,left,0.154
MSB1996WRNO,2019-09-26-10-40-03,6,36,0.5287182847842969,left,both,ambiguous-stable,107,-10,right,left,0.17
MSB1996WRNO,2019-09-26-10-40-03,6,37,0.6387833176959657,right,probe,ambiguous-stable,-1,40,right,right,0.145
MSB1996WRNO,2019-09-26-10-40-03,6,38,0.5153053351522354,right,both,ambiguous-stable,104,40,left,right,0.174
MSB1996WRNO,2019-09-26-10-40-03,6,39,0.6619468841510665,right,probe,ambiguous-switch,-1,0,right,right,0.419
MSB1996WRNO,2019-09-26-10-40-03,6,40,0.5866252615963342,right,both,ambiguous-switch,109,0,right,left,0.14
MSB1996WRNO,2019-09-26-10-40-03,6,41,0.6897442317525426,left,probe,ambiguous-switch,-1,20,left,left,0.136
MSB1996WRNO,2019-09-26-10-40-03,6,42,0.5538376404189786,left,both,ambiguous-switch,95,20,left,left,0.195
MSB1996WRNO,2019-09-26-10-40-03,6,43,0.6672564663469823,right,probe,ambiguous-stable,-1,20,right,right,0.079
MSB1996WRNO,2019-09-26-10-40-03,6,44,0.6797574479520088,right,both,ambiguous-stable,105,20,left,right,0.43
MSB1996WRNO,2019-09-26-10-40-03,6,45,0.5958479556870598,left,probe,ambiguous-switch,-1,30,left,left,0.163
MSB1996WRNO,2019-09-26-10-40-03,6,46,0.673905614380137,left,both,ambiguous-switch,101,30,left,right,1.43
MSB1996WRNO,2019-09-26-10-40-03,6,47,0.6048067797361355,right,probe,ambiguous-switch,-1,-30,right,right,0.151
MSB1996WRNO,2019-09-26-10-40-03,6,48,0.5366569472787012,right,both,ambiguous-switch,106,-30,right,right,2.646
MSB1996WRNO,2019-09-26-10-40-03,6,49,0.5892773099468264,right,probe,ambiguous-stable,-1,10,right,right,0.149
MSB1996WRNO,2019-09-26-10-40-03,6,50,0.5636027786854096,right,both,ambiguous-stable,101,10,left,right,0.072
MSB1996WRNO,2019-09-26-10-40-03,6,51,0.6427220190312529,right,probe,biased-switch,-1,10,right,right,0.251
MSB1996WRNO,2019-09-26-10-40-03,6,52,0.611155692430339,right,both,biased-switch,106,10,right,right,0.201
MSB1996WRNO,2019-09-26-10-40-03,6,53,0.5688172870928351,right,probe,ambiguous-switch,-1,-10,right,right,0.191
MSB1996WRNO,2019-09-26-10-40-03,6,54,0.5358248509499328,right,both,ambiguous-switch,101,-10,right,right,0.177
MSB1996WRNO,2019-09-26-10-40-03,6,55,0.6536964977759806,left,probe,biased-switch,-1,5,right,right,0.19
MSB1996WRNO,2019-09-26-10-40-03,6,56,0.5731983970358423,left,both,biased-switch,106,5,right,left,0.193
MSB1996WRNO,2019-09-26-10-40-03,6,57,0.537614433104745,left,probe,biased-switch,-1,-10,left,left,0.162
MSB1996WRNO,2019-09-26-10-40-03,6,58,0.527420269672375,left,both,biased-switch,103,-10,left,left,0.145
MSB1996WRNO,2019-09-26-10-40-03,6,59,0.5741490940314474,left,probe,ambiguous-stable,-1,-20,left,left,0.087
MSB1996WRNO,2019-09-26-10-40-03,6,60,0.695675422762716,left,both,ambiguous-stable,101,-20,right,right,0.183
MSB1996WRNO,2019-09-26-10-40-03,7,1,0.6013196823962847,right,probe,biased-switch,-1,-30,right,right,0.27
MSB1996WRNO,2019-09-26-10-40-03,7,2,0.6111799714544214,right,both,biased-switch,92,-30,right,right,0.224
MSB1996WRNO,2019-09-26-10-40-03,7,3,0.6765291250447616,left,probe,ambiguous-stable,-1,-30,left,left,0.178
MSB1996WRNO,2019-09-26-10-40-03,7,4,0.5764425174637821,left,both,ambiguous-stable,109,-30,right,left,0.203
MSB1996WRNO,2019-09-26-10-40-03,7,5,0.6295575578990451,left,probe,biased-switch,-1,-10,left,left,0.16
MSB1996WRNO,2019-09-26-10-40-03,7,6,0.6022337097306739,left,both,biased-switch,100,-10,left,left,0.17
MSB1996WRNO,2019-09-26-10-40-03,7,7,0.5520045657222836,right,probe,ambiguous-switch,-1,-30,right,right,0.176
MSB1996WRNO,2019-09-26-10-40-03,7,8,0.5693102978722656,right,both,ambiguous-switch,99,-30,right,right,0.167
MSB1996WRNO,2019-09-26-10-40-03,7,9,0.5112721892946652,left,probe,ambiguous-switch,-1,-5,right,right,0.184
MSB1996WRNO,2019-09-26-10-40-03,7,10,0.682767360661639,left,both,ambiguous-switch,92,-5,right,left,0.143
MSB1996WRNO,2019-09-26-10-40-03,7,11,0.5483901415564691,right,probe,ambiguous-stable,-1,40,right,right,0.133
MSB1996WRNO,2019-09-26-10-40-03,7,12,0.5667909860949305,right,both,ambiguous-stable,110,40,left,right,0.168
MSB1996WRNO,2019-09-26-10-40-03,7,13,0.5116384089949179,right,probe,ambiguous-switch,-1,30,right,right,0.127
MSB1996WRNO,2019-09-26-10-40-03,7,14,0.5793282403379509,right,both,ambiguous-switch,108,30,right,right,0.178
MSB1996WRNO,2019-09-26-10-40-03,7,15,0.6188001806497732,right,probe,ambiguous-stable,-1,20,right,right,0.171
MSB1996WRNO,2019-09-26-10-40-03,7,16,0.6760639975578393,right,both,ambiguous-stable,100,20,left,right,0.16
MSB1996WRNO,2019-09-26-10-40-03,7,17,0.6167335524455602,right,probe,ambiguous-switch,-1,5,right,right,0.23
MSB1996WRNO,2019-09-26-10-40-03,7,18,0.5050803058131084,right,both,ambiguous-switch,95,5,right,left,0.211
MSB1996WRNO,2019-09-26-10-40-03,7,19,0.5600248956283406,right,probe,ambiguous-stable,-1,-5,right,right,0.097
MSB1996WRNO,2019-09-26-10-40-03,7,20,0.5386571366553558,right,both,ambiguous-stable,101,-5,left,right,0.207
MSB1996WRNO,2019-09-26-10-40-03,7,21,0.699202128208542,right,probe,ambiguous-switch,-1,10,right,right,0.161
MSB1996WRNO,2019-09-26-10-40-03,7,22,0.6854250957756831,right,both,ambiguous-switch,102,10,right,right,0.244
MSB1996WRNO,2019-09-26-10-40-03,7,23,0.6299767057883155,left,probe,biased-switch,-1,20,right,right,0.178
MSB1996WRNO,2019-09-26-10-40-03,7,24,0.5805708805500717,left,both,biased-switch,110,20,right,left,0.121
MSB1996WRNO,2019-09-26-10-40-03,7,25,0.5834287327351813,right,probe,biased-switch,-1,-20,right,right,0.014
MSB1996WRNO,2019-09-26-10-40-03,7,26,0.5860089987215101,right,both,biased-switch,103,-20,right,right,0.139
MSB1996WRNO,2019-09-26-10-40-03,7,27,0.5037103667715955,right,probe,biased-switch,-1,10,right,right,0.17
MSB1996WRNO,2019-09-26-10-40-03,7,28,0.5695260206358278,right,both,biased-switch,105,10,right,right,0.118
MSB1996WRNO,2019-09-26-10-40-03,7,29,0.5480311920791756,right,probe,ambiguous-switch,-1,20,right,right,0.154
MSB1996WRNO,2019-09-26-10-40-03,7,30,0.5689411809167378,right,both,ambiguous-switch,94,20,right,right,0.062
MSB1996WRNO,2019-09-26-10-40-03,7,31,0.6653751966602036,left,probe,ambiguous-stable,-1,5,right,right,0.209
MSB1996WRNO,2019-09-26-10-40-03,7,32,0.6355030055230865,left,both,ambiguous-stable,92,5,left,left,0.136
MSB1996WRNO,2019-09-26-10-40-03,7,33,0.5592104584123984,left,probe,ambiguous-stable,-1,0,left,left,0.156
MSB1996WRNO,2019-09-26-10-40-03,7,34,0.6352182442208234,left,both,ambiguous-stable,101,0,right,left,0.129
MSB1996WRNO,2019-09-26-10-40-03,7,35,0.6836461429458685,left,probe,biased-switch,-1,30,right,right,0.129
MSB1996WRNO,2019-09-26-10-40-03,7,36,0.5822999022749985,left,both,biased-switch,109,30,right,left,0.142
MSB1996WRNO,2019-09-26-10-40-03,7,37,0.6269780964969022,right,probe,ambiguous-switch,-1,-10,right,right,0.128
MSB1996WRNO,2019-09-26-10-40-03,7,38,0.5936061133759769,right,both,ambiguous-switch,109,-10,right,right,0.111
MSB1996WRNO,2019-09-26-10-40-03,7,39,0.5705669092247364,left,probe,ambiguous-stable,-1,-20,left,left,0.005
MSB1996WRNO,2019-09-26-10-40-03,7,40,0.685613759548005,left,both,ambiguous-stable,95,-20,right,left,0.154
MSB1996WRNO,2019-09-26-10-40-03,7,41,0.6273434428353157,right,probe,biased-switch,-1,0,right,right,0.05
MSB1996WRNO,2019-09-26-10-40-03,7,42,0.6941091948034028,right,both,biased-switch,91,0,right,right,0.722
MSB1996WRNO,2019-09-26-10-40-03,7,43,0.5493496361279546,right,probe,biased-switch,-1,40,right,right,0.147
MSB1996WRNO,2019-09-26-10-40-03,7,44,0.6413770005289103,right,both,biased-switch,105,40,right,left,0.951
MSB1996WRNO,2019-09-26-10-40-03,7,45,0.6058329042704477,left,probe,ambiguous-stable,-1,-10,left,left,0.164
MSB1996WRNO,2019-09-26-10-40-03,7,46,0.6704700393116628,left,both,ambiguous-stable,102,-10,right,left,0.11
MSB1996WRNO,2019-09-26-10-40-03,7,47,0.6865127468620563,left,probe,biased-switch,-1,5,left,left,0.145
MSB1996WRNO,2019-09-26-10-40-03,7,48,0.6044623494221794,left,both,biased-switch,99,5,left,right,2.923
MSB1996WRNO,2019-09-26-10-40-03,7,49,0.5672135145465828,left,probe,ambiguous-switch,-1,0,left,left,0.096
MSB1996WRNO,2019-09-26-10-40-03,7,50,0.6339875100640737,left,both,ambiguous-switch,94,0,left,left,0.055
MSB1996WRNO,2019-09-26-10-40-03,7,51,0.5022335933847568,left,probe,ambiguous-switch,-1,-20,left,left,0.103
MSB1996WRNO,2019-09-26-10-40-03,7,52,0.6421462242617559,left,both,ambiguous-switch,90,-20,left,right,0.088
MSB1996WRNO,2019-09-26-10-40-03,7,53,0.6934470516782779,left,probe,ambiguous-stable,-1,10,left,left,0.167
MSB1996WRNO,2019-09-26-10-40-03,7,54,0.5843209613448931,left,both,ambiguous-stable,94,10,right,left,2.904
MSB1996WRNO,2019-09-26-10-40-03,7,55,0.5723325052603241,left,probe,ambiguous-stable,-1,30,left,left,0.144
MSB1996WRNO,2019-09-26-10-40-03,7,56,0.6412310340605383,left,both,ambiguous-stable,99,30,right,left,0.165
MSB1996WRNO,2019-09-26-10-40-03,7,57,0.5366986306018143,right,probe,biased-switch,-1,-5,right,right,0.098
MSB1996WRNO,2019-09-26-10-40-03,7,58,0.5079707587650582,right,both,biased-switch,103,-5,right,right,0.186
MSB1996WRNO,2019-09-26-10-40-03,7,59,0.5602827397925857,right,probe,ambiguous-switch,-1,40,right,right,0.171
MSB1996WRNO,2019-09-26-10-40-03,7,60,0.6173518642930674,right,both,ambiguous-switch,107,40,right,right,0.232
MSB1996WRNO,2019-09-26-10-40-03,8,1,0.6569235646120203,left,probe,ambiguous-stable,-1,-30,left,left,0.2
MSB1996WRNO,2019-09-26-10-40-03,8,2,0.5100246268238214,left,both,ambiguous-stable,105,-30,right,left,0.016
MSB1996WRNO,2019-09-26-10-40-03,8,3,0.5698646592656286,right,probe,ambiguous-stable,-1,20,right,right,0.153
MSB1996WRNO,2019-09-26-10-40-03,8,4,0.6995786744285404,right,both,ambiguous-stable,106,20,left,right,205.044
MSB1996WRNO,2019-09-26-10-40-03,8,5,0.6009792701495239,right,probe,ambiguous-switch,-1,-10,right,right,0.437
MSB1996WRNO,2019-09-26-10-40-03,8,6,0.6238259927258161,right,both,ambiguous-switch,101,-10,right,right,0.112
MSB1996WRNO,2019-09-26-10-40-03,8,7,0.5013269510106005,left,probe,ambiguous-switch,-1,5,left,left,0.122
MSB1996WRNO,2019-09-26-10-40-03,8,8,0.5857203723886439,left,both,ambiguous-switch,94,5,left,left,2.198
MSB1996WRNO,2019-09-26-10-40-03,8,9,0.6239357311452787,right,probe,ambiguous-switch,-1,0,right,right,0.242
MSB1996WRNO,2019-09-26-10-40-03,8,10,0.536616962371,right,both,ambiguous-switch,106,0,right,right,0.206
MSB1996WRNO,2019-09-26-10-40-03,8,11,0.6053324972806787,left,probe,biased-switch,-1,10,left,left,0.173
MSB1996WRNO,2019-09-26-10-40-03,8,12,0.5317123162504535,left,both,biased-switch,101,10,left,left,0.156
MSB1996WRNO,2019-09-26-10-40-03,8,13,0.6042351539799371,right,probe,ambiguous-switch,-1,20,right,right,1.88
MSB1996WRNO,2019-09-26-10-40-03,8,14,0.6725209407371386,right,both,ambiguous-switch,105,20,right,right,0.143
MSB1996WRNO,2019-09-26-10-40-03,8,15,0.5410525164583654,left,probe,ambiguous-switch,-1,40,left,left,0.152
MSB1996WRNO,2019-09-26-10-40-03,8,16,0.6697881644237507,left,both,ambiguous-switch,110,40,left,left,0.152
MSB1996WRNO,2019-09-26-10-40-03,8,17,0.621556313386715,left,probe,biased-switch,-1,40,left,left,0.147
MSB1996WRNO,2019-09-26-10-40-03,8,18,0.6284469347627009,left,both,biased-switch,107,40,left,right,0.143
MSB1996WRNO,2019-09-26-10-40-03,8,19,0.6435886683162924,left,probe,ambiguous-stable,-1,-20,right,right,0.207
MSB1996WRNO,2019-09-26-10-40-03,8,20,0.501366631049489,left,both,ambiguous-stable,107,-20,left,left,0.136
MSB1996WRNO,2019-09-26-10-40-03,8,21,0.6841501579556993,left,probe,biased-switch,-1,20,right,right,0.153
MSB1996WRNO,2019-09-26-10-40-03,8,22,0.5675564594322821,left,both,biased-switch,90,20,right,left,0.009
MSB1996WRNO,2019-09-26-10-40-03,8,23,0.5474561155606725,right,probe,biased-switch,-1,30,right,right,0.065
MSB1996WRNO,2019-09-26-10-40-03,8,24,0.5734056724740284,right,both,biased-switch,109,30,right,right,0.165
MSB1996WRNO,2019-09-26-10-40-03,8,25,0.518048612128156,left,probe,biased-switch,-1,-10,right,right,0.152
MSB1996WRNO,2019-09-26-10-40-03,8,26,0.5249740005806415,left,both,biased-switch,106,-10,right,left,0.139
MSB1996WRNO,2019-09-26-10-40-03,8,27,0.5187004317062689,left,probe,ambiguous-stable,-1,10,left,left,0.036
MSB1996WRNO,2019-09-26-10-40-03,8,28,0.5556543905414443,left,both,ambiguous-stable,109,10,right,left,0.153
MSB1996WRNO,2019-09-26-10-40-03,8,29,0.5512545879948607,right,probe,ambiguous-stable,-1,0,right,right,1.832
MSB1996WRNO,2019-09-26-10-40-03,8,30,0.6974350279650847,right,both,ambiguous-stable,100,0,left,right,0.004
MSB1996WRNO,2019-09-26-10-40-03,8,31,0.6691623206184685,left,probe,biased-switch,-1,-5,left,left,1.877
MSB1996WRNO,2019-09-26-10-40-03,8,32,0.5356139843791452,left,both,biased-switch,104,-5,left,left,0.152
MSB1996WRNO,2019-09-26-10-40-03,8,33,0.6253570043213453,right,probe,ambiguous-switch,-1,30,right,right,0.016
MSB1996WRNO,2019-09-26-10-40-03,8,34,0.6302642746414623,right,both,ambiguous-switch,96,30,right,right,0.132
MSB1996WRNO,2019-09-26-10-40-03,8,35,0.5532180502672137,left,probe,ambiguous-stable,-1,30,left,left,0.148
MSB1996WRNO,2019-09-26-10-40-03,8,36,0.6642947297853679,left,both,ambiguous-stable,95,30,right,left,3.186
MSB1996WRNO,2019-09-26-10-40-03,8,37,0.5251782494008097,right,probe,ambiguous-stable,-1,40,right,right,0.08
MSB1996WRNO,2019-09-26-10-40-03,8,38,0.5489748641230288,right,both,ambiguous-stable,101,40,left,right,0.018
MSB1996WRNO,2019-09-26-10-40-03,8,39,0.556366693709704,left,probe,ambiguous-switch,-1,-30,left,left,0.079
MSB1996WRNO,2019-09-26-10-40-03,8,40,0.6959612337840112,left,both,ambiguous-switch,107,-30,left,right,0.072
MSB1996WRNO,2019-09-26-10-40-03,8,41,0.5230856561459829,right,probe,biased-switch,-1,-30,right,right,0.146
MSB1996WRNO,2019-09-26-10-40-03,8,42,0.5734403232542578,right,both,biased-switch,109,-30,right,right,0.157
MSB1996WRNO,2019-09-26-10-40-03,8,43,0.6267803224380759,right,probe,ambiguous-stable,-1,-10,right,right,0.079
MSB1996WRNO,2019-09-26-10-40-03,8,44,0.6955084077714895,right,both,ambiguous-stable,103,-10,left,right,0.046
MSB1996WRNO,2019-09-26-10-40-03,8,45,0.5524326074257536,left,probe,biased-switch,-1,5,right,right,0.08
MSB1996WRNO,2019-09-26-10-40-03,8,46,0.6292229276567789,left,both,biased-switch,104,5,right,left,1.953
MSB1996WRNO,2019-09-26-10-40-03,8,47,0.5974907963815197,right,probe,biased-switch,-1,-20,right,right,0.192
MSB1996WRNO,2019-09-26-10-40-03,8,48,0.5232014838060564,right,both,biased-switch,102,-20,right,right,0.181
MSB1996WRNO,2019-09-26-10-40-03,8,49,0.5580215270334901,right,probe,ambiguous-stable,-1,-5,right,right,0.155
MSB1996WRNO,2019-09-26-10-40-03,8,50,0.6071314233688223,right,both,ambiguous-stable,105,-5,left,right,0.154
MSB1996WRNO,2019-09-26-10-40-03,8,51,0.5753662585010076,left,probe,ambiguous-stable,-1,5,left,left,0.1
MSB1996WRNO,2019-09-26-10-40-03,8,52,0.5585285669340739,left,both,ambiguous-stable,93,5,right,left,0.122
MSB1996WRNO,2019-09-26-10-40-03,8,53,0.6944149979051064,left,probe,ambiguous-switch,-1,-5,left,left,1.221
MSB1996WRNO,2019-09-26-10-40-03,8,54,0.588725102299207,left,both,ambiguous-switch,103,-5,left,left,0.238
MSB1996WRNO,2019-09-26-10-40-03,8,55,0.6638846917843859,right,probe,ambiguous-switch,-1,-20,right,right,0.032
MSB1996WRNO,2019-09-26-10-40-03,8,56,0.507346877750899,right,both,ambiguous-switch,95,-20,right,right,0.225
MSB1996WRNO,2019-09-26-10-40-03,8,57,0.5360677395631355,left,probe,ambiguous-switch,-1,10,left,left,0.181
MSB1996WRNO,2019-09-26-10-40-03,8,58,0.6447651313027133,left,both,ambiguous-switch,106,10,left,left,0.876
MSB1996WRNO,2019-09-26-10-40-03,8,59,0.6606511130024564,right,probe,biased-switch,-1,0,right,right,0.148
MSB1996WRNO,2019-09-26-10-40-03,8,60,0.5999826057976247,right,both,biased-switch,90,0,right,right,0.162
MSB1996WRNO,2019-09-26-10-40-03,9,1,0.6111758564267505,right,probe,ambiguous-stable,-1,-30,right,right,0.156
MSB1996WRNO,2019-09-26-10-40-03,9,2,0.6633352450773443,right,both,ambiguous-stable,96,-30,left,right,0.036
MSB1996WRNO,2019-09-26-10-40-03,9,3,0.546676848886553,left,probe,biased-switch,-1,30,right,right,0.146
MSB1996WRNO,2019-09-26-10-40-03,9,4,0.5573798380277658,left,both,biased-switch,98,30,right,left,3.104
MSB1996WRNO,2019-09-26-10-40-03,9,5,0.6760265343287472,right,probe,biased-switch,-1,-20,right,right,0.13
MSB1996WRNO,2019-09-26-10-40-03,9,6,0.5001277083071523,right,both,biased-switch,109,-20,right,right,0.157
MSB1996WRNO,2019-09-26-10-40-03,9,7,0.623735283772243,right,probe,ambiguous-switch,-1,-20,right,right,0.128
MSB1996WRNO,2019-09-26-10-40-03,9,8,0.6983690390477604,right,both,ambiguous-switch,93,-20,right,right,0.173
MSB1996WRNO,2019-09-26-10-40-03,9,9,0.5541233898048509,left,probe,ambiguous-switch,-1,-30,left,left,0.134
MSB1996WRNO,2019-09-26-10-40-03,9,10,0.6089370810722059,left,both,ambiguous-switch,91,-30,left,right,0.072
MSB1996WRNO,2019-09-26-10-40-03,9,11,0.5010533376134623,left,probe,ambiguous-stable,-1,-10,right,right,0.045
MSB1996WRNO,2019-09-26-10-40-03,9,12,0.5298922787794464,left,both,ambiguous-stable,104,-10,left,right,1.186
MSB1996WRNO,2019-09-26-10-40-03,9,13,0.673576455822629,left,probe,ambiguous-stable,-1,0,left,left,0.15
MSB1996WRNO,2019-09-26-10-40-03,9,14,0.6901117324134476,left,both,ambiguous-stable,101,0,right,left,0.131
MSB1996WRNO,2019-09-26-10-40-03,9,15,0.6936150177734828,left,probe,ambiguous-switch,-1,20,left,left,0.216
MSB1996WRNO,2019-09-26-10-40-03,9,16,0.5513795149556461,left,both,ambiguous-switch,95,20,left,left,0.146
MSB1996WRNO,2019-09-26-10-40-03,9,17,0.5201001666186199,left,probe,ambiguous-stable,-1,5,right,right,0.344
MSB1996WRNO,2019-09-26-10-40-03,9,18,0.5834215820212163,left,both,ambiguous-stable,99,5,left,left,0.059
MSB1996WRNO,2019-09-26-10-40-03,9,19,0.544605411612599,right,probe,ambiguous-stable,-1,30,right,right,0.172
MSB1996WRNO,2019-09-26-10-40-03,9,20,0.5239401867533762,right,both,ambiguous-stable,90,30,left,right,0.113
MSB1996WRNO,2019-09-26-10-40-03,9,21,0.5363196788634927,left,probe,ambiguous-stable,-1,10,right,right,0.149
MSB1996WRNO,2019-09-26-10-40-03,9,22,0.5494120038370154,left,both,ambiguous-stable,103,10,left,left,0.17
MSB1996WRNO,2019-09-26-10-40-03,9,23,0.5160514871255465,left,probe,ambiguous-stable,-1,40,left,left,1.798
MSB1996WRNO,2019-09-26-10-40-03,9,24,0.5637119053715361,left,both,ambiguous-stable,105,40,right,left,0.218
MSB1996WRNO,2019-09-26-10-40-03,9,25,0.5885817582862876,left,probe,biased-switch,-1,10,left,left,0.096
MSB1996WRNO,2019-09-26-10-40-03,9,26,0.6528747422536961,left,both,biased-switch,103,10,left,right,0.176
MSB1996WRNO,2019-09-26-10-40-03,9,27,0.6513079335558567,left,probe,ambiguous-switch,-1,0,left,left,0.167
MSB1996WRNO,2019-09-26-10-40-03,9,28,0.6731826726302362,left,both,ambiguous-switch,92,0,left,left,0.145
MSB1996WRNO,2019-09-26-10-40-03,9,29,0.6043777760598557,right,probe,biased-switch,-1,-30,right,right,0.003
MSB1996WRNO,2019-09-26-10-40-03,9,30,0.5849588893101587,right,both,biased-switch,100,-30,right,right,0.219
MSB1996WRNO,2019-09-26-10-40-03,9,31,0.5173576958666697,left,probe,biased-switch,-1,0,left,left,0.162
MSB1996WRNO,2019-09-26-10-40-03,9,32,0.5932260969919658,left,both,biased-switch,94,0,left,right,0.123
MSB1996WRNO,2019-09-26-10-40-03,9,33,0.671415796243213,left,probe,ambiguous-switch,-1,-10,left,left,0.187
MSB1996WRNO,2019-09-26-10-40-03,9,34,0.644401126866331,left,both,ambiguous-switch,96,-10,left,left,0.174
MSB1996WRNO,2019-09-26-10-40-03,9,35,0.5616395526381177,right,probe,biased-switch,-1,-5,right,right,0.146
MSB1996WRNO,2019-09-26-10-40-03,9,36,0.543038102483088,right,both,biased-switch,94,-5,right,right,0.162
MSB1996WRNO,2019-09-26-10-40-03,9,37,0.6931200417060654,left,probe,biased-switch,-1,5,left,left,0.157
MSB1996WRNO,2019-09-26-10-40-03,9,38,0.5443458762058947,left,both,biased-switch,105,5,left,right,1.228
MSB1996WRNO,2019-09-26-10-40-03,9,39,0.6593595808951966,left,probe,ambiguous-switch,-1,40,left,left,0.172
MSB1996WRNO,2019-09-26-10-40-03,9,40,0.699939679082173,left,both,ambiguous-switch,106,40,left,left,0.141
MSB1996WRNO,2019-09-26-10-40-03,9,41,0.5227179909065931,left,probe,ambiguous-stable,-1,-5,left,left,0.175
MSB1996WRNO,2019-09-26-10-40-03,9,42,0.5146810666465426,left,both,ambiguous-stable,97,-5,right,left,0.157
MSB1996WRNO,2019-09-26-10-40-03,9,43,0.607382066831822,left,probe,ambiguous-stable,-1,-20,left,left,0.145
MSB1996WRNO,2019-09-26-10-40-03,9,44,0.6746322533559241,left,both,ambiguous-stable,106,-20,right,left,0.146
MSB1996WRNO,2019-09-26-10-40-03,9,45,0.6367386192108115,right,probe,ambiguous-switch,-1,5,right,right,0.033
MSB1996WRNO,2019-09-26-10-40-03,9,46,0.6889636983218032,right,both,ambiguous-switch,100,5,right,right,0.17
MSB1996WRNO,2019-09-26-10-40-03,9,47,0.5293777633670659,left,probe,ambiguous-switch,-1,10,left,left,0.21
MSB1996WRNO,2019-09-26-10-40-03,9,48,0.6978602322598867,left,both,ambiguous-switch,106,10,left,left,0.15
MSB1996WRNO,2019-09-26-10-40-03,9,49,0.6883072745210504,left,probe,biased-switch,-1,40,left,left,0.151
MSB1996WRNO,2019-09-26-10-40-03,9,50,0.5424124626167638,left,both,biased-switch,104,40,left,left,0.145
MSB1996WRNO,2019-09-26-10-40-03,9,51,0.6412389744034855,left,probe,ambiguous-stable,-1,20,left,left,0.122
MSB1996WRNO,2019-09-26-10-40-03,9,52,0.6863053163989234,left,both,ambiguous-stable,102,20,right,left,0.154
MSB1996WRNO,2019-09-26-10-40-03,9,53,0.5483032067786788,left,probe,ambiguous-switch,-1,-5,left,left,0.148
MSB1996WRNO,2019-09-26-10-40-03,9,54,0.5562484415273407,left,both,ambiguous-switch,105,-5,left,left,0.14
MSB1996WRNO,2019-09-26-10-40-03,9,55,0.631897676291627,right,probe,ambiguous-switch,-1,30,right,right,0.074
MSB1996WRNO,2019-09-26-10-40-03,9,56,0.6629903414914382,right,both,ambiguous-switch,110,30,right,right,0.182
MSB1996WRNO,2019-09-26-10-40-03,9,57,0.5848109492330472,right,probe,biased-switch,-1,-10,right,right,0.188
MSB1996WRNO,2019-09-26-10-40-03,9,58,0.6628360503394072,right,both,biased-switch,99,-10,right,right,0.207
MSB1996WRNO,2019-09-26-10-40-03,9,59,0.6768180204687076,left,probe,biased-switch,-1,20,left,left,0.161
MSB1996WRNO,2019-09-26-10-40-03,9,60,0.5651968342492806,left,both,biased-switch,91,20,left,right,0.083
MSB1996WRNO,2019-09-26-10-40-03,10,1,0.5307558519412485,left,probe,biased-switch,-1,30,left,left,0.159
MSB1996WRNO,2019-09-26-10-40-03,10,2,0.6381876550771467,left,both,biased-switch,107,30,left,right,1.273
MSB1996WRNO,2019-09-26-10-40-03,10,3,0.5091435898154254,left,probe,ambiguous-stable,-1,40,left,left,0.202
MSB1996WRNO,2019-09-26-10-40-03,10,4,0.673100887835558,left,both,ambiguous-stable,107,40,right,left,0.181
MSB1996WRNO,2019-09-26-10-40-03,10,5,0.5825012995808216,left,probe,ambiguous-switch,-1,-5,left,left,0.139
MSB1996WRNO,2019-09-26-10-40-03,10,6,0.6779080431764172,left,both,ambiguous-switch,102,-5,left,left,0.155
MSB1996WRNO,2019-09-26-10-40-03,10,7,0.5140487418100436,right,probe,biased-switch,-1,10,right,right,0.178
MSB1996WRNO,2019-09-26-10-40-03,10,8,0.5714641789530848,right,both,biased-switch,104,10,right,right,0.205
MSB1996WRNO,2019-09-26-10-40-03,10,9,0.5137670245204277,right,probe,biased-switch,-1,40,right,right,0.166
MSB1996WRNO,2019-09-26-10-40-03,10,10,0.6676874941009803,right,both,biased-switch,97,40,right,right,0.123
MSB1996WRNO,2019-09-26-10-40-03,10,11,0.635312355581489,left,probe,ambiguous-stable,-1,-5,left,left,0.118
MSB1996WRNO,2019-09-26-10-40-03,10,12,0.6589322961496615,left,both,ambiguous-stable,108,-5,right,left,0.154
MSB1996WRNO,2019-09-26-10-40-03,10,13,0.5305425217793824,right,probe,ambiguous-switch,-1,40,right,right,0.034
MSB1996WRNO,2019-09-26-10-40-03,10,14,0.5071144312928578,right,both,ambiguous-switch,98,40,right,right,0.234
MSB1996WRNO,2019-09-26-10-40-03,10,15,0.5796534550083996,left,probe,biased-switch,-1,5,left,left,0.154
MSB1996WRNO,2019-09-26-10-40-03,10,16,0.644764695908351,left,both,biased-switch,95,5,left,right,0.062
MSB1996WRNO,2019-09-26-10-40-03,10,17,0.5515443063539178,right,probe,ambiguous-stable,-1,-30,right,right,0.141
MSB1996WRNO,2019-09-26-10-40-03,10,18,0.6598757022364568,right,both,ambiguous-stable,108,-30,left,right,0.185
MSB1996WRNO,2019-09-26-10-40-03,10,19,0.6338960829497956,left,probe,ambiguous-switch,-1,5,left,left,0.165
MSB1996WRNO,2019-09-26-10-40-03,10,20,0.5561543374583464,left,both,ambiguous-switch,95,5,left,left,0.157
MSB1996WRNO,2019-09-26-10-40-03,10,21,0.5457743977476546,right,probe,ambiguous-switch,-1,20,right,right,0.212
MSB1996WRNO,2019-09-26-10-40-03,10,22,0.550788994319358,right,both,ambiguous-switch,99,20,right,right,0.176
MSB1996WRNO,2019-09-26-10-40-03,10,23,0.6799851283669832,left,probe,biased-switch,-1,20,left,left,0.116
MSB1996WRNO,2019-09-26-10-40-03,10,24,0.6940699155150704,left,both,biased-switch,107,20,left,right,1.336
MSB1996WRNO,2019-09-26-10-40-03,10,25,0.6750674098782499,left,probe,ambiguous-stable,-1,10,left,left,0.207
MSB1996WRNO,2019-09-26-10-40-03,10,26,0.6373128442158819,left,both,ambiguous-stable,92,10,right,right,0.041
MSB1996WRNO,2019-09-26-10-40-03,10,27,0.6309105807546158,right,probe,ambiguous-switch,-1,10,right,right,0.615
MSB1996WRNO,2019-09-26-10-40-03,10,28,0.542419275305029,right,both,ambiguous-switch,93,10,right,right,0.241
MSB1996WRNO,2019-09-26-10-40-03,10,29,0.6896090637614106,left,probe,biased-switch,-1,-5,left,left,0.198
MSB1996WRNO,2019-09-26-10-40-03,10,30,0.5504265807550751,left,both,biased-switch,106,-5,left,right,0.199
MSB1996WRNO,2019-09-26-10-40-03,10,31,0.5098136282517123,right,probe,ambiguous-stable,-1,0,right,right,0.356
MSB1996WRNO,2019-09-26-10-40-03,10,32,0.5363588232136816,right,both,ambiguous-stable,108,0,left,right,0.206
MSB1996WRNO,2019-09-26-10-40-03,10,33,0.6188621675957694,left,probe,ambiguous-switch,-1,0,left,left,0.18
MSB1996WRNO,2019-09-26-10-40-03,10,34,0.6415322656679046,left,both,ambiguous-switch,94,0,left,right,0.187
MSB1996WRNO,2019-09-26-10-40-03,10,35,0.6251582802759175,right,probe,biased-switch,-1,-20,left,left,0.826
MSB1996WRNO,2019-09-26-10-40-03,10,36,0.51360416725177,right,both,biased-switch,92,-20,left,right,0.195
MSB1996WRNO,2019-09-26-10-40-03,10,37,0.6668475953499328,right,probe,ambiguous-switch,-1,30,right,right,0.256
MSB1996WRNO,2019-09-26-10-40-03,10,38,0.6880992207081322,right,both,ambiguous-switch,99,30,right,right,0.184
MSB1996WRNO,2019-09-26-10-40-03,10,39,0.686102106923988,right,probe,ambiguous-switch,-1,-10,right,right,0.179
MSB1996WRNO,2019-09-26-10-40-03,10,40,0.5553814759823943,right,both,ambiguous-switch,109,-10,right,left,0.145
MSB1996WRNO,2019-09-26-10-40-03,10,41,0.6053917112249466,left,probe,biased-switch,-1,-10,right,right,0.182
MSB1996WRNO,2019-09-26-10-40-03,10,42,0.653553253378486,left,both,biased-switch,100,-10,right,right,0.159
MSB1996WRNO,2019-09-26-10-40-03,10,43,0.5740902099971228,left,probe,biased-switch,-1,-30,right,right,1.889
MSB1996WRNO,2019-09-26-10-40-03,10,44,0.6753582075253737,left,both,biased-switch,102,-30,right,right,0.213
MSB1996WRNO,2019-09-26-10-40-03,10,45,0.6351782966703142,left,probe,ambiguous-switch,-1,-20,right,right,0.146
MSB1996WRNO,2019-09-26-10-40-03,10,46,0.5796856086711699,left,both,ambiguous-switch,95,-20,right,left,0.159
MSB1996WRNO,2019-09-26-10-40-03,10,47,0.623164217444487,left,probe,ambiguous-stable,-1,20,left,left,0.164
MSB1996WRNO,2019-09-26-10-40-03,10,48,0.6292603872760058,left,both,ambiguous-stable,99,20,right,left,0.178
MSB1996WRNO,2019-09-26-10-40-03,10,49,0.5360204069203055,right,probe,ambiguous-stable,-1,-20,right,right,0.215
MSB1996WRNO,2019-09-26-10-40-03,10,50,0.5253132735575881,right,both,ambiguous-stable,110,-20,left,right,0.198
MSB1996WRNO,2019-09-26-10-40-03,10,51,0.682413254962349,left,probe,ambiguous-switch,-1,-30,left,left,0.179
MSB1996WRNO,2019-09-26-10-40-03,10,52,0.5532703445570013,left,both,ambiguous-switch,101,-30,left,left,0.19
MSB1996WRNO,2019-09-26-10-40-03,10,53,0.5237044778342443,left,probe,biased-switch,-1,0,left,left,0.175
MSB1996WRNO,2019-09-26-10-40-03,10,54,0.6967395999600787,left,both,biased-switch,109,0,left,right,0.128
MSB1996WRNO,2019-09-26-10-40-03,10,55,0.6433065030210577,right,probe,ambiguous-stable,-1,-10,right,right,0.126
MSB1996WRNO,2019-09-26-10-40-03,10,56,0.6688812559518251,right,both,ambiguous-stable,102,-10,left,right,0.169
MSB1996WRNO,2019-09-26-10-40-03,10,57,0.6308021164106946,left,probe,ambiguous-stable,-1,5,left,left,0.142
MSB1996WRNO,2019-09-26-10-40-03,10,58,0.5472645707692293,left,both,ambiguous-stable,101,5,right,left,0.125
MSB1996WRNO,2019-09-26-10-40-03,10,59,0.6921373671096107,right,probe,ambiguous-stable,-1,30,right,right,0.199
MSB1996WRNO,2019-09-26-10-40-03,10,60,0.6834969846845775,right,both,ambiguous-stable,106,30,left,right,0.213
