Participant,Session,Block,Trial,OnsetDelay,ProbeLocation,WhatIsReported,Condition,TriggerTime,ProbeSOA,PrimeDirection,Response,RT
MHN1998MRNO,2019-10-04-11-00-26,1,1,0.5475475316590502,left,probe,ambiguous-switch,-1,-10,left,left,0.402
MHN1998MRNO,2019-10-04-11-00-26,1,2,0.5017281724917205,left,both,ambiguous-switch,101,-10,left,right,0.41
MHN1998MRNO,2019-10-04-11-00-26,1,3,0.5850173463206442,left,probe,ambiguous-switch,-1,30,right,right,0.305
MHN1998MRNO,2019-10-04-11-00-26,1,4,0.5524335908969645,left,both,ambiguous-switch,93,30,right,right,0.4
MHN1998MRNO,2019-10-04-11-00-26,1,5,0.5089965368001523,left,probe,ambiguous-switch,-1,5,right,right,0.312
MHN1998MRNO,2019-10-04-11-00-26,1,6,0.546822919434652,left,both,ambiguous-switch,109,5,right,right,0.244
MHN1998MRNO,2019-10-04-11-00-26,1,7,0.6201784572274073,right,probe,biased-switch,-1,-30,right,right,0.214
MHN1998MRNO,2019-10-04-11-00-26,1,8,0.5025993073973148,right,both,biased-switch,95,-30,right,left,0.199
MHN1998MRNO,2019-10-04-11-00-26,1,9,0.50903853244356,left,probe,biased-switch,-1,5,left,left,0.158
MHN1998MRNO,2019-10-04-11-00-26,1,10,0.5181380955101308,left,both,biased-switch,92,5,left,right,0.207
MHN1998MRNO,2019-10-04-11-00-26,1,11,0.5406788534277178,left,probe,biased-switch,-1,40,right,right,0.168
MHN1998MRNO,2019-10-04-11-00-26,1,12,0.6198075066880246,left,both,biased-switch,101,40,right,right,0.224
MHN1998MRNO,2019-10-04-11-00-26,1,13,0.5409654682871552,left,probe,ambiguous-switch,-1,-20,right,right,0.222
MHN1998MRNO,2019-10-04-11-00-26,1,14,0.6159758486864964,left,both,ambiguous-switch,109,-20,right,right,0.182
MHN1998MRNO,2019-10-04-11-00-26,1,15,0.607610028535724,left,probe,ambiguous-switch,-1,20,right,right,0.172
MHN1998MRNO,2019-10-04-11-00-26,1,16,0.6923890581246568,left,both,ambiguous-switch,91,20,right,right,0.19
MHN1998MRNO,2019-10-04-11-00-26,1,17,0.641692391082691,right,probe,biased-switch,-1,-20,left,left,0.21
MHN1998MRNO,2019-10-04-11-00-26,1,18,0.502691676641826,right,both,biased-switch,104,-20,left,left,0.184
MHN1998MRNO,2019-10-04-11-00-26,1,19,0.5065179838858112,right,probe,biased-switch,-1,30,left,left,0.199
MHN1998MRNO,2019-10-04-11-00-26,1,20,0.5778330182556874,right,both,biased-switch,104,30,left,left,0.17
MHN1998MRNO,2019-10-04-11-00-26,1,21,0.5297443407873388,left,probe,ambiguous-switch,-1,-30,right,right,0.21
MHN1998MRNO,2019-10-04-11-00-26,1,22,0.5933299612704955,left,both,ambiguous-switch,92,-30,right,right,0.169
MHN1998MRNO,2019-10-04-11-00-26,1,23,0.6467501457312426,right,probe,biased-switch,-1,-5,left,left,0.195
MHN1998MRNO,2019-10-04-11-00-26,1,24,0.5620510726958163,right,both,biased-switch,92,-5,left,left,0.157
MHN1998MRNO,2019-10-04-11-00-26,1,25,0.6803030307030339,left,probe,biased-switch,-1,-10,right,right,0.238
MHN1998MRNO,2019-10-04-11-00-26,1,26,0.6908797763246721,left,both,biased-switch,106,-10,right,left,0.251
MHN1998MRNO,2019-10-04-11-00-26,1,27,0.6687473295777063,right,probe,biased-switch,-1,0,left,left,0.359
MHN1998MRNO,2019-10-04-11-00-26,1,28,0.6678726493443528,right,both,biased-switch,101,0,left,left,0.209
MHN1998MRNO,2019-10-04-11-00-26,1,29,0.6096521186673678,left,probe,ambiguous-switch,-1,0,left,left,0.213
MHN1998MRNO,2019-10-04-11-00-26,1,30,0.6076309603627461,left,both,ambiguous-switch,109,0,left,right,0.221
MHN1998MRNO,2019-10-04-11-00-26,1,31,0.5472368922882223,left,probe,ambiguous-switch,-1,40,right,right,0.202
MHN1998MRNO,2019-10-04-11-00-26,1,32,0.6509283135442103,left,both,ambiguous-switch,94,40,right,right,0.492
MHN1998MRNO,2019-10-04-11-00-26,1,33,0.5034306477326217,left,probe,ambiguous-switch,-1,-5,right,right,0.275
MHN1998MRNO,2019-10-04-11-00-26,1,34,0.5808335785997212,left,both,ambiguous-switch,98,-5,right,right,0.361
MHN1998MRNO,2019-10-04-11-00-26,1,35,0.674699980225613,left,probe,biased-switch,-1,20,right,right,0.383
MHN1998MRNO,2019-10-04-11-00-26,1,36,0.5879657213769162,left,both,biased-switch,91,20,right,right,0.401
MHN1998MRNO,2019-10-04-11-00-26,1,37,0.6841143735197147,left,probe,biased-switch,-1,10,right,right,0.412
MHN1998MRNO,2019-10-04-11-00-26,1,38,0.5391998804385286,left,both,biased-switch,108,10,right,right,0.497
MHN1998MRNO,2019-10-04-11-00-26,1,39,0.5094028269245974,left,probe,ambiguous-switch,-1,10,right,right,0.251
MHN1998MRNO,2019-10-04-11-00-26,1,40,0.5575402443267289,left,both,ambiguous-switch,102,10,right,right,0.184
MHN1998MRNO,2019-10-04-11-00-26,1,41,0.6481146364954279,left,probe,ambiguous-switch,-1,-10,right,right,0.204
MHN1998MRNO,2019-10-04-11-00-26,1,42,0.5101777665754285,left,both,ambiguous-switch,109,-10,right,right,0.154
MHN1998MRNO,2019-10-04-11-00-26,1,43,0.5997991611929069,right,probe,ambiguous-switch,-1,30,right,right,0.202
MHN1998MRNO,2019-10-04-11-00-26,1,44,0.682482719454581,right,both,ambiguous-switch,99,30,right,left,0.188
MHN1998MRNO,2019-10-04-11-00-26,1,45,0.5385093156125229,left,probe,ambiguous-switch,-1,5,right,right,0.167
MHN1998MRNO,2019-10-04-11-00-26,1,46,0.5739180186894141,left,both,ambiguous-switch,91,5,right,right,0.138
MHN1998MRNO,2019-10-04-11-00-26,1,47,0.5313126361080466,left,probe,biased-switch,-1,-30,right,right,0.087
MHN1998MRNO,2019-10-04-11-00-26,1,48,0.6768755123150412,left,both,biased-switch,91,-30,right,right,0.011
MHN1998MRNO,2019-10-04-11-00-26,1,49,0.5757142142045848,left,probe,biased-switch,-1,5,right,right,0.125
MHN1998MRNO,2019-10-04-11-00-26,1,50,0.6225595084686533,left,both,biased-switch,95,5,right,right,0.141
MHN1998MRNO,2019-10-04-11-00-26,1,51,0.5575630695785797,left,probe,biased-switch,-1,40,right,right,0.14
MHN1998MRNO,2019-10-04-11-00-26,1,52,0.507234516299748,left,both,biased-switch,103,40,right,right,0.198
MHN1998MRNO,2019-10-04-11-00-26,1,53,0.5560711581458406,right,probe,ambiguous-switch,-1,-20,right,right,0.176
MHN1998MRNO,2019-10-04-11-00-26,1,54,0.5610725991097759,right,both,ambiguous-switch,94,-20,right,right,0.14
MHN1998MRNO,2019-10-04-11-00-26,1,55,0.6854414591117555,right,probe,ambiguous-switch,-1,20,right,right,0.033
MHN1998MRNO,2019-10-04-11-00-26,1,56,0.5147466308372118,right,both,ambiguous-switch,96,20,right,left,0.226
MHN1998MRNO,2019-10-04-11-00-26,1,57,0.5010817490570306,left,probe,biased-switch,-1,-20,right,right,0.372
MHN1998MRNO,2019-10-04-11-00-26,1,58,0.6564647430218251,left,both,biased-switch,104,-20,right,right,0.2
MHN1998MRNO,2019-10-04-11-00-26,1,59,0.6559931851523101,left,probe,biased-switch,-1,30,right,right,0.18
MHN1998MRNO,2019-10-04-11-00-26,1,60,0.67395074675385,left,both,biased-switch,104,30,right,right,0.125
MHN1998MRNO,2019-10-04-11-00-26,1,61,0.5131223382250072,right,probe,ambiguous-switch,-1,-30,right,right,0.197
MHN1998MRNO,2019-10-04-11-00-26,1,62,0.50764643352962,right,both,ambiguous-switch,104,-30,right,left,0.228
MHN1998MRNO,2019-10-04-11-00-26,1,63,0.5675287765437167,right,probe,biased-switch,-1,-5,left,left,0.169
MHN1998MRNO,2019-10-04-11-00-26,1,64,0.6310681794941567,right,both,biased-switch,93,-5,left,left,0.202
MHN1998MRNO,2019-10-04-11-00-26,1,65,0.5862264569350789,left,probe,biased-switch,-1,-10,right,right,0.193
MHN1998MRNO,2019-10-04-11-00-26,1,66,0.6881809966278422,left,both,biased-switch,107,-10,right,right,0.058
MHN1998MRNO,2019-10-04-11-00-26,1,67,0.5559071242963313,right,probe,biased-switch,-1,0,left,left,0.207
MHN1998MRNO,2019-10-04-11-00-26,1,68,0.6458312866349685,right,both,biased-switch,106,0,left,left,0.206
MHN1998MRNO,2019-10-04-11-00-26,1,69,0.5939479093789496,right,probe,ambiguous-switch,-1,0,left,left,0.125
MHN1998MRNO,2019-10-04-11-00-26,1,70,0.5759843785034637,right,both,ambiguous-switch,95,0,left,left,0.084
MHN1998MRNO,2019-10-04-11-00-26,1,71,0.6125526679091006,left,probe,ambiguous-switch,-1,40,right,right,0.188
MHN1998MRNO,2019-10-04-11-00-26,1,72,0.6417242132807096,left,both,ambiguous-switch,93,40,right,right,0.172
MHN1998MRNO,2019-10-04-11-00-26,1,73,0.6524158801673063,left,probe,ambiguous-switch,-1,-5,right,right,0.182
MHN1998MRNO,2019-10-04-11-00-26,1,74,0.6071784851444941,left,both,ambiguous-switch,94,-5,right,right,0.067
MHN1998MRNO,2019-10-04-11-00-26,1,75,0.5134393487430116,right,probe,biased-switch,-1,20,right,right,0.053
MHN1998MRNO,2019-10-04-11-00-26,1,76,0.5994418070193267,right,both,biased-switch,104,20,right,left,0.202
MHN1998MRNO,2019-10-04-11-00-26,1,77,0.6714718493558571,right,probe,biased-switch,-1,10,left,left,0.219
MHN1998MRNO,2019-10-04-11-00-26,1,78,0.6684917556239042,right,both,biased-switch,90,10,left,left,0.087
MHN1998MRNO,2019-10-04-11-00-26,1,79,0.6631768030576671,left,probe,ambiguous-switch,-1,10,right,right,0.142
MHN1998MRNO,2019-10-04-11-00-26,1,80,0.5902724778580368,left,both,ambiguous-switch,99,10,right,left,0.178
MHN1998MRNO,2019-10-04-11-00-26,2,1,0.5036466645549151,right,probe,biased-switch,-1,-5,left,left,0.971
MHN1998MRNO,2019-10-04-11-00-26,2,2,0.5200421572986466,right,both,biased-switch,109,-5,left,left,0.209
MHN1998MRNO,2019-10-04-11-00-26,2,3,0.5531925129108206,left,probe,ambiguous-switch,-1,30,left,left,0.145
MHN1998MRNO,2019-10-04-11-00-26,2,4,0.5173031896912555,left,both,ambiguous-switch,97,30,left,right,0.208
MHN1998MRNO,2019-10-04-11-00-26,2,5,0.6827158975224031,left,probe,biased-switch,-1,5,right,right,0.163
MHN1998MRNO,2019-10-04-11-00-26,2,6,0.686496152923598,left,both,biased-switch,106,5,right,left,0.195
MHN1998MRNO,2019-10-04-11-00-26,2,7,0.693522376722963,left,probe,biased-switch,-1,-20,left,left,0.239
MHN1998MRNO,2019-10-04-11-00-26,2,8,0.5326030318185159,left,both,biased-switch,103,-20,left,right,0.234
MHN1998MRNO,2019-10-04-11-00-26,2,9,0.5556391058140902,left,probe,biased-switch,-1,-10,right,right,0.196
MHN1998MRNO,2019-10-04-11-00-26,2,10,0.559691943220879,left,both,biased-switch,105,-10,right,left,0.007
MHN1998MRNO,2019-10-04-11-00-26,2,11,0.6798201802952786,left,probe,biased-switch,-1,0,left,left,0.125
MHN1998MRNO,2019-10-04-11-00-26,2,12,0.5342650587687287,left,both,biased-switch,99,0,left,right,0.191
MHN1998MRNO,2019-10-04-11-00-26,2,13,0.6343565730418768,left,probe,ambiguous-switch,-1,0,right,right,0.066
MHN1998MRNO,2019-10-04-11-00-26,2,14,0.5245175120218019,left,both,ambiguous-switch,100,0,right,right,0.103
MHN1998MRNO,2019-10-04-11-00-26,2,15,0.5305337599377743,right,probe,ambiguous-switch,-1,5,left,left,0.174
MHN1998MRNO,2019-10-04-11-00-26,2,16,0.6166084841842137,right,both,ambiguous-switch,91,5,left,left,0.219
MHN1998MRNO,2019-10-04-11-00-26,2,17,0.6541871845301508,left,probe,ambiguous-switch,-1,20,right,right,0.184
MHN1998MRNO,2019-10-04-11-00-26,2,18,0.6593895039514882,left,both,ambiguous-switch,97,20,right,right,0.223
MHN1998MRNO,2019-10-04-11-00-26,2,19,0.6988081070958232,left,probe,biased-switch,-1,10,right,right,0.343
MHN1998MRNO,2019-10-04-11-00-26,2,20,0.6098798919497125,left,both,biased-switch,107,10,right,left,0.247
MHN1998MRNO,2019-10-04-11-00-26,2,21,0.6697719835341653,left,probe,ambiguous-switch,-1,10,left,left,0.198
MHN1998MRNO,2019-10-04-11-00-26,2,22,0.5057778237275519,left,both,ambiguous-switch,100,10,left,right,0.157
MHN1998MRNO,2019-10-04-11-00-26,2,23,0.6841412019508031,left,probe,ambiguous-switch,-1,-10,right,right,0.223
MHN1998MRNO,2019-10-04-11-00-26,2,24,0.5925709173004945,left,both,ambiguous-switch,98,-10,right,left,0.232
MHN1998MRNO,2019-10-04-11-00-26,2,25,0.5495629963970332,left,probe,ambiguous-switch,-1,-30,right,right,0.246
MHN1998MRNO,2019-10-04-11-00-26,2,26,0.5673248698506496,left,both,ambiguous-switch,106,-30,right,right,0.234
MHN1998MRNO,2019-10-04-11-00-26,2,27,0.5675260601331822,left,probe,ambiguous-switch,-1,-20,right,right,0.155
MHN1998MRNO,2019-10-04-11-00-26,2,28,0.64728421405877,left,both,ambiguous-switch,98,-20,right,right,0.221
MHN1998MRNO,2019-10-04-11-00-26,2,29,0.5999936234061277,left,probe,biased-switch,-1,-30,right,right,0.212
MHN1998MRNO,2019-10-04-11-00-26,2,30,0.6277992509132955,left,both,biased-switch,99,-30,right,left,0.183
MHN1998MRNO,2019-10-04-11-00-26,2,31,0.5343374602367764,left,probe,biased-switch,-1,20,left,left,0.1
MHN1998MRNO,2019-10-04-11-00-26,2,32,0.6251022179156327,left,both,biased-switch,97,20,left,right,0.222
MHN1998MRNO,2019-10-04-11-00-26,2,33,0.5800501492487535,left,probe,ambiguous-switch,-1,-5,right,right,0.183
MHN1998MRNO,2019-10-04-11-00-26,2,34,0.5578887623745381,left,both,ambiguous-switch,97,-5,right,right,0.201
MHN1998MRNO,2019-10-04-11-00-26,2,35,0.5202167660263609,right,probe,biased-switch,-1,40,left,left,0.385
MHN1998MRNO,2019-10-04-11-00-26,2,36,0.6984046492655303,right,both,biased-switch,104,40,left,left,0.207
MHN1998MRNO,2019-10-04-11-00-26,2,37,0.5222594891571083,left,probe,ambiguous-switch,-1,40,right,right,0.211
MHN1998MRNO,2019-10-04-11-00-26,2,38,0.5590349168295329,left,both,ambiguous-switch,91,40,right,right,0.261
MHN1998MRNO,2019-10-04-11-00-26,2,39,0.5097218551130044,right,probe,biased-switch,-1,30,left,left,0.203
MHN1998MRNO,2019-10-04-11-00-26,2,40,0.6777322434510413,right,both,biased-switch,94,30,left,left,0.199
MHN1998MRNO,2019-10-04-11-00-26,2,41,0.6218274617021644,right,probe,biased-switch,-1,-5,left,left,0.17
MHN1998MRNO,2019-10-04-11-00-26,2,42,0.6642050892329764,right,both,biased-switch,108,-5,left,left,0.209
MHN1998MRNO,2019-10-04-11-00-26,2,43,0.5722129670686312,left,probe,ambiguous-switch,-1,30,left,left,0.244
MHN1998MRNO,2019-10-04-11-00-26,2,44,0.6178733547944225,left,both,ambiguous-switch,98,30,left,right,0.315
MHN1998MRNO,2019-10-04-11-00-26,2,45,0.5677477083012143,right,probe,biased-switch,-1,5,left,left,0.311
MHN1998MRNO,2019-10-04-11-00-26,2,46,0.5864500213248053,right,both,biased-switch,106,5,left,left,0.155
MHN1998MRNO,2019-10-04-11-00-26,2,47,0.5871585275536009,left,probe,biased-switch,-1,-20,left,left,0.216
MHN1998MRNO,2019-10-04-11-00-26,2,48,0.6041441167360347,left,both,biased-switch,95,-20,left,left,0.212
MHN1998MRNO,2019-10-04-11-00-26,2,49,0.5566813464724626,right,probe,biased-switch,-1,-10,left,left,0.211
MHN1998MRNO,2019-10-04-11-00-26,2,50,0.6484127835414355,right,both,biased-switch,97,-10,left,left,0.191
MHN1998MRNO,2019-10-04-11-00-26,2,51,0.6703603750190523,left,probe,biased-switch,-1,0,left,left,0.265
MHN1998MRNO,2019-10-04-11-00-26,2,52,0.5018982143396732,left,both,biased-switch,103,0,left,right,0.67
MHN1998MRNO,2019-10-04-11-00-26,2,53,0.6308383359637507,right,probe,ambiguous-switch,-1,0,left,left,0.226
MHN1998MRNO,2019-10-04-11-00-26,2,54,0.5092646445739578,right,both,ambiguous-switch,105,0,left,left,0.207
MHN1998MRNO,2019-10-04-11-00-26,2,55,0.6129957373504361,right,probe,ambiguous-switch,-1,5,left,left,0.222
MHN1998MRNO,2019-10-04-11-00-26,2,56,0.5513477772566702,right,both,ambiguous-switch,94,5,left,right,0.299
MHN1998MRNO,2019-10-04-11-00-26,2,57,0.6847283954349753,left,probe,ambiguous-switch,-1,20,left,left,0.177
MHN1998MRNO,2019-10-04-11-00-26,2,58,0.6806793880553705,left,both,ambiguous-switch,106,20,left,right,0.253
MHN1998MRNO,2019-10-04-11-00-26,2,59,0.5004367870017316,left,probe,biased-switch,-1,10,right,right,0.225
MHN1998MRNO,2019-10-04-11-00-26,2,60,0.6749795959114812,left,both,biased-switch,99,10,right,left,0.215
MHN1998MRNO,2019-10-04-11-00-26,2,61,0.5711816998545322,left,probe,ambiguous-switch,-1,10,left,left,0.194
MHN1998MRNO,2019-10-04-11-00-26,2,62,0.5991463735101116,left,both,ambiguous-switch,99,10,left,left,0.246
MHN1998MRNO,2019-10-04-11-00-26,2,63,0.637084040655388,left,probe,ambiguous-switch,-1,-10,left,left,0.133
MHN1998MRNO,2019-10-04-11-00-26,2,64,0.5754892000129875,left,both,ambiguous-switch,99,-10,left,left,0.165
MHN1998MRNO,2019-10-04-11-00-26,2,65,0.6787841418522189,right,probe,ambiguous-switch,-1,-30,left,left,0.169
MHN1998MRNO,2019-10-04-11-00-26,2,66,0.6592301569897357,right,both,ambiguous-switch,96,-30,left,left,0.225
MHN1998MRNO,2019-10-04-11-00-26,2,67,0.6775842934380608,left,probe,ambiguous-switch,-1,-20,left,left,0.173
MHN1998MRNO,2019-10-04-11-00-26,2,68,0.6013629124543491,left,both,ambiguous-switch,91,-20,left,left,0.165
MHN1998MRNO,2019-10-04-11-00-26,2,69,0.5991073190461886,right,probe,biased-switch,-1,-30,left,left,0.158
MHN1998MRNO,2019-10-04-11-00-26,2,70,0.627643382529989,right,both,biased-switch,102,-30,left,left,0.184
MHN1998MRNO,2019-10-04-11-00-26,2,71,0.5849743280475813,right,probe,biased-switch,-1,20,left,left,0.174
MHN1998MRNO,2019-10-04-11-00-26,2,72,0.5094847059218687,right,both,biased-switch,97,20,left,left,0.107
MHN1998MRNO,2019-10-04-11-00-26,2,73,0.6796310671242867,right,probe,ambiguous-switch,-1,-5,left,left,0.201
MHN1998MRNO,2019-10-04-11-00-26,2,74,0.5566940004583087,right,both,ambiguous-switch,99,-5,left,left,0.003
MHN1998MRNO,2019-10-04-11-00-26,2,75,0.6449332599327918,left,probe,biased-switch,-1,40,left,left,0.162
MHN1998MRNO,2019-10-04-11-00-26,2,76,0.5975496939694284,left,both,biased-switch,106,40,left,left,0.227
MHN1998MRNO,2019-10-04-11-00-26,2,77,0.5301663370279713,right,probe,ambiguous-switch,-1,40,left,left,0.252
MHN1998MRNO,2019-10-04-11-00-26,2,78,0.5718192488556615,right,both,ambiguous-switch,91,40,left,left,0.206
MHN1998MRNO,2019-10-04-11-00-26,2,79,0.5443318847968687,left,probe,biased-switch,-1,30,left,left,0.522
MHN1998MRNO,2019-10-04-11-00-26,2,80,0.6005009732114788,left,both,biased-switch,96,30,left,left,4.396
MHN1998MRNO,2019-10-04-11-00-26,3,1,0.6484076346020032,right,probe,biased-switch,-1,-5,left,left,0.255
MHN1998MRNO,2019-10-04-11-00-26,3,2,0.6245997118689317,right,both,biased-switch,93,-5,left,left,0.244
MHN1998MRNO,2019-10-04-11-00-26,3,3,0.624414396724704,right,probe,ambiguous-switch,-1,-5,left,left,0.16
MHN1998MRNO,2019-10-04-11-00-26,3,4,0.6421812261339296,right,both,ambiguous-switch,110,-5,left,left,0.116
MHN1998MRNO,2019-10-04-11-00-26,3,5,0.6202644511217213,left,probe,biased-switch,-1,-20,left,left,0.142
MHN1998MRNO,2019-10-04-11-00-26,3,6,0.5431323570321208,left,both,biased-switch,91,-20,left,left,0.078
MHN1998MRNO,2019-10-04-11-00-26,3,7,0.5820062343202624,left,probe,biased-switch,-1,20,left,left,0.193
MHN1998MRNO,2019-10-04-11-00-26,3,8,0.6073366048298687,left,both,biased-switch,106,20,left,left,0.207
MHN1998MRNO,2019-10-04-11-00-26,3,9,0.5644640023434879,left,probe,ambiguous-switch,-1,0,left,left,0.153
MHN1998MRNO,2019-10-04-11-00-26,3,10,0.5003587863803576,left,both,ambiguous-switch,101,0,left,left,0.232
MHN1998MRNO,2019-10-04-11-00-26,3,11,0.5805379862615223,right,probe,biased-switch,-1,30,left,left,0.191
MHN1998MRNO,2019-10-04-11-00-26,3,12,0.6403087520357534,right,both,biased-switch,107,30,left,left,0.253
MHN1998MRNO,2019-10-04-11-00-26,3,13,0.5104355344407858,left,probe,biased-switch,-1,-30,left,left,0.212
MHN1998MRNO,2019-10-04-11-00-26,3,14,0.529037238824485,left,both,biased-switch,101,-30,left,left,0.253
MHN1998MRNO,2019-10-04-11-00-26,3,15,0.5628131651055124,right,probe,ambiguous-switch,-1,10,left,left,0.094
MHN1998MRNO,2019-10-04-11-00-26,3,16,0.5982389998580653,right,both,ambiguous-switch,109,10,left,right,0.226
MHN1998MRNO,2019-10-04-11-00-26,3,17,0.6128337782676829,right,probe,biased-switch,-1,40,left,left,0.198
MHN1998MRNO,2019-10-04-11-00-26,3,18,0.509985490952,right,both,biased-switch,106,40,left,left,0.231
MHN1998MRNO,2019-10-04-11-00-26,3,19,0.6492121539385503,left,probe,biased-switch,-1,-10,left,left,0.233
MHN1998MRNO,2019-10-04-11-00-26,3,20,0.6685195465818287,left,both,biased-switch,92,-10,left,left,0.185
MHN1998MRNO,2019-10-04-11-00-26,3,21,0.5850210241202043,left,probe,ambiguous-switch,-1,30,left,left,0.199
MHN1998MRNO,2019-10-04-11-00-26,3,22,0.5117204275395052,left,both,ambiguous-switch,97,30,left,left,0.142
MHN1998MRNO,2019-10-04-11-00-26,3,23,0.5673736225743732,left,probe,biased-switch,-1,5,left,left,0.206
MHN1998MRNO,2019-10-04-11-00-26,3,24,0.5750371372236994,left,both,biased-switch,106,5,left,right,0.182
MHN1998MRNO,2019-10-04-11-00-26,3,25,0.5436741290332685,left,probe,ambiguous-switch,-1,-30,left,left,0.264
MHN1998MRNO,2019-10-04-11-00-26,3,26,0.6445256360496544,left,both,ambiguous-switch,103,-30,left,left,0.149
MHN1998MRNO,2019-10-04-11-00-26,3,27,0.6544460398136024,right,probe,ambiguous-switch,-1,20,left,left,0.221
MHN1998MRNO,2019-10-04-11-00-26,3,28,0.6735950849890716,right,both,ambiguous-switch,109,20,left,left,0.224
MHN1998MRNO,2019-10-04-11-00-26,3,29,0.5756457171443966,right,probe,biased-switch,-1,10,left,left,0.153
MHN1998MRNO,2019-10-04-11-00-26,3,30,0.5914323434122954,right,both,biased-switch,98,10,left,right,0.262
MHN1998MRNO,2019-10-04-11-00-26,3,31,0.6305769177013658,left,probe,ambiguous-switch,-1,-20,left,left,0.164
MHN1998MRNO,2019-10-04-11-00-26,3,32,0.6988337107438349,left,both,ambiguous-switch,93,-20,left,right,0.243
MHN1998MRNO,2019-10-04-11-00-26,3,33,0.6226123513559867,right,probe,ambiguous-switch,-1,5,left,left,0.23
MHN1998MRNO,2019-10-04-11-00-26,3,34,0.626249350819749,right,both,ambiguous-switch,96,5,left,right,0.163
MHN1998MRNO,2019-10-04-11-00-26,3,35,0.586889143518937,right,probe,ambiguous-switch,-1,-10,left,left,2.759
MHN1998MRNO,2019-10-04-11-00-26,3,36,0.5887531008538818,right,both,ambiguous-switch,90,-10,left,left,0.182
MHN1998MRNO,2019-10-04-11-00-26,3,37,0.5198146101787083,left,probe,biased-switch,-1,0,left,left,0.349
MHN1998MRNO,2019-10-04-11-00-26,3,38,0.6220729821085226,left,both,biased-switch,103,0,left,right,0.26
MHN1998MRNO,2019-10-04-11-00-26,3,39,0.5472077319170388,left,probe,ambiguous-switch,-1,40,right,right,0.169
MHN1998MRNO,2019-10-04-11-00-26,3,40,0.6791509018428367,left,both,ambiguous-switch,101,40,right,right,0.295
MHN1998MRNO,2019-10-04-11-00-26,3,41,0.572739476361554,left,probe,biased-switch,-1,-5,right,right,0.255
MHN1998MRNO,2019-10-04-11-00-26,3,42,0.5235660126580336,left,both,biased-switch,104,-5,right,right,0.245
MHN1998MRNO,2019-10-04-11-00-26,3,43,0.5964104680069184,right,probe,ambiguous-switch,-1,-5,right,right,0.232
MHN1998MRNO,2019-10-04-11-00-26,3,44,0.5434429201630027,right,both,ambiguous-switch,99,-5,right,right,0.266
MHN1998MRNO,2019-10-04-11-00-26,3,45,0.5080321467875504,right,probe,biased-switch,-1,-20,right,right,0.228
MHN1998MRNO,2019-10-04-11-00-26,3,46,0.5783106179818792,right,both,biased-switch,109,-20,right,right,0.265
MHN1998MRNO,2019-10-04-11-00-26,3,47,0.5205810938827996,right,probe,biased-switch,-1,20,right,right,0.21
MHN1998MRNO,2019-10-04-11-00-26,3,48,0.6851977811016438,right,both,biased-switch,108,20,right,right,0.164
MHN1998MRNO,2019-10-04-11-00-26,3,49,0.5653224931393124,left,probe,ambiguous-switch,-1,0,right,right,0.336
MHN1998MRNO,2019-10-04-11-00-26,3,50,0.6156228998846663,left,both,ambiguous-switch,93,0,right,right,0.16
MHN1998MRNO,2019-10-04-11-00-26,3,51,0.5909868510467894,left,probe,biased-switch,-1,30,right,right,0.264
MHN1998MRNO,2019-10-04-11-00-26,3,52,0.6556932901481072,left,both,biased-switch,99,30,right,right,0.251
MHN1998MRNO,2019-10-04-11-00-26,3,53,0.6575852787866636,left,probe,biased-switch,-1,-30,right,right,0.247
MHN1998MRNO,2019-10-04-11-00-26,3,54,0.6312160989753888,left,both,biased-switch,94,-30,right,right,0.23
MHN1998MRNO,2019-10-04-11-00-26,3,55,0.5234936932752916,left,probe,ambiguous-switch,-1,10,right,right,0.553
MHN1998MRNO,2019-10-04-11-00-26,3,56,0.6933294091887015,left,both,ambiguous-switch,104,10,right,right,0.189
MHN1998MRNO,2019-10-04-11-00-26,3,57,0.6236437574105695,right,probe,biased-switch,-1,40,right,right,0.15
MHN1998MRNO,2019-10-04-11-00-26,3,58,0.6043872393835669,right,both,biased-switch,96,40,right,right,0.226
MHN1998MRNO,2019-10-04-11-00-26,3,59,0.6300443102932637,right,probe,biased-switch,-1,-10,right,right,0.112
MHN1998MRNO,2019-10-04-11-00-26,3,60,0.6355013363521038,right,both,biased-switch,100,-10,right,right,0.335
MHN1998MRNO,2019-10-04-11-00-26,3,61,0.6358798052382639,left,probe,ambiguous-switch,-1,30,right,right,0.172
MHN1998MRNO,2019-10-04-11-00-26,3,62,0.6152333019998611,left,both,ambiguous-switch,102,30,right,right,0.138
MHN1998MRNO,2019-10-04-11-00-26,3,63,0.6948838467318306,left,probe,biased-switch,-1,5,right,right,0.155
MHN1998MRNO,2019-10-04-11-00-26,3,64,0.6227249300851627,left,both,biased-switch,104,5,right,right,0.128
MHN1998MRNO,2019-10-04-11-00-26,3,65,0.6632832227785218,right,probe,ambiguous-switch,-1,-30,right,right,0.044
MHN1998MRNO,2019-10-04-11-00-26,3,66,0.5434171651304252,right,both,ambiguous-switch,105,-30,right,right,0.194
MHN1998MRNO,2019-10-04-11-00-26,3,67,0.573583293307179,left,probe,ambiguous-switch,-1,20,right,right,0.06
MHN1998MRNO,2019-10-04-11-00-26,3,68,0.6521874645363288,left,both,ambiguous-switch,97,20,right,right,0.174
MHN1998MRNO,2019-10-04-11-00-26,3,69,0.5395193367996006,left,probe,biased-switch,-1,10,right,right,0.265
MHN1998MRNO,2019-10-04-11-00-26,3,70,0.5626234044593044,left,both,biased-switch,90,10,right,right,0.215
MHN1998MRNO,2019-10-04-11-00-26,3,71,0.6834075398712419,left,probe,ambiguous-switch,-1,-20,right,right,0.365
MHN1998MRNO,2019-10-04-11-00-26,3,72,0.5588846680471724,left,both,ambiguous-switch,94,-20,right,right,0.291
MHN1998MRNO,2019-10-04-11-00-26,3,73,0.5135323625241031,right,probe,ambiguous-switch,-1,5,right,right,0.126
MHN1998MRNO,2019-10-04-11-00-26,3,74,0.660822645523845,right,both,ambiguous-switch,99,5,right,left,0.323
MHN1998MRNO,2019-10-04-11-00-26,3,75,0.6491241118754505,left,probe,ambiguous-switch,-1,-10,right,right,0.166
MHN1998MRNO,2019-10-04-11-00-26,3,76,0.5792151890045811,left,both,ambiguous-switch,109,-10,right,right,0.179
MHN1998MRNO,2019-10-04-11-00-26,3,77,0.533554621805327,right,probe,biased-switch,-1,0,right,right,0.172
MHN1998MRNO,2019-10-04-11-00-26,3,78,0.6001732475213036,right,both,biased-switch,95,0,right,left,0.176
MHN1998MRNO,2019-10-04-11-00-26,3,79,0.661345066214331,left,probe,ambiguous-switch,-1,40,right,right,0.188
MHN1998MRNO,2019-10-04-11-00-26,3,80,0.6385965680439246,left,both,ambiguous-switch,104,40,right,right,0.19
MHN1998MRNO,2019-10-04-11-00-26,4,1,0.6282400214068664,left,probe,ambiguous-switch,-1,30,right,right,0.365
MHN1998MRNO,2019-10-04-11-00-26,4,2,0.6078071989135426,left,both,ambiguous-switch,103,30,right,right,0.207
MHN1998MRNO,2019-10-04-11-00-26,4,3,0.5728863584010306,right,probe,biased-switch,-1,20,right,right,0.205
MHN1998MRNO,2019-10-04-11-00-26,4,4,0.6555894943336175,right,both,biased-switch,108,20,right,right,0.207
MHN1998MRNO,2019-10-04-11-00-26,4,5,0.6803182264077687,right,probe,ambiguous-switch,-1,-5,right,right,0.201
MHN1998MRNO,2019-10-04-11-00-26,4,6,0.6048677016910459,right,both,ambiguous-switch,109,-5,right,right,0.081
MHN1998MRNO,2019-10-04-11-00-26,4,7,0.6943462856981668,right,probe,biased-switch,-1,-20,right,right,0.116
MHN1998MRNO,2019-10-04-11-00-26,4,8,0.5856885515864473,right,both,biased-switch,98,-20,right,right,0.056
MHN1998MRNO,2019-10-04-11-00-26,4,9,0.6462383433226251,right,probe,biased-switch,-1,40,right,right,0.105
MHN1998MRNO,2019-10-04-11-00-26,4,10,0.5765291222932574,right,both,biased-switch,101,40,right,right,0.192
MHN1998MRNO,2019-10-04-11-00-26,4,11,0.5328759549293446,right,probe,ambiguous-switch,-1,5,right,right,0.191
MHN1998MRNO,2019-10-04-11-00-26,4,12,0.6726236520349718,right,both,ambiguous-switch,106,5,right,right,0.21
MHN1998MRNO,2019-10-04-11-00-26,4,13,0.6463356418208435,right,probe,biased-switch,-1,-5,right,right,0.357
MHN1998MRNO,2019-10-04-11-00-26,4,14,0.5721644283420104,right,both,biased-switch,94,-5,right,right,0.173
MHN1998MRNO,2019-10-04-11-00-26,4,15,0.599257988218411,right,probe,biased-switch,-1,30,right,right,0.166
MHN1998MRNO,2019-10-04-11-00-26,4,16,0.5667796717936747,right,both,biased-switch,108,30,right,right,0.206
MHN1998MRNO,2019-10-04-11-00-26,4,17,0.5316494622366471,left,probe,ambiguous-switch,-1,20,right,right,0.183
MHN1998MRNO,2019-10-04-11-00-26,4,18,0.621666268366728,left,both,ambiguous-switch,90,20,right,left,0.277
MHN1998MRNO,2019-10-04-11-00-26,4,19,0.5976490178229993,left,probe,ambiguous-switch,-1,-10,right,right,0.159
MHN1998MRNO,2019-10-04-11-00-26,4,20,0.667232528640019,left,both,ambiguous-switch,109,-10,right,left,0.21
MHN1998MRNO,2019-10-04-11-00-26,4,21,0.5925089772929021,left,probe,ambiguous-switch,-1,10,right,right,0.09
MHN1998MRNO,2019-10-04-11-00-26,4,22,0.6702870840193702,left,both,ambiguous-switch,99,10,right,left,0.198
MHN1998MRNO,2019-10-04-11-00-26,4,23,0.5258646651226193,right,probe,biased-switch,-1,-10,right,right,0.164
MHN1998MRNO,2019-10-04-11-00-26,4,24,0.6009342819994038,right,both,biased-switch,103,-10,right,left,0.275
MHN1998MRNO,2019-10-04-11-00-26,4,25,0.500763215570909,left,probe,biased-switch,-1,-30,right,right,0.201
MHN1998MRNO,2019-10-04-11-00-26,4,26,0.5637818271037758,left,both,biased-switch,108,-30,right,right,0.192
MHN1998MRNO,2019-10-04-11-00-26,4,27,0.5023551215697514,left,probe,ambiguous-switch,-1,-20,right,right,0.198
MHN1998MRNO,2019-10-04-11-00-26,4,28,0.6334253038460229,left,both,ambiguous-switch,106,-20,right,right,0.201
MHN1998MRNO,2019-10-04-11-00-26,4,29,0.6276276551359414,right,probe,biased-switch,-1,5,right,right,0.118
MHN1998MRNO,2019-10-04-11-00-26,4,30,0.6888057519349153,right,both,biased-switch,105,5,right,left,0.155
MHN1998MRNO,2019-10-04-11-00-26,4,31,0.6638197191571149,left,probe,biased-switch,-1,10,right,right,0.121
MHN1998MRNO,2019-10-04-11-00-26,4,32,0.5357719302031767,left,both,biased-switch,101,10,right,left,0.239
MHN1998MRNO,2019-10-04-11-00-26,4,33,0.637818418264507,left,probe,ambiguous-switch,-1,0,right,right,0.198
MHN1998MRNO,2019-10-04-11-00-26,4,34,0.5995077847897804,left,both,ambiguous-switch,92,0,right,left,0.144
MHN1998MRNO,2019-10-04-11-00-26,4,35,0.6861127905718885,left,probe,biased-switch,-1,0,right,right,0.242
MHN1998MRNO,2019-10-04-11-00-26,4,36,0.5600404592806867,left,both,biased-switch,103,0,right,left,0.202
MHN1998MRNO,2019-10-04-11-00-26,4,37,0.6254478578460347,left,probe,ambiguous-switch,-1,40,left,left,0.218
MHN1998MRNO,2019-10-04-11-00-26,4,38,0.6286402493868642,left,both,ambiguous-switch,108,40,left,left,0.339
MHN1998MRNO,2019-10-04-11-00-26,4,39,0.5313917817646605,left,probe,ambiguous-switch,-1,-30,left,left,0.219
MHN1998MRNO,2019-10-04-11-00-26,4,40,0.681718490936665,left,both,ambiguous-switch,104,-30,left,left,0.26
MHN1998MRNO,2019-10-04-11-00-26,4,41,0.5672303886070187,left,probe,ambiguous-switch,-1,30,left,left,0.143
MHN1998MRNO,2019-10-04-11-00-26,4,42,0.6038748249633811,left,both,ambiguous-switch,103,30,left,left,0.201
MHN1998MRNO,2019-10-04-11-00-26,4,43,0.5011901412206293,left,probe,biased-switch,-1,20,left,left,0.159
MHN1998MRNO,2019-10-04-11-00-26,4,44,0.5958368304686,left,both,biased-switch,93,20,left,right,0.249
MHN1998MRNO,2019-10-04-11-00-26,4,45,0.683261748464255,left,probe,ambiguous-switch,-1,-5,right,right,0.223
MHN1998MRNO,2019-10-04-11-00-26,4,46,0.6007581562270361,left,both,ambiguous-switch,101,-5,right,left,0.277
MHN1998MRNO,2019-10-04-11-00-26,4,47,0.6086879546964489,left,probe,biased-switch,-1,-20,left,left,0.432
MHN1998MRNO,2019-10-04-11-00-26,4,48,0.5165363603223181,left,both,biased-switch,100,-20,left,left,0.245
MHN1998MRNO,2019-10-04-11-00-26,4,49,0.6384324550764382,right,probe,biased-switch,-1,40,right,right,0.012
MHN1998MRNO,2019-10-04-11-00-26,4,50,0.5901516769064944,right,both,biased-switch,95,40,right,left,0.252
MHN1998MRNO,2019-10-04-11-00-26,4,51,0.6529146938319399,left,probe,ambiguous-switch,-1,5,right,right,0.199
MHN1998MRNO,2019-10-04-11-00-26,4,52,0.6611859914830369,left,both,ambiguous-switch,93,5,right,left,0.143
MHN1998MRNO,2019-10-04-11-00-26,4,53,0.6823279791787039,left,probe,biased-switch,-1,-5,left,left,0.23
MHN1998MRNO,2019-10-04-11-00-26,4,54,0.6574793245020318,left,both,biased-switch,99,-5,left,right,0.416
MHN1998MRNO,2019-10-04-11-00-26,4,55,0.5808005064672621,right,probe,biased-switch,-1,30,left,left,0.161
MHN1998MRNO,2019-10-04-11-00-26,4,56,0.537115982532944,right,both,biased-switch,98,30,left,left,0.172
MHN1998MRNO,2019-10-04-11-00-26,4,57,0.6455841167198151,right,probe,ambiguous-switch,-1,20,left,left,0.154
MHN1998MRNO,2019-10-04-11-00-26,4,58,0.5519456067914696,right,both,ambiguous-switch,98,20,left,left,0.348
MHN1998MRNO,2019-10-04-11-00-26,4,59,0.6428594276622226,left,probe,ambiguous-switch,-1,-10,left,left,0.195
MHN1998MRNO,2019-10-04-11-00-26,4,60,0.6210633501324563,left,both,ambiguous-switch,91,-10,left,left,0.223
MHN1998MRNO,2019-10-04-11-00-26,4,61,0.5726759098742539,right,probe,ambiguous-switch,-1,10,left,left,0.176
MHN1998MRNO,2019-10-04-11-00-26,4,62,0.5081389944802124,right,both,ambiguous-switch,100,10,left,right,0.16
MHN1998MRNO,2019-10-04-11-00-26,4,63,0.5228429699031326,left,probe,biased-switch,-1,-10,left,left,0.259
MHN1998MRNO,2019-10-04-11-00-26,4,64,0.5951839023960848,left,both,biased-switch,97,-10,left,left,0.262
MHN1998MRNO,2019-10-04-11-00-26,4,65,0.6469905139440487,right,probe,biased-switch,-1,-30,left,left,0.202
MHN1998MRNO,2019-10-04-11-00-26,4,66,0.6197003980933111,right,both,biased-switch,106,-30,left,left,0.123
MHN1998MRNO,2019-10-04-11-00-26,4,67,0.5748729423059308,right,probe,ambiguous-switch,-1,-20,left,left,0.145
MHN1998MRNO,2019-10-04-11-00-26,4,68,0.6482399037151632,right,both,ambiguous-switch,102,-20,left,left,0.183
MHN1998MRNO,2019-10-04-11-00-26,4,69,0.5645199117845111,right,probe,biased-switch,-1,5,left,left,0.192
MHN1998MRNO,2019-10-04-11-00-26,4,70,0.6193444559204929,right,both,biased-switch,104,5,left,right,0.293
MHN1998MRNO,2019-10-04-11-00-26,4,71,0.5249313331336785,left,probe,biased-switch,-1,10,left,left,0.22
MHN1998MRNO,2019-10-04-11-00-26,4,72,0.5434584579318306,left,both,biased-switch,103,10,left,right,0.231
MHN1998MRNO,2019-10-04-11-00-26,4,73,0.5974570113770553,left,probe,ambiguous-switch,-1,0,left,left,0.282
MHN1998MRNO,2019-10-04-11-00-26,4,74,0.5786736256644591,left,both,ambiguous-switch,109,0,left,right,0.22
MHN1998MRNO,2019-10-04-11-00-26,4,75,0.6232363773436623,left,probe,biased-switch,-1,0,right,right,0.113
MHN1998MRNO,2019-10-04-11-00-26,4,76,0.5577713016539272,left,both,biased-switch,96,0,right,left,0.172
MHN1998MRNO,2019-10-04-11-00-26,4,77,0.6664697132183448,left,probe,ambiguous-switch,-1,40,left,left,0.609
MHN1998MRNO,2019-10-04-11-00-26,4,78,0.6732494545296762,left,both,ambiguous-switch,107,40,left,left,0.279
MHN1998MRNO,2019-10-04-11-00-26,4,79,0.6316940339148497,right,probe,ambiguous-switch,-1,-30,left,left,0.333
MHN1998MRNO,2019-10-04-11-00-26,4,80,0.6304297792533132,right,both,ambiguous-switch,94,-30,left,left,0.213
MHN1998MRNO,2019-10-04-11-00-26,5,1,0.6301290063819306,right,probe,biased-switch,-1,5,left,left,0.19
MHN1998MRNO,2019-10-04-11-00-26,5,2,0.6371572701221495,right,both,biased-switch,101,5,left,right,0.197
MHN1998MRNO,2019-10-04-11-00-26,5,3,0.5045830304016695,left,probe,ambiguous-switch,-1,-10,right,right,0.182
MHN1998MRNO,2019-10-04-11-00-26,5,4,0.6926522495550969,left,both,ambiguous-switch,99,-10,right,left,0.474
MHN1998MRNO,2019-10-04-11-00-26,5,5,0.6220993856181675,left,probe,ambiguous-switch,-1,10,left,left,0.175
MHN1998MRNO,2019-10-04-11-00-26,5,6,0.6656155932265699,left,both,ambiguous-switch,97,10,left,right,0.238
MHN1998MRNO,2019-10-04-11-00-26,5,7,0.5088644422399693,right,probe,biased-switch,-1,-10,left,left,0.082
MHN1998MRNO,2019-10-04-11-00-26,5,8,0.6960036210900621,right,both,biased-switch,100,-10,left,left,0.058
MHN1998MRNO,2019-10-04-11-00-26,5,9,0.5452198914079562,right,probe,biased-switch,-1,0,left,left,0.157
MHN1998MRNO,2019-10-04-11-00-26,5,10,0.5216439377954346,right,both,biased-switch,101,0,left,right,0.176
MHN1998MRNO,2019-10-04-11-00-26,5,11,0.6326000073603446,left,probe,ambiguous-switch,-1,30,left,left,0.228
MHN1998MRNO,2019-10-04-11-00-26,5,12,0.6110780665819708,left,both,ambiguous-switch,103,30,left,left,0.287
MHN1998MRNO,2019-10-04-11-00-26,5,13,0.5991898258549271,right,probe,ambiguous-switch,-1,5,left,left,0.092
MHN1998MRNO,2019-10-04-11-00-26,5,14,0.5053164209913766,right,both,ambiguous-switch,93,5,left,right,0.203
MHN1998MRNO,2019-10-04-11-00-26,5,15,0.5837797038064483,right,probe,ambiguous-switch,-1,-5,right,right,0.179
MHN1998MRNO,2019-10-04-11-00-26,5,16,0.5815438877701778,right,both,ambiguous-switch,93,-5,right,right,0.256
MHN1998MRNO,2019-10-04-11-00-26,5,17,0.5866774643823081,left,probe,biased-switch,-1,30,left,left,0.809
MHN1998MRNO,2019-10-04-11-00-26,5,18,0.6664778460209335,left,both,biased-switch,99,30,left,right,0.224
MHN1998MRNO,2019-10-04-11-00-26,5,19,0.5499173228101428,right,probe,ambiguous-switch,-1,0,left,left,0.16
MHN1998MRNO,2019-10-04-11-00-26,5,20,0.5432146491729738,right,both,ambiguous-switch,101,0,left,left,0.224
MHN1998MRNO,2019-10-04-11-00-26,5,21,0.6483105094151784,left,probe,biased-switch,-1,20,left,left,0.142
MHN1998MRNO,2019-10-04-11-00-26,5,22,0.6786868659470935,left,both,biased-switch,100,20,left,left,0.201
MHN1998MRNO,2019-10-04-11-00-26,5,23,0.6621962849368509,right,probe,ambiguous-switch,-1,40,left,left,0.254
MHN1998MRNO,2019-10-04-11-00-26,5,24,0.6961009539989189,right,both,ambiguous-switch,101,40,left,left,0.22
MHN1998MRNO,2019-10-04-11-00-26,5,25,0.5876329034800053,left,probe,ambiguous-switch,-1,-30,left,left,0.168
MHN1998MRNO,2019-10-04-11-00-26,5,26,0.519423353267283,left,both,ambiguous-switch,109,-30,left,left,0.225
MHN1998MRNO,2019-10-04-11-00-26,5,27,0.6910765544550324,right,probe,ambiguous-switch,-1,20,left,left,0.196
MHN1998MRNO,2019-10-04-11-00-26,5,28,0.5799897307726941,right,both,ambiguous-switch,104,20,left,right,0.144
MHN1998MRNO,2019-10-04-11-00-26,5,29,0.646489432073689,right,probe,ambiguous-switch,-1,-20,right,right,0.099
MHN1998MRNO,2019-10-04-11-00-26,5,30,0.5214766211439866,right,both,ambiguous-switch,107,-20,right,right,0.191
MHN1998MRNO,2019-10-04-11-00-26,5,31,0.5286048910831272,right,probe,biased-switch,-1,-20,right,right,0.128
MHN1998MRNO,2019-10-04-11-00-26,5,32,0.5464608208668628,right,both,biased-switch,99,-20,right,left,0.268
MHN1998MRNO,2019-10-04-11-00-26,5,33,0.6515603490136128,left,probe,biased-switch,-1,-30,right,right,0.141
MHN1998MRNO,2019-10-04-11-00-26,5,34,0.5151861755747535,left,both,biased-switch,102,-30,right,right,0.16
MHN1998MRNO,2019-10-04-11-00-26,5,35,0.6046036419352893,right,probe,biased-switch,-1,10,right,right,0.007
MHN1998MRNO,2019-10-04-11-00-26,5,36,0.552560297761788,right,both,biased-switch,91,10,right,right,0.185
MHN1998MRNO,2019-10-04-11-00-26,5,37,0.6985188736277482,left,probe,biased-switch,-1,-5,right,right,0.053
MHN1998MRNO,2019-10-04-11-00-26,5,38,0.5320415108264327,left,both,biased-switch,100,-5,right,right,0.205
MHN1998MRNO,2019-10-04-11-00-26,5,39,0.6231192874845337,left,probe,biased-switch,-1,40,right,right,0.146
MHN1998MRNO,2019-10-04-11-00-26,5,40,0.5330195850591575,left,both,biased-switch,100,40,right,right,0.198
MHN1998MRNO,2019-10-04-11-00-26,5,41,0.6740775400096058,right,probe,biased-switch,-1,5,right,right,0.212
MHN1998MRNO,2019-10-04-11-00-26,5,42,0.591414453442389,right,both,biased-switch,94,5,right,left,0.184
MHN1998MRNO,2019-10-04-11-00-26,5,43,0.5885780906169183,left,probe,ambiguous-switch,-1,-10,right,right,0.166
MHN1998MRNO,2019-10-04-11-00-26,5,44,0.6197566829376533,left,both,ambiguous-switch,103,-10,right,right,0.158
MHN1998MRNO,2019-10-04-11-00-26,5,45,0.624713719394652,right,probe,ambiguous-switch,-1,10,right,right,0.125
MHN1998MRNO,2019-10-04-11-00-26,5,46,0.5983452914339398,right,both,ambiguous-switch,92,10,right,right,0.206
MHN1998MRNO,2019-10-04-11-00-26,5,47,0.6704966521054334,left,probe,biased-switch,-1,-10,right,right,0.249
MHN1998MRNO,2019-10-04-11-00-26,5,48,0.5620898467153207,left,both,biased-switch,97,-10,right,right,0.219
MHN1998MRNO,2019-10-04-11-00-26,5,49,0.6963492841183392,left,probe,biased-switch,-1,0,right,right,0.194
MHN1998MRNO,2019-10-04-11-00-26,5,50,0.548934944586823,left,both,biased-switch,100,0,right,right,0.221
MHN1998MRNO,2019-10-04-11-00-26,5,51,0.5353354622387327,left,probe,ambiguous-switch,-1,30,right,right,0.269
MHN1998MRNO,2019-10-04-11-00-26,5,52,0.5004313111784373,left,both,ambiguous-switch,98,30,right,right,0.208
MHN1998MRNO,2019-10-04-11-00-26,5,53,0.5465078366125864,right,probe,ambiguous-switch,-1,5,right,right,0.151
MHN1998MRNO,2019-10-04-11-00-26,5,54,0.6641936752429293,right,both,ambiguous-switch,106,5,right,right,0.175
MHN1998MRNO,2019-10-04-11-00-26,5,55,0.5199235684164818,right,probe,ambiguous-switch,-1,-5,right,right,0.052
MHN1998MRNO,2019-10-04-11-00-26,5,56,0.6720585076030963,right,both,ambiguous-switch,90,-5,right,right,0.166
MHN1998MRNO,2019-10-04-11-00-26,5,57,0.6965480386335497,left,probe,biased-switch,-1,30,right,right,0.084
MHN1998MRNO,2019-10-04-11-00-26,5,58,0.68153834329053,left,both,biased-switch,108,30,right,right,0.24
MHN1998MRNO,2019-10-04-11-00-26,5,59,0.546269796032645,right,probe,ambiguous-switch,-1,0,right,right,0.181
MHN1998MRNO,2019-10-04-11-00-26,5,60,0.641538457286197,right,both,ambiguous-switch,102,0,right,right,0.22
MHN1998MRNO,2019-10-04-11-00-26,5,61,0.6138277457594037,right,probe,biased-switch,-1,20,right,right,0.193
MHN1998MRNO,2019-10-04-11-00-26,5,62,0.5740388353077575,right,both,biased-switch,107,20,right,right,0.269
MHN1998MRNO,2019-10-04-11-00-26,5,63,0.6869176326155666,right,probe,ambiguous-switch,-1,40,right,right,0.2
MHN1998MRNO,2019-10-04-11-00-26,5,64,0.5014928900986985,right,both,ambiguous-switch,103,40,right,right,0.224
MHN1998MRNO,2019-10-04-11-00-26,5,65,0.6909298068195199,right,probe,ambiguous-switch,-1,-30,right,right,0.214
MHN1998MRNO,2019-10-04-11-00-26,5,66,0.6222244111146453,right,both,ambiguous-switch,103,-30,right,right,0.113
MHN1998MRNO,2019-10-04-11-00-26,5,67,0.5475963826563559,right,probe,ambiguous-switch,-1,20,right,right,0.069
MHN1998MRNO,2019-10-04-11-00-26,5,68,0.5697933563685745,right,both,ambiguous-switch,109,20,right,right,0.217
MHN1998MRNO,2019-10-04-11-00-26,5,69,0.6266601016550357,left,probe,ambiguous-switch,-1,-20,right,right,0.163
MHN1998MRNO,2019-10-04-11-00-26,5,70,0.5681002005875275,left,both,ambiguous-switch,105,-20,right,right,0.113
MHN1998MRNO,2019-10-04-11-00-26,5,71,0.6249749661483914,left,probe,biased-switch,-1,-20,right,right,0.205
MHN1998MRNO,2019-10-04-11-00-26,5,72,0.6459728812309262,left,both,biased-switch,99,-20,right,right,0.167
MHN1998MRNO,2019-10-04-11-00-26,5,73,0.63415590471944,left,probe,biased-switch,-1,-30,right,right,0.184
MHN1998MRNO,2019-10-04-11-00-26,5,74,0.5460330263874137,left,both,biased-switch,101,-30,right,right,0.229
MHN1998MRNO,2019-10-04-11-00-26,5,75,0.6096726856877983,left,probe,biased-switch,-1,10,right,right,0.103
MHN1998MRNO,2019-10-04-11-00-26,5,76,0.6623697675981384,left,both,biased-switch,103,10,right,right,0.094
MHN1998MRNO,2019-10-04-11-00-26,5,77,0.5294616760575684,left,probe,biased-switch,-1,-5,right,right,0.253
MHN1998MRNO,2019-10-04-11-00-26,5,78,0.6317589010277926,left,both,biased-switch,100,-5,right,right,0.194
MHN1998MRNO,2019-10-04-11-00-26,5,79,0.5960393148344556,right,probe,biased-switch,-1,40,right,right,0.198
MHN1998MRNO,2019-10-04-11-00-26,5,80,0.6573520084630469,right,both,biased-switch,98,40,right,right,0.227
MHN1998MRNO,2019-10-04-11-00-26,6,1,0.6225448553180131,left,probe,biased-switch,-1,0,right,right,0.212
MHN1998MRNO,2019-10-04-11-00-26,6,2,0.5572918914149269,left,both,biased-switch,97,0,right,right,0.294
MHN1998MRNO,2019-10-04-11-00-26,6,3,0.6180309421279977,right,probe,biased-switch,-1,-20,right,right,0.116
MHN1998MRNO,2019-10-04-11-00-26,6,4,0.5348906248873816,right,both,biased-switch,105,-20,right,right,0.031
MHN1998MRNO,2019-10-04-11-00-26,6,5,0.5213586086067543,left,probe,biased-switch,-1,40,right,right,0.052
MHN1998MRNO,2019-10-04-11-00-26,6,6,0.6850740912388382,left,both,biased-switch,95,40,right,right,0.109
MHN1998MRNO,2019-10-04-11-00-26,6,7,0.60723107787665,right,probe,biased-switch,-1,-5,right,right,0.073
MHN1998MRNO,2019-10-04-11-00-26,6,8,0.6328160884345145,right,both,biased-switch,106,-5,right,right,0.177
MHN1998MRNO,2019-10-04-11-00-26,6,9,0.5122777681732669,right,probe,ambiguous-switch,-1,0,right,right,0.175
MHN1998MRNO,2019-10-04-11-00-26,6,10,0.5702280814518533,right,both,ambiguous-switch,103,0,right,right,0.005
MHN1998MRNO,2019-10-04-11-00-26,6,11,0.6431886830002368,right,probe,ambiguous-switch,-1,-10,right,right,0.226
MHN1998MRNO,2019-10-04-11-00-26,6,12,0.5204742527579886,right,both,ambiguous-switch,94,-10,right,right,0.06
MHN1998MRNO,2019-10-04-11-00-26,6,13,0.5955611595480474,left,probe,ambiguous-switch,-1,-5,right,right,0.055
MHN1998MRNO,2019-10-04-11-00-26,6,14,0.5624786962457041,left,both,ambiguous-switch,99,-5,right,left,0.251
MHN1998MRNO,2019-10-04-11-00-26,6,15,0.6941550897566792,right,probe,biased-switch,-1,5,right,right,0.121
MHN1998MRNO,2019-10-04-11-00-26,6,16,0.6697388123840643,right,both,biased-switch,106,5,right,left,0.293
MHN1998MRNO,2019-10-04-11-00-26,6,17,0.65499285591371,left,probe,biased-switch,-1,20,right,right,0.195
MHN1998MRNO,2019-10-04-11-00-26,6,18,0.5186086075408923,left,both,biased-switch,107,20,right,right,0.224
MHN1998MRNO,2019-10-04-11-00-26,6,19,0.6479054167991272,left,probe,ambiguous-switch,-1,-30,right,right,0.278
MHN1998MRNO,2019-10-04-11-00-26,6,20,0.6796476340277126,left,both,ambiguous-switch,100,-30,right,right,0.1
MHN1998MRNO,2019-10-04-11-00-26,6,21,0.5489888850037644,left,probe,ambiguous-switch,-1,5,right,right,0.237
MHN1998MRNO,2019-10-04-11-00-26,6,22,0.6864375936432328,left,both,ambiguous-switch,104,5,right,left,0.195
MHN1998MRNO,2019-10-04-11-00-26,6,23,0.5589552809479337,right,probe,ambiguous-switch,-1,10,right,right,0.291
MHN1998MRNO,2019-10-04-11-00-26,6,24,0.6393794869034766,right,both,ambiguous-switch,100,10,right,left,0.219
MHN1998MRNO,2019-10-04-11-00-26,6,25,0.5500637418578321,left,probe,biased-switch,-1,-10,right,right,0.263
MHN1998MRNO,2019-10-04-11-00-26,6,26,0.6750034067062826,left,both,biased-switch,94,-10,right,right,0.131
MHN1998MRNO,2019-10-04-11-00-26,6,27,0.5549785620874531,left,probe,ambiguous-switch,-1,20,right,right,0.07
MHN1998MRNO,2019-10-04-11-00-26,6,28,0.5990389507656908,left,both,ambiguous-switch,92,20,right,right,0.093
MHN1998MRNO,2019-10-04-11-00-26,6,29,0.6304254865555996,left,probe,biased-switch,-1,-30,right,right,0.061
MHN1998MRNO,2019-10-04-11-00-26,6,30,0.5304783269734334,left,both,biased-switch,90,-30,right,right,0.133
MHN1998MRNO,2019-10-04-11-00-26,6,31,0.621224994187932,left,probe,ambiguous-switch,-1,40,right,right,0.16
MHN1998MRNO,2019-10-04-11-00-26,6,32,0.5731991391510542,left,both,ambiguous-switch,90,40,right,right,0.275
MHN1998MRNO,2019-10-04-11-00-26,6,33,0.6618794352880936,right,probe,biased-switch,-1,30,right,right,0.565
MHN1998MRNO,2019-10-04-11-00-26,6,34,0.5568791208358358,right,both,biased-switch,98,30,right,right,0.097
MHN1998MRNO,2019-10-04-11-00-26,6,35,0.6690043748118684,left,probe,ambiguous-switch,-1,-20,right,right,0.163
MHN1998MRNO,2019-10-04-11-00-26,6,36,0.6936685305716492,left,both,ambiguous-switch,106,-20,right,right,0.106
MHN1998MRNO,2019-10-04-11-00-26,6,37,0.6683819833292416,right,probe,biased-switch,-1,10,right,right,0.205
MHN1998MRNO,2019-10-04-11-00-26,6,38,0.6180753691091135,right,both,biased-switch,104,10,right,left,0.183
MHN1998MRNO,2019-10-04-11-00-26,6,39,0.5249276036872104,left,probe,ambiguous-switch,-1,30,right,right,0.169
MHN1998MRNO,2019-10-04-11-00-26,6,40,0.5180477915125609,left,both,ambiguous-switch,98,30,right,right,0.215
MHN1998MRNO,2019-10-04-11-00-26,6,41,0.5241918362569785,right,probe,biased-switch,-1,0,right,right,0.142
MHN1998MRNO,2019-10-04-11-00-26,6,42,0.6148606076598963,right,both,biased-switch,95,0,right,left,0.146
MHN1998MRNO,2019-10-04-11-00-26,6,43,0.5974404821328819,left,probe,biased-switch,-1,-20,right,right,0.118
MHN1998MRNO,2019-10-04-11-00-26,6,44,0.5161798098680841,left,both,biased-switch,92,-20,right,right,0.223
MHN1998MRNO,2019-10-04-11-00-26,6,45,0.6719583962874058,left,probe,biased-switch,-1,40,right,right,0.178
MHN1998MRNO,2019-10-04-11-00-26,6,46,0.5331304255183092,left,both,biased-switch,109,40,right,right,0.26
MHN1998MRNO,2019-10-04-11-00-26,6,47,0.5907600673804226,left,probe,biased-switch,-1,-5,right,right,0.326
MHN1998MRNO,2019-10-04-11-00-26,6,48,0.6994680772009598,left,both,biased-switch,93,-5,right,right,0.121
MHN1998MRNO,2019-10-04-11-00-26,6,49,0.6762092566712445,right,probe,ambiguous-switch,-1,0,right,right,0.165
MHN1998MRNO,2019-10-04-11-00-26,6,50,0.5071757446417186,right,both,ambiguous-switch,102,0,right,right,0.165
MHN1998MRNO,2019-10-04-11-00-26,6,51,0.6535618292104068,right,probe,ambiguous-switch,-1,-10,right,right,0.154
MHN1998MRNO,2019-10-04-11-00-26,6,52,0.581336603121067,right,both,ambiguous-switch,99,-10,right,right,1.764
MHN1998MRNO,2019-10-04-11-00-26,6,53,0.6692404280172705,left,probe,ambiguous-switch,-1,-5,right,right,0.188
MHN1998MRNO,2019-10-04-11-00-26,6,54,0.6890534636400356,left,both,ambiguous-switch,100,-5,right,right,0.218
MHN1998MRNO,2019-10-04-11-00-26,6,55,0.5395567759868636,right,probe,biased-switch,-1,5,right,right,0.207
MHN1998MRNO,2019-10-04-11-00-26,6,56,0.5274963066868261,right,both,biased-switch,110,5,right,left,0.226
MHN1998MRNO,2019-10-04-11-00-26,6,57,0.5623043437373496,left,probe,biased-switch,-1,20,right,right,0.054
MHN1998MRNO,2019-10-04-11-00-26,6,58,0.5756572452234132,left,both,biased-switch,94,20,right,right,0.14
MHN1998MRNO,2019-10-04-11-00-26,6,59,0.6795421882084898,right,probe,ambiguous-switch,-1,-30,right,right,0.216
MHN1998MRNO,2019-10-04-11-00-26,6,60,0.5958200120987296,right,both,ambiguous-switch,93,-30,right,left,0.222
MHN1998MRNO,2019-10-04-11-00-26,6,61,0.6132388150184415,left,probe,ambiguous-switch,-1,5,right,right,1.964
MHN1998MRNO,2019-10-04-11-00-26,6,62,0.5258544812854467,left,both,ambiguous-switch,105,5,right,left,0.198
MHN1998MRNO,2019-10-04-11-00-26,6,63,0.664598103498278,left,probe,ambiguous-switch,-1,10,right,right,0.088
MHN1998MRNO,2019-10-04-11-00-26,6,64,0.5534901033790551,left,both,ambiguous-switch,103,10,right,left,0.329
MHN1998MRNO,2019-10-04-11-00-26,6,65,0.5072542899490686,right,probe,biased-switch,-1,-10,right,right,0.256
MHN1998MRNO,2019-10-04-11-00-26,6,66,0.5512796088248693,right,both,biased-switch,108,-10,right,left,0.219
MHN1998MRNO,2019-10-04-11-00-26,6,67,0.5647450279630973,left,probe,ambiguous-switch,-1,20,right,right,0.187
MHN1998MRNO,2019-10-04-11-00-26,6,68,0.6667621974891484,left,both,ambiguous-switch,97,20,right,right,0.224
MHN1998MRNO,2019-10-04-11-00-26,6,69,0.532899660897854,left,probe,biased-switch,-1,-30,right,right,0.255
MHN1998MRNO,2019-10-04-11-00-26,6,70,0.682427655734728,left,both,biased-switch,99,-30,right,right,0.204
MHN1998MRNO,2019-10-04-11-00-26,6,71,0.5146069303511239,left,probe,ambiguous-switch,-1,40,right,right,0.046
MHN1998MRNO,2019-10-04-11-00-26,6,72,0.6867559511393109,left,both,ambiguous-switch,105,40,right,right,0.135
MHN1998MRNO,2019-10-04-11-00-26,6,73,0.537027495417298,left,probe,biased-switch,-1,30,right,right,0.122
MHN1998MRNO,2019-10-04-11-00-26,6,74,0.5586375850900771,left,both,biased-switch,93,30,right,right,0.213
MHN1998MRNO,2019-10-04-11-00-26,6,75,0.6534988860064228,left,probe,ambiguous-switch,-1,-20,right,right,0.154
MHN1998MRNO,2019-10-04-11-00-26,6,76,0.5993407797787311,left,both,ambiguous-switch,110,-20,right,right,0.145
MHN1998MRNO,2019-10-04-11-00-26,6,77,0.6922073810785915,left,probe,biased-switch,-1,10,right,right,0.189
MHN1998MRNO,2019-10-04-11-00-26,6,78,0.5121891046860177,left,both,biased-switch,105,10,right,right,0.109
MHN1998MRNO,2019-10-04-11-00-26,6,79,0.5514358464690164,left,probe,ambiguous-switch,-1,30,right,right,0.065
MHN1998MRNO,2019-10-04-11-00-26,6,80,0.6991589340480704,left,both,ambiguous-switch,93,30,right,right,0.164
MHN1998MRNO,2019-10-04-11-00-26,7,1,0.6978566099959261,left,probe,ambiguous-switch,-1,0,right,right,0.189
MHN1998MRNO,2019-10-04-11-00-26,7,2,0.6904833888042463,left,both,ambiguous-switch,93,0,right,left,0.183
MHN1998MRNO,2019-10-04-11-00-26,7,3,0.6942244310953467,right,probe,biased-switch,-1,30,left,left,0.202
MHN1998MRNO,2019-10-04-11-00-26,7,4,0.6727913690426243,right,both,biased-switch,110,30,left,right,0.036
MHN1998MRNO,2019-10-04-11-00-26,7,5,0.6726586426621772,left,probe,ambiguous-switch,-1,-5,right,right,0.103
MHN1998MRNO,2019-10-04-11-00-26,7,6,0.5346983245480947,left,both,ambiguous-switch,103,-5,right,right,0.027
MHN1998MRNO,2019-10-04-11-00-26,7,7,0.6052202398969002,right,probe,biased-switch,-1,-5,right,right,0.181
MHN1998MRNO,2019-10-04-11-00-26,7,8,0.546856798220384,right,both,biased-switch,92,-5,right,right,0.116
MHN1998MRNO,2019-10-04-11-00-26,7,9,0.6039357628688532,left,probe,biased-switch,-1,-30,right,right,0.092
MHN1998MRNO,2019-10-04-11-00-26,7,10,0.6048127011624131,left,both,biased-switch,101,-30,right,left,0.201
MHN1998MRNO,2019-10-04-11-00-26,7,11,0.5266457695390908,left,probe,ambiguous-switch,-1,10,right,right,0.019
MHN1998MRNO,2019-10-04-11-00-26,7,12,0.623765035851504,left,both,ambiguous-switch,91,10,right,left,0.169
MHN1998MRNO,2019-10-04-11-00-26,7,13,0.6921130995910925,left,probe,biased-switch,-1,20,right,right,0.222
MHN1998MRNO,2019-10-04-11-00-26,7,14,0.6239220191399449,left,both,biased-switch,96,20,right,right,0.14
MHN1998MRNO,2019-10-04-11-00-26,7,15,0.5624156303062317,right,probe,ambiguous-switch,-1,40,right,right,0.175
MHN1998MRNO,2019-10-04-11-00-26,7,16,0.6673108525668042,right,both,ambiguous-switch,108,40,right,right,0.201
MHN1998MRNO,2019-10-04-11-00-26,7,17,0.6779565492692565,left,probe,ambiguous-switch,-1,-20,right,right,0.078
MHN1998MRNO,2019-10-04-11-00-26,7,18,0.6601234102350805,left,both,ambiguous-switch,97,-20,right,right,0.067
MHN1998MRNO,2019-10-04-11-00-26,7,19,0.6723757821306271,right,probe,ambiguous-switch,-1,20,right,right,0.127
MHN1998MRNO,2019-10-04-11-00-26,7,20,0.6743212331168945,right,both,ambiguous-switch,90,20,right,right,0.108
MHN1998MRNO,2019-10-04-11-00-26,7,21,0.6795219407124378,left,probe,biased-switch,-1,40,right,right,0.191
MHN1998MRNO,2019-10-04-11-00-26,7,22,0.6033230089060634,left,both,biased-switch,109,40,right,right,0.184
MHN1998MRNO,2019-10-04-11-00-26,7,23,0.6488041209122615,left,probe,ambiguous-switch,-1,-30,right,right,0.093
MHN1998MRNO,2019-10-04-11-00-26,7,24,0.6198250819570811,left,both,ambiguous-switch,101,-30,right,right,0.181
MHN1998MRNO,2019-10-04-11-00-26,7,25,0.572714957169994,left,probe,ambiguous-switch,-1,5,right,right,0.186
MHN1998MRNO,2019-10-04-11-00-26,7,26,0.558279784812117,left,both,ambiguous-switch,109,5,right,left,0.209
MHN1998MRNO,2019-10-04-11-00-26,7,27,0.6518945839833906,left,probe,biased-switch,-1,-20,right,right,0.187
MHN1998MRNO,2019-10-04-11-00-26,7,28,0.6415283868338398,left,both,biased-switch,109,-20,right,right,0.213
MHN1998MRNO,2019-10-04-11-00-26,7,29,0.64099643111334,left,probe,biased-switch,-1,-10,right,right,0.203
MHN1998MRNO,2019-10-04-11-00-26,7,30,0.6105673010402004,left,both,biased-switch,99,-10,right,right,0.164
MHN1998MRNO,2019-10-04-11-00-26,7,31,0.6756439580388093,right,probe,biased-switch,-1,10,right,right,0.167
MHN1998MRNO,2019-10-04-11-00-26,7,32,0.6952657829193944,right,both,biased-switch,108,10,right,left,0.188
MHN1998MRNO,2019-10-04-11-00-26,7,33,0.6640235967308099,left,probe,biased-switch,-1,5,right,right,0.03
MHN1998MRNO,2019-10-04-11-00-26,7,34,0.6764271472589041,left,both,biased-switch,94,5,right,left,0.136
MHN1998MRNO,2019-10-04-11-00-26,7,35,0.5804990290029346,right,probe,ambiguous-switch,-1,-10,right,right,0.251
MHN1998MRNO,2019-10-04-11-00-26,7,36,0.5334447494726159,right,both,ambiguous-switch,97,-10,right,left,0.209
MHN1998MRNO,2019-10-04-11-00-26,7,37,0.6224378009454373,right,probe,ambiguous-switch,-1,30,right,right,0.158
MHN1998MRNO,2019-10-04-11-00-26,7,38,0.6753566852758548,right,both,ambiguous-switch,91,30,right,left,0.096
MHN1998MRNO,2019-10-04-11-00-26,7,39,0.5671411941400771,right,probe,biased-switch,-1,0,left,left,0.141
MHN1998MRNO,2019-10-04-11-00-26,7,40,0.6118138249479795,right,both,biased-switch,101,0,left,right,0.1
MHN1998MRNO,2019-10-04-11-00-26,7,41,0.5408703352119091,right,probe,ambiguous-switch,-1,0,left,left,0.216
MHN1998MRNO,2019-10-04-11-00-26,7,42,0.6460354942368824,right,both,ambiguous-switch,101,0,left,left,0.152
MHN1998MRNO,2019-10-04-11-00-26,7,43,0.6250029653938762,left,probe,biased-switch,-1,30,left,left,0.122
MHN1998MRNO,2019-10-04-11-00-26,7,44,0.5919811652789466,left,both,biased-switch,106,30,left,left,0.057
MHN1998MRNO,2019-10-04-11-00-26,7,45,0.5634151234090397,left,probe,ambiguous-switch,-1,-5,left,left,0.167
MHN1998MRNO,2019-10-04-11-00-26,7,46,0.5047896433602905,left,both,ambiguous-switch,100,-5,left,left,0.139
MHN1998MRNO,2019-10-04-11-00-26,7,47,0.5777786786944029,right,probe,biased-switch,-1,-5,left,left,0.137
MHN1998MRNO,2019-10-04-11-00-26,7,48,0.6071422621998721,right,both,biased-switch,90,-5,left,left,0.194
MHN1998MRNO,2019-10-04-11-00-26,7,49,0.5619538797128013,right,probe,biased-switch,-1,-30,left,left,0.093
MHN1998MRNO,2019-10-04-11-00-26,7,50,0.533452168125377,right,both,biased-switch,106,-30,left,left,0.118
MHN1998MRNO,2019-10-04-11-00-26,7,51,0.5258906341345935,right,probe,ambiguous-switch,-1,10,left,left,0.092
MHN1998MRNO,2019-10-04-11-00-26,7,52,0.6396288499863221,right,both,ambiguous-switch,94,10,left,left,0.038
MHN1998MRNO,2019-10-04-11-00-26,7,53,0.5535292571008392,left,probe,biased-switch,-1,20,left,left,0.208
MHN1998MRNO,2019-10-04-11-00-26,7,54,0.5542414847467408,left,both,biased-switch,94,20,left,left,0.206
MHN1998MRNO,2019-10-04-11-00-26,7,55,0.5060831691340124,right,probe,ambiguous-switch,-1,40,left,left,0.047
MHN1998MRNO,2019-10-04-11-00-26,7,56,0.5029180619706812,right,both,ambiguous-switch,92,40,left,left,0.175
MHN1998MRNO,2019-10-04-11-00-26,7,57,0.5792427670261969,right,probe,ambiguous-switch,-1,-20,left,left,0.172
MHN1998MRNO,2019-10-04-11-00-26,7,58,0.6023422896436699,right,both,ambiguous-switch,104,-20,left,left,0.231
MHN1998MRNO,2019-10-04-11-00-26,7,59,0.5362887771958029,left,probe,ambiguous-switch,-1,20,left,left,0.202
MHN1998MRNO,2019-10-04-11-00-26,7,60,0.6093574654150716,left,both,ambiguous-switch,102,20,left,right,0.096
MHN1998MRNO,2019-10-04-11-00-26,7,61,0.5184464590026036,left,probe,biased-switch,-1,40,left,left,0.132
MHN1998MRNO,2019-10-04-11-00-26,7,62,0.5571885584185776,left,both,biased-switch,97,40,left,left,3.185
MHN1998MRNO,2019-10-04-11-00-26,7,63,0.6359937049919215,left,probe,ambiguous-switch,-1,-30,left,left,0.164
MHN1998MRNO,2019-10-04-11-00-26,7,64,0.6809466827882302,left,both,ambiguous-switch,96,-30,left,left,0.157
MHN1998MRNO,2019-10-04-11-00-26,7,65,0.5644433591027039,right,probe,ambiguous-switch,-1,5,left,left,0.116
MHN1998MRNO,2019-10-04-11-00-26,7,66,0.5966319539687329,right,both,ambiguous-switch,106,5,left,left,0.138
MHN1998MRNO,2019-10-04-11-00-26,7,67,0.5661254022961316,right,probe,biased-switch,-1,-20,left,left,0.103
MHN1998MRNO,2019-10-04-11-00-26,7,68,0.5840961669609682,right,both,biased-switch,103,-20,left,left,0.126
MHN1998MRNO,2019-10-04-11-00-26,7,69,0.6357295173269288,left,probe,biased-switch,-1,-10,left,left,0.333
MHN1998MRNO,2019-10-04-11-00-26,7,70,0.6583372359848256,left,both,biased-switch,102,-10,left,left,0.167
MHN1998MRNO,2019-10-04-11-00-26,7,71,0.5814211952751597,left,probe,biased-switch,-1,10,left,left,0.12
MHN1998MRNO,2019-10-04-11-00-26,7,72,0.5902363802542085,left,both,biased-switch,90,10,left,left,0.16
MHN1998MRNO,2019-10-04-11-00-26,7,73,0.5950896935781698,left,probe,biased-switch,-1,5,left,left,0.144
MHN1998MRNO,2019-10-04-11-00-26,7,74,0.6179427653736574,left,both,biased-switch,103,5,left,right,0.107
MHN1998MRNO,2019-10-04-11-00-26,7,75,0.5370084000630398,left,probe,ambiguous-switch,-1,-10,left,left,0.094
MHN1998MRNO,2019-10-04-11-00-26,7,76,0.5193288888763283,left,both,ambiguous-switch,91,-10,left,left,0.064
MHN1998MRNO,2019-10-04-11-00-26,7,77,0.6097309133549292,left,probe,ambiguous-switch,-1,30,left,left,0.173
MHN1998MRNO,2019-10-04-11-00-26,7,78,0.5437188051770236,left,both,ambiguous-switch,103,30,left,left,0.197
MHN1998MRNO,2019-10-04-11-00-26,7,79,0.6870307512199616,right,probe,biased-switch,-1,0,left,left,0.206
MHN1998MRNO,2019-10-04-11-00-26,7,80,0.6888580220167806,right,both,biased-switch,99,0,left,right,0.199
MHN1998MRNO,2019-10-04-11-00-26,8,1,0.6783457690121425,left,probe,biased-switch,-1,-30,left,left,0.206
MHN1998MRNO,2019-10-04-11-00-26,8,2,0.5875803605429242,left,both,biased-switch,107,-30,left,left,0.164
MHN1998MRNO,2019-10-04-11-00-26,8,3,0.5751029189590527,right,probe,ambiguous-switch,-1,-10,left,left,0.238
MHN1998MRNO,2019-10-04-11-00-26,8,4,0.6482642569497336,right,both,ambiguous-switch,90,-10,left,right,0.231
MHN1998MRNO,2019-10-04-11-00-26,8,5,0.5385060285726132,right,probe,biased-switch,-1,10,left,left,0.196
MHN1998MRNO,2019-10-04-11-00-26,8,6,0.6171815891034276,right,both,biased-switch,93,10,left,right,0.204
MHN1998MRNO,2019-10-04-11-00-26,8,7,0.6947191125467396,right,probe,biased-switch,-1,0,left,left,0.103
MHN1998MRNO,2019-10-04-11-00-26,8,8,0.5970372711442,right,both,biased-switch,97,0,left,right,0.133
MHN1998MRNO,2019-10-04-11-00-26,8,9,0.5716363485826921,right,probe,ambiguous-switch,-1,-5,left,left,0.062
MHN1998MRNO,2019-10-04-11-00-26,8,10,0.6975855667311726,right,both,ambiguous-switch,91,-5,left,left,0.171
MHN1998MRNO,2019-10-04-11-00-26,8,11,0.5095483813006236,left,probe,biased-switch,-1,-5,left,left,0.104
MHN1998MRNO,2019-10-04-11-00-26,8,12,0.6686557065616874,left,both,biased-switch,106,-5,left,left,0.161
MHN1998MRNO,2019-10-04-11-00-26,8,13,0.5214593805252539,left,probe,ambiguous-switch,-1,5,left,left,0.117
MHN1998MRNO,2019-10-04-11-00-26,8,14,0.6884528325823853,left,both,ambiguous-switch,92,5,left,right,0.142
MHN1998MRNO,2019-10-04-11-00-26,8,15,0.5795031501690466,right,probe,ambiguous-switch,-1,-30,left,left,0.166
MHN1998MRNO,2019-10-04-11-00-26,8,16,0.5175730355672625,right,both,ambiguous-switch,100,-30,left,left,0.382
MHN1998MRNO,2019-10-04-11-00-26,8,17,0.509350404015343,left,probe,biased-switch,-1,-10,left,left,0.361
MHN1998MRNO,2019-10-04-11-00-26,8,18,0.5652773089449334,left,both,biased-switch,94,-10,left,left,0.178
MHN1998MRNO,2019-10-04-11-00-26,8,19,0.5118882449267195,left,probe,biased-switch,-1,40,left,left,0.345
MHN1998MRNO,2019-10-04-11-00-26,8,20,0.5162116155091747,left,both,biased-switch,97,40,left,left,0.2
MHN1998MRNO,2019-10-04-11-00-26,8,21,0.5254473811319379,right,probe,ambiguous-switch,-1,-20,left,left,0.11
MHN1998MRNO,2019-10-04-11-00-26,8,22,0.636243447211055,right,both,ambiguous-switch,109,-20,left,left,1.248
MHN1998MRNO,2019-10-04-11-00-26,8,23,0.5539545305783509,left,probe,biased-switch,-1,5,left,left,0.478
MHN1998MRNO,2019-10-04-11-00-26,8,24,0.6305185709185168,left,both,biased-switch,91,5,left,right,0.231
MHN1998MRNO,2019-10-04-11-00-26,8,25,0.5460160902918624,right,probe,biased-switch,-1,20,left,left,0.181
MHN1998MRNO,2019-10-04-11-00-26,8,26,0.6877881881724441,right,both,biased-switch,110,20,left,left,0.193
MHN1998MRNO,2019-10-04-11-00-26,8,27,0.581652255622294,left,probe,ambiguous-switch,-1,0,left,left,0.098
MHN1998MRNO,2019-10-04-11-00-26,8,28,0.5501298750481557,left,both,ambiguous-switch,98,0,left,left,0.15
MHN1998MRNO,2019-10-04-11-00-26,8,29,0.5344137603586653,right,probe,ambiguous-switch,-1,40,left,left,0.176
MHN1998MRNO,2019-10-04-11-00-26,8,30,0.6938879723453418,right,both,ambiguous-switch,91,40,left,left,0.145
MHN1998MRNO,2019-10-04-11-00-26,8,31,0.6258230780325084,right,probe,ambiguous-switch,-1,30,left,left,0.18
MHN1998MRNO,2019-10-04-11-00-26,8,32,0.5759112436346855,right,both,ambiguous-switch,96,30,left,left,0.211
MHN1998MRNO,2019-10-04-11-00-26,8,33,0.5594449535631495,left,probe,biased-switch,-1,-20,left,left,0.213
MHN1998MRNO,2019-10-04-11-00-26,8,34,0.5794879269890891,left,both,biased-switch,91,-20,left,right,0.223
MHN1998MRNO,2019-10-04-11-00-26,8,35,0.506978067619897,right,probe,ambiguous-switch,-1,10,left,left,0.065
MHN1998MRNO,2019-10-04-11-00-26,8,36,0.6101765159567168,right,both,ambiguous-switch,102,10,left,right,0.184
MHN1998MRNO,2019-10-04-11-00-26,8,37,0.6562123039495271,left,probe,biased-switch,-1,30,right,right,0.185
MHN1998MRNO,2019-10-04-11-00-26,8,38,0.5300795602025966,left,both,biased-switch,104,30,right,right,0.2
MHN1998MRNO,2019-10-04-11-00-26,8,39,0.6840088544295232,left,probe,ambiguous-switch,-1,20,right,right,0.165
MHN1998MRNO,2019-10-04-11-00-26,8,40,0.5585484240206496,left,both,ambiguous-switch,91,20,right,left,0.187
MHN1998MRNO,2019-10-04-11-00-26,8,41,0.5026949822592236,left,probe,biased-switch,-1,-30,left,left,0.201
MHN1998MRNO,2019-10-04-11-00-26,8,42,0.6202208201027473,left,both,biased-switch,91,-30,left,right,0.324
MHN1998MRNO,2019-10-04-11-00-26,8,43,0.5263805269301625,left,probe,ambiguous-switch,-1,-10,right,right,0.111
MHN1998MRNO,2019-10-04-11-00-26,8,44,0.5547257597823969,left,both,ambiguous-switch,110,-10,right,right,0.138
MHN1998MRNO,2019-10-04-11-00-26,8,45,0.5884101757991771,left,probe,biased-switch,-1,10,right,right,0.066
MHN1998MRNO,2019-10-04-11-00-26,8,46,0.5376339801983909,left,both,biased-switch,96,10,right,left,0.163
MHN1998MRNO,2019-10-04-11-00-26,8,47,0.5929667667876437,right,probe,biased-switch,-1,0,right,right,0.142
MHN1998MRNO,2019-10-04-11-00-26,8,48,0.6454829103642528,right,both,biased-switch,103,0,right,left,0.251
MHN1998MRNO,2019-10-04-11-00-26,8,49,0.5234770267658413,right,probe,ambiguous-switch,-1,-5,right,right,0.202
MHN1998MRNO,2019-10-04-11-00-26,8,50,0.6797147557579756,right,both,ambiguous-switch,95,-5,right,left,0.117
MHN1998MRNO,2019-10-04-11-00-26,8,51,0.6375882882286683,left,probe,biased-switch,-1,-5,right,right,0.047
MHN1998MRNO,2019-10-04-11-00-26,8,52,0.6611730757428034,left,both,biased-switch,99,-5,right,right,0.163
MHN1998MRNO,2019-10-04-11-00-26,8,53,0.5162065931111137,right,probe,ambiguous-switch,-1,5,right,right,0.065
MHN1998MRNO,2019-10-04-11-00-26,8,54,0.5359412676123055,right,both,ambiguous-switch,98,5,right,left,0.12
MHN1998MRNO,2019-10-04-11-00-26,8,55,0.5294431132028097,left,probe,ambiguous-switch,-1,-30,right,right,0.205
MHN1998MRNO,2019-10-04-11-00-26,8,56,0.6900604134568934,left,both,ambiguous-switch,94,-30,right,right,0.17
MHN1998MRNO,2019-10-04-11-00-26,8,57,0.665427127345225,right,probe,biased-switch,-1,-10,right,right,0.129
MHN1998MRNO,2019-10-04-11-00-26,8,58,0.5352514127555963,right,both,biased-switch,107,-10,right,right,0.187
MHN1998MRNO,2019-10-04-11-00-26,8,59,0.5216830850736377,right,probe,biased-switch,-1,40,right,right,0.097
MHN1998MRNO,2019-10-04-11-00-26,8,60,0.6436084206002106,right,both,biased-switch,95,40,right,right,0.224
MHN1998MRNO,2019-10-04-11-00-26,8,61,0.6621275086903375,left,probe,ambiguous-switch,-1,-20,right,right,0.142
MHN1998MRNO,2019-10-04-11-00-26,8,62,0.6286023534725153,left,both,ambiguous-switch,109,-20,right,right,0.066
MHN1998MRNO,2019-10-04-11-00-26,8,63,0.6762588283230845,left,probe,biased-switch,-1,5,right,right,0.158
MHN1998MRNO,2019-10-04-11-00-26,8,64,0.5627170303799973,left,both,biased-switch,96,5,right,left,0.195
MHN1998MRNO,2019-10-04-11-00-26,8,65,0.5370839807951758,right,probe,biased-switch,-1,20,right,right,0.091
MHN1998MRNO,2019-10-04-11-00-26,8,66,0.5662067023746662,right,both,biased-switch,91,20,right,right,0.165
MHN1998MRNO,2019-10-04-11-00-26,8,67,0.5042838220341886,left,probe,ambiguous-switch,-1,0,right,right,0.163
MHN1998MRNO,2019-10-04-11-00-26,8,68,0.6766404983697593,left,both,ambiguous-switch,93,0,right,right,0.17
MHN1998MRNO,2019-10-04-11-00-26,8,69,0.6226743139732211,right,probe,ambiguous-switch,-1,40,right,right,0.179
MHN1998MRNO,2019-10-04-11-00-26,8,70,0.6262853479946969,right,both,ambiguous-switch,90,40,right,right,0.156
MHN1998MRNO,2019-10-04-11-00-26,8,71,0.5747641812349147,left,probe,ambiguous-switch,-1,30,right,right,0.204
MHN1998MRNO,2019-10-04-11-00-26,8,72,0.5746478762749284,left,both,ambiguous-switch,105,30,right,right,0.228
MHN1998MRNO,2019-10-04-11-00-26,8,73,0.5147686435160445,left,probe,biased-switch,-1,-20,right,right,0.154
MHN1998MRNO,2019-10-04-11-00-26,8,74,0.5427102154557397,left,both,biased-switch,110,-20,right,right,0.111
MHN1998MRNO,2019-10-04-11-00-26,8,75,0.6459754685989475,right,probe,ambiguous-switch,-1,10,right,right,0.201
MHN1998MRNO,2019-10-04-11-00-26,8,76,0.586383469197661,right,both,ambiguous-switch,104,10,right,left,0.209
MHN1998MRNO,2019-10-04-11-00-26,8,77,0.6988581833862166,right,probe,biased-switch,-1,30,right,right,0.193
MHN1998MRNO,2019-10-04-11-00-26,8,78,0.5775422370946083,right,both,biased-switch,93,30,right,left,0.232
MHN1998MRNO,2019-10-04-11-00-26,8,79,0.5193885304098944,left,probe,ambiguous-switch,-1,20,right,right,0.537
MHN1998MRNO,2019-10-04-11-00-26,8,80,0.5852507938193174,left,both,ambiguous-switch,109,20,right,right,1.023
MHN1998MRNO,2019-10-04-11-00-26,9,1,0.5362804973950139,left,probe,biased-switch,-1,-30,right,right,0.208
MHN1998MRNO,2019-10-04-11-00-26,9,2,0.5753161519690665,left,both,biased-switch,94,-30,right,right,0.218
MHN1998MRNO,2019-10-04-11-00-26,9,3,0.561008400408699,left,probe,ambiguous-switch,-1,-5,right,right,0.068
MHN1998MRNO,2019-10-04-11-00-26,9,4,0.5275807559625254,left,both,ambiguous-switch,98,-5,right,right,0.024
MHN1998MRNO,2019-10-04-11-00-26,9,5,0.6360612496239862,right,probe,ambiguous-switch,-1,0,right,right,0.127
MHN1998MRNO,2019-10-04-11-00-26,9,6,0.539867715967971,right,both,ambiguous-switch,107,0,right,left,0.201
MHN1998MRNO,2019-10-04-11-00-26,9,7,0.6750772969988723,right,probe,ambiguous-switch,-1,10,left,left,0.197
MHN1998MRNO,2019-10-04-11-00-26,9,8,0.6283824924554451,right,both,ambiguous-switch,91,10,left,left,0.205
MHN1998MRNO,2019-10-04-11-00-26,9,9,0.599545727505655,left,probe,biased-switch,-1,-20,left,left,0.147
MHN1998MRNO,2019-10-04-11-00-26,9,10,0.664217884848795,left,both,biased-switch,90,-20,left,left,0.142
MHN1998MRNO,2019-10-04-11-00-26,9,11,0.5293503032388086,left,probe,ambiguous-switch,-1,40,left,left,0.074
MHN1998MRNO,2019-10-04-11-00-26,9,12,0.5034715540753281,left,both,ambiguous-switch,96,40,left,left,0.218
MHN1998MRNO,2019-10-04-11-00-26,9,13,0.5016712936022263,left,probe,biased-switch,-1,-10,left,left,0.061
MHN1998MRNO,2019-10-04-11-00-26,9,14,0.6050070818305548,left,both,biased-switch,109,-10,left,left,0.097
MHN1998MRNO,2019-10-04-11-00-26,9,15,0.6387246752213367,left,probe,ambiguous-switch,-1,-10,left,left,0.115
MHN1998MRNO,2019-10-04-11-00-26,9,16,0.5997346873696714,left,both,ambiguous-switch,97,-10,left,left,0.111
MHN1998MRNO,2019-10-04-11-00-26,9,17,0.5550665506674859,left,probe,biased-switch,-1,40,left,left,0.068
MHN1998MRNO,2019-10-04-11-00-26,9,18,0.6406977112540048,left,both,biased-switch,91,40,left,left,0.209
MHN1998MRNO,2019-10-04-11-00-26,9,19,0.5987673153206188,left,probe,biased-switch,-1,30,left,left,0.176
MHN1998MRNO,2019-10-04-11-00-26,9,20,0.6463247124874636,left,both,biased-switch,95,30,left,left,0.163
MHN1998MRNO,2019-10-04-11-00-26,9,21,0.5506436627696747,right,probe,biased-switch,-1,10,left,left,0.154
MHN1998MRNO,2019-10-04-11-00-26,9,22,0.6647591622952915,right,both,biased-switch,94,10,left,right,0.065
MHN1998MRNO,2019-10-04-11-00-26,9,23,0.6291546207243116,left,probe,biased-switch,-1,-5,left,left,0.237
MHN1998MRNO,2019-10-04-11-00-26,9,24,0.5522550259744929,left,both,biased-switch,103,-5,left,left,0.22
MHN1998MRNO,2019-10-04-11-00-26,9,25,0.627802255067668,right,probe,ambiguous-switch,-1,-20,left,left,0.133
MHN1998MRNO,2019-10-04-11-00-26,9,26,0.5408583550675545,right,both,ambiguous-switch,91,-20,left,left,0.244
MHN1998MRNO,2019-10-04-11-00-26,9,27,0.6266237860184558,left,probe,biased-switch,-1,5,left,left,0.127
MHN1998MRNO,2019-10-04-11-00-26,9,28,0.6452936772435635,left,both,biased-switch,99,5,left,left,0.234
MHN1998MRNO,2019-10-04-11-00-26,9,29,0.6488090413631751,left,probe,ambiguous-switch,-1,5,left,left,0.174
MHN1998MRNO,2019-10-04-11-00-26,9,30,0.6696200417948712,left,both,ambiguous-switch,91,5,left,left,0.097
MHN1998MRNO,2019-10-04-11-00-26,9,31,0.5221966747998743,right,probe,ambiguous-switch,-1,-30,left,left,0.167
MHN1998MRNO,2019-10-04-11-00-26,9,32,0.523416317326741,right,both,ambiguous-switch,104,-30,left,left,0.817
MHN1998MRNO,2019-10-04-11-00-26,9,33,0.6817964147469102,left,probe,biased-switch,-1,0,left,left,0.186
MHN1998MRNO,2019-10-04-11-00-26,9,34,0.5306429002750663,left,both,biased-switch,103,0,left,left,0.202
MHN1998MRNO,2019-10-04-11-00-26,9,35,0.5143178775622923,right,probe,ambiguous-switch,-1,20,left,left,0.08
MHN1998MRNO,2019-10-04-11-00-26,9,36,0.681965707320937,right,both,ambiguous-switch,105,20,left,left,0.234
MHN1998MRNO,2019-10-04-11-00-26,9,37,0.501868019341729,left,probe,ambiguous-switch,-1,30,left,left,0.178
MHN1998MRNO,2019-10-04-11-00-26,9,38,0.5594724693194867,left,both,ambiguous-switch,91,30,left,left,0.086
MHN1998MRNO,2019-10-04-11-00-26,9,39,0.5166388078350618,right,probe,biased-switch,-1,20,left,left,0.155
MHN1998MRNO,2019-10-04-11-00-26,9,40,0.5558911130115927,right,both,biased-switch,101,20,left,left,0.13
MHN1998MRNO,2019-10-04-11-00-26,9,41,0.6010992175627597,left,probe,biased-switch,-1,-30,left,left,0.172
MHN1998MRNO,2019-10-04-11-00-26,9,42,0.5027848230621916,left,both,biased-switch,108,-30,left,left,0.128
MHN1998MRNO,2019-10-04-11-00-26,9,43,0.6430983502517948,right,probe,ambiguous-switch,-1,-5,left,left,0.187
MHN1998MRNO,2019-10-04-11-00-26,9,44,0.5315340778081783,right,both,ambiguous-switch,95,-5,left,right,0.276
MHN1998MRNO,2019-10-04-11-00-26,9,45,0.6000353524368892,right,probe,ambiguous-switch,-1,0,left,left,0.217
MHN1998MRNO,2019-10-04-11-00-26,9,46,0.5816840363918498,right,both,ambiguous-switch,91,0,left,right,0.21
MHN1998MRNO,2019-10-04-11-00-26,9,47,0.6076944493482522,left,probe,ambiguous-switch,-1,10,left,left,0.093
MHN1998MRNO,2019-10-04-11-00-26,9,48,0.5735739592190816,left,both,ambiguous-switch,103,10,left,right,0.244
MHN1998MRNO,2019-10-04-11-00-26,9,49,0.6100462818243299,right,probe,biased-switch,-1,-20,left,left,0.158
MHN1998MRNO,2019-10-04-11-00-26,9,50,0.6911728471340923,right,both,biased-switch,93,-20,left,right,0.223
MHN1998MRNO,2019-10-04-11-00-26,9,51,0.5833858863312474,right,probe,ambiguous-switch,-1,40,left,left,0.129
MHN1998MRNO,2019-10-04-11-00-26,9,52,0.6793990110147187,right,both,ambiguous-switch,91,40,left,left,0.213
MHN1998MRNO,2019-10-04-11-00-26,9,53,0.5621055388931987,left,probe,biased-switch,-1,-10,left,left,0.209
MHN1998MRNO,2019-10-04-11-00-26,9,54,0.5999282674084989,left,both,biased-switch,101,-10,left,left,0.153
MHN1998MRNO,2019-10-04-11-00-26,9,55,0.6871696341663183,right,probe,ambiguous-switch,-1,-10,left,left,0.188
MHN1998MRNO,2019-10-04-11-00-26,9,56,0.6555625035040527,right,both,ambiguous-switch,98,-10,left,left,0.108
MHN1998MRNO,2019-10-04-11-00-26,9,57,0.6964131287933149,left,probe,biased-switch,-1,40,left,left,0.108
MHN1998MRNO,2019-10-04-11-00-26,9,58,0.5495273891191832,left,both,biased-switch,91,40,left,left,0.166
MHN1998MRNO,2019-10-04-11-00-26,9,59,0.5665305246494059,right,probe,biased-switch,-1,30,left,left,0.053
MHN1998MRNO,2019-10-04-11-00-26,9,60,0.6332991099774818,right,both,biased-switch,106,30,left,left,0.214
MHN1998MRNO,2019-10-04-11-00-26,9,61,0.5684161676789609,right,probe,biased-switch,-1,10,left,left,0.085
MHN1998MRNO,2019-10-04-11-00-26,9,62,0.549568869252605,right,both,biased-switch,95,10,left,left,0.156
MHN1998MRNO,2019-10-04-11-00-26,9,63,0.5961035520293607,left,probe,biased-switch,-1,-5,left,left,0.089
MHN1998MRNO,2019-10-04-11-00-26,9,64,0.5227854963437469,left,both,biased-switch,102,-5,left,left,0.133
MHN1998MRNO,2019-10-04-11-00-26,9,65,0.5846145091296497,right,probe,ambiguous-switch,-1,-20,left,left,0.144
MHN1998MRNO,2019-10-04-11-00-26,9,66,0.5106345523771813,right,both,ambiguous-switch,102,-20,left,left,0.182
MHN1998MRNO,2019-10-04-11-00-26,9,67,0.5502863363149442,left,probe,biased-switch,-1,5,left,left,0.087
MHN1998MRNO,2019-10-04-11-00-26,9,68,0.5571029776333993,left,both,biased-switch,92,5,left,right,0.148
MHN1998MRNO,2019-10-04-11-00-26,9,69,0.5418153878018354,left,probe,ambiguous-switch,-1,5,left,left,0.156
MHN1998MRNO,2019-10-04-11-00-26,9,70,0.5721275592324648,left,both,ambiguous-switch,96,5,left,right,0.173
MHN1998MRNO,2019-10-04-11-00-26,9,71,0.6630032856238173,right,probe,ambiguous-switch,-1,-30,left,left,0.144
MHN1998MRNO,2019-10-04-11-00-26,9,72,0.5748372649904813,right,both,ambiguous-switch,103,-30,left,left,0.231
MHN1998MRNO,2019-10-04-11-00-26,9,73,0.5380727206950426,left,probe,biased-switch,-1,0,left,left,0.147
MHN1998MRNO,2019-10-04-11-00-26,9,74,0.5264558227131779,left,both,biased-switch,90,0,left,left,0.15
MHN1998MRNO,2019-10-04-11-00-26,9,75,0.5260085807365533,left,probe,ambiguous-switch,-1,20,left,left,0.094
MHN1998MRNO,2019-10-04-11-00-26,9,76,0.6332338298619545,left,both,ambiguous-switch,109,20,left,right,0.262
MHN1998MRNO,2019-10-04-11-00-26,9,77,0.5630899772125658,left,probe,ambiguous-switch,-1,30,right,right,0.204
MHN1998MRNO,2019-10-04-11-00-26,9,78,0.5955355869538058,left,both,ambiguous-switch,104,30,right,left,0.152
MHN1998MRNO,2019-10-04-11-00-26,9,79,0.5367105672457511,left,probe,biased-switch,-1,20,left,left,0.107
MHN1998MRNO,2019-10-04-11-00-26,9,80,0.5848213278221258,left,both,biased-switch,110,20,left,right,0.155
MHN1998MRNO,2019-10-04-11-00-26,10,1,0.5078954985396084,left,probe,ambiguous-switch,-1,20,left,left,0.2
MHN1998MRNO,2019-10-04-11-00-26,10,2,0.6637828620693984,left,both,ambiguous-switch,109,20,left,right,0.167
MHN1998MRNO,2019-10-04-11-00-26,10,3,0.6271993917200817,left,probe,biased-switch,-1,40,right,right,0.1
MHN1998MRNO,2019-10-04-11-00-26,10,4,0.5418329283969101,left,both,biased-switch,108,40,right,right,0.268
MHN1998MRNO,2019-10-04-11-00-26,10,5,0.6303414653641863,left,probe,biased-switch,-1,-5,right,right,0.236
MHN1998MRNO,2019-10-04-11-00-26,10,6,0.6534494214688762,left,both,biased-switch,102,-5,right,right,2.578
MHN1998MRNO,2019-10-04-11-00-26,10,7,0.665331691085508,left,probe,biased-switch,-1,30,right,right,0.283
MHN1998MRNO,2019-10-04-11-00-26,10,8,0.5720857314486834,left,both,biased-switch,92,30,right,right,0.037
MHN1998MRNO,2019-10-04-11-00-26,10,9,0.6847764221518535,left,probe,biased-switch,-1,-10,right,right,0.165
MHN1998MRNO,2019-10-04-11-00-26,10,10,0.5593217837666823,left,both,biased-switch,105,-10,right,right,0.075
MHN1998MRNO,2019-10-04-11-00-26,10,11,0.6250607963969761,left,probe,biased-switch,-1,5,right,right,0.09
MHN1998MRNO,2019-10-04-11-00-26,10,12,0.5234092024228911,left,both,biased-switch,101,5,right,left,0.149
MHN1998MRNO,2019-10-04-11-00-26,10,13,0.5902271560472163,left,probe,ambiguous-switch,-1,-30,right,right,0.117
MHN1998MRNO,2019-10-04-11-00-26,10,14,0.6245394287871349,left,both,ambiguous-switch,105,-30,right,right,0.204
MHN1998MRNO,2019-10-04-11-00-26,10,15,0.5136201816197693,right,probe,ambiguous-switch,-1,40,right,right,0.125
MHN1998MRNO,2019-10-04-11-00-26,10,16,0.5703828283863932,right,both,ambiguous-switch,93,40,right,right,0.188
MHN1998MRNO,2019-10-04-11-00-26,10,17,0.5736787736161784,left,probe,ambiguous-switch,-1,-5,right,right,0.102
MHN1998MRNO,2019-10-04-11-00-26,10,18,0.6962871069489293,left,both,ambiguous-switch,92,-5,right,right,0.081
MHN1998MRNO,2019-10-04-11-00-26,10,19,0.5660326689191979,right,probe,ambiguous-switch,-1,0,right,right,0.194
MHN1998MRNO,2019-10-04-11-00-26,10,20,0.5451563762910905,right,both,ambiguous-switch,102,0,right,left,0.171
MHN1998MRNO,2019-10-04-11-00-26,10,21,0.5899896818803078,left,probe,biased-switch,-1,-20,right,right,0.035
MHN1998MRNO,2019-10-04-11-00-26,10,22,0.6452489041408667,left,both,biased-switch,94,-20,right,right,0.03
MHN1998MRNO,2019-10-04-11-00-26,10,23,0.5336638734569704,right,probe,biased-switch,-1,20,right,right,0.152
MHN1998MRNO,2019-10-04-11-00-26,10,24,0.6255520625667635,right,both,biased-switch,92,20,right,left,0.186
MHN1998MRNO,2019-10-04-11-00-26,10,25,0.5559598743695696,left,probe,biased-switch,-1,-30,right,right,0.221
MHN1998MRNO,2019-10-04-11-00-26,10,26,0.5283442082084456,left,both,biased-switch,108,-30,right,right,0.269
MHN1998MRNO,2019-10-04-11-00-26,10,27,0.6379327797746149,left,probe,ambiguous-switch,-1,10,right,right,0.226
MHN1998MRNO,2019-10-04-11-00-26,10,28,0.5733921842234109,left,both,ambiguous-switch,97,10,right,right,0.205
MHN1998MRNO,2019-10-04-11-00-26,10,29,0.6662804683869714,right,probe,ambiguous-switch,-1,5,right,right,0.346
MHN1998MRNO,2019-10-04-11-00-26,10,30,0.6906940757432988,right,both,ambiguous-switch,110,5,right,left,0.332
MHN1998MRNO,2019-10-04-11-00-26,10,31,0.6765114150582143,right,probe,ambiguous-switch,-1,30,left,left,0.274
MHN1998MRNO,2019-10-04-11-00-26,10,32,0.5013187642802068,right,both,ambiguous-switch,92,30,left,right,0.211
MHN1998MRNO,2019-10-04-11-00-26,10,33,0.5658832611858596,left,probe,biased-switch,-1,0,right,right,0.308
MHN1998MRNO,2019-10-04-11-00-26,10,34,0.6990163529890422,left,both,biased-switch,101,0,right,right,0.183
MHN1998MRNO,2019-10-04-11-00-26,10,35,0.6595323253681487,left,probe,ambiguous-switch,-1,-20,right,right,0.263
MHN1998MRNO,2019-10-04-11-00-26,10,36,0.5708510498037057,left,both,ambiguous-switch,94,-20,right,right,0.126
MHN1998MRNO,2019-10-04-11-00-26,10,37,0.5540212466477594,right,probe,biased-switch,-1,10,right,right,0.064
MHN1998MRNO,2019-10-04-11-00-26,10,38,0.662634640024513,right,both,biased-switch,93,10,right,left,0.053
MHN1998MRNO,2019-10-04-11-00-26,10,39,0.5394900778405529,right,probe,ambiguous-switch,-1,-10,left,left,0.112
MHN1998MRNO,2019-10-04-11-00-26,10,40,0.6121315492427599,right,both,ambiguous-switch,105,-10,left,left,0.195
MHN1998MRNO,2019-10-04-11-00-26,10,41,0.5623075643548836,left,probe,ambiguous-switch,-1,20,right,right,0.055
MHN1998MRNO,2019-10-04-11-00-26,10,42,0.6583261299457588,left,both,ambiguous-switch,98,20,right,right,0.231
MHN1998MRNO,2019-10-04-11-00-26,10,43,0.5930850470257064,right,probe,biased-switch,-1,40,left,left,0.187
MHN1998MRNO,2019-10-04-11-00-26,10,44,0.5788666041812661,right,both,biased-switch,107,40,left,left,0.459
MHN1998MRNO,2019-10-04-11-00-26,10,45,0.5708547578772605,left,probe,biased-switch,-1,-5,left,left,0.195
MHN1998MRNO,2019-10-04-11-00-26,10,46,0.5817960481708164,left,both,biased-switch,101,-5,left,right,0.123
MHN1998MRNO,2019-10-04-11-00-26,10,47,0.5200492193912742,left,probe,biased-switch,-1,30,right,right,0.208
MHN1998MRNO,2019-10-04-11-00-26,10,48,0.6067325398432293,left,both,biased-switch,110,30,right,right,0.221
MHN1998MRNO,2019-10-04-11-00-26,10,49,0.5142681834054937,left,probe,biased-switch,-1,-10,right,right,0.143
MHN1998MRNO,2019-10-04-11-00-26,10,50,0.5878869854618564,left,both,biased-switch,105,-10,right,right,0.207
MHN1998MRNO,2019-10-04-11-00-26,10,51,0.6845381793149854,right,probe,biased-switch,-1,5,right,right,0.14
MHN1998MRNO,2019-10-04-11-00-26,10,52,0.5948489234949671,right,both,biased-switch,106,5,right,left,0.161
MHN1998MRNO,2019-10-04-11-00-26,10,53,0.6488653813599747,right,probe,ambiguous-switch,-1,-30,left,left,0.213
MHN1998MRNO,2019-10-04-11-00-26,10,54,0.5404907983451737,right,both,ambiguous-switch,94,-30,left,left,0.336
MHN1998MRNO,2019-10-04-11-00-26,10,55,0.6376088504210611,left,probe,ambiguous-switch,-1,40,left,left,0.217
MHN1998MRNO,2019-10-04-11-00-26,10,56,0.5514941722622373,left,both,ambiguous-switch,107,40,left,right,0.174
MHN1998MRNO,2019-10-04-11-00-26,10,57,0.6860881998572406,right,probe,ambiguous-switch,-1,-5,left,left,0.248
MHN1998MRNO,2019-10-04-11-00-26,10,58,0.6823726526948194,right,both,ambiguous-switch,105,-5,left,left,0.027
MHN1998MRNO,2019-10-04-11-00-26,10,59,0.6621383765016609,right,probe,ambiguous-switch,-1,0,left,left,0.251
MHN1998MRNO,2019-10-04-11-00-26,10,60,0.6101162116531951,right,both,ambiguous-switch,96,0,left,left,0.195
MHN1998MRNO,2019-10-04-11-00-26,10,61,0.5518966478492608,left,probe,biased-switch,-1,-20,left,left,0.79
MHN1998MRNO,2019-10-04-11-00-26,10,62,0.6596602103951454,left,both,biased-switch,93,-20,left,left,0.2
MHN1998MRNO,2019-10-04-11-00-26,10,63,0.5208574044436745,left,probe,biased-switch,-1,20,left,left,1.243
MHN1998MRNO,2019-10-04-11-00-26,10,64,0.5854881335880088,left,both,biased-switch,91,20,left,left,0.26
MHN1998MRNO,2019-10-04-11-00-26,10,65,0.5943409997113703,right,probe,biased-switch,-1,-30,left,left,0.171
MHN1998MRNO,2019-10-04-11-00-26,10,66,0.6116524090391185,right,both,biased-switch,98,-30,left,left,0.067
MHN1998MRNO,2019-10-04-11-00-26,10,67,0.5986645421795879,right,probe,ambiguous-switch,-1,10,left,left,0.162
MHN1998MRNO,2019-10-04-11-00-26,10,68,0.6801473424959957,right,both,ambiguous-switch,110,10,left,left,0.208
MHN1998MRNO,2019-10-04-11-00-26,10,69,0.6989791856958851,left,probe,ambiguous-switch,-1,5,left,left,0.444
MHN1998MRNO,2019-10-04-11-00-26,10,70,0.6257660196891641,left,both,ambiguous-switch,106,5,left,left,0.286
MHN1998MRNO,2019-10-04-11-00-26,10,71,0.5673202520095859,right,probe,ambiguous-switch,-1,30,left,left,0.226
MHN1998MRNO,2019-10-04-11-00-26,10,72,0.5507525496384331,right,both,ambiguous-switch,99,30,left,left,0.258
MHN1998MRNO,2019-10-04-11-00-26,10,73,0.6771844524533929,left,probe,biased-switch,-1,0,left,left,0.103
MHN1998MRNO,2019-10-04-11-00-26,10,74,0.5321816981112548,left,both,biased-switch,106,0,left,right,0.066
MHN1998MRNO,2019-10-04-11-00-26,10,75,0.5679353521271755,left,probe,ambiguous-switch,-1,-20,left,left,0.142
MHN1998MRNO,2019-10-04-11-00-26,10,76,0.6717543684442429,left,both,ambiguous-switch,103,-20,left,left,0.079
MHN1998MRNO,2019-10-04-11-00-26,10,77,0.5349518718342572,right,probe,biased-switch,-1,10,left,left,0.063
MHN1998MRNO,2019-10-04-11-00-26,10,78,0.6290618547406942,right,both,biased-switch,105,10,left,left,0.212
MHN1998MRNO,2019-10-04-11-00-26,10,79,0.5111432899041876,right,probe,ambiguous-switch,-1,-10,left,left,0.114
MHN1998MRNO,2019-10-04-11-00-26,10,80,0.5200862081257324,right,both,ambiguous-switch,108,-10,left,left,0.175
